,ACCELEROMETER X (m/s²),ACCELEROMETER Y (m/s²),ACCELEROMETER Z (m/s²),GRAVITY X (m/s²),GRAVITY Y (m/s²),GRAVITY Z (m/s²),LINEAR ACCELERATION X (m/s²),LINEAR ACCELERATION Y (m/s²),LINEAR ACCELERATION Z (m/s²),GYROSCOPE X (rad/s),GYROSCOPE Y (rad/s),GYROSCOPE Z (rad/s),LIGHT (lux),MAGNETIC FIELD X (μT),MAGNETIC FIELD Y (μT),MAGNETIC FIELD Z (μT),ORIENTATION Z (azimuth °),ORIENTATION X (pitch °),ORIENTATION Y (roll °),PROXIMITY (i),ATMOSPHERIC PRESSURE (hPa),SOUND LEVEL (dB),LOCATION Latitude : ,LOCATION Longitude : ,LOCATION Altitude ( m),LOCATION Altitude-google ( m),LOCATION Altitude-atmospheric pressure ( m),LOCATION Speed ( Kmh),LOCATION Accuracy ( m),LOCATION ORIENTATION (°),Satellites in range,Time since start in ms ,YYYY-MO-DD HH-MI-SS_SSS,OUT
0,0.35200000000000004,9.51,2.4730000000000003,0.149,9.446,2.6310000000000002,0.141,0.146,0.0,0.039,-0.19899999999999998,-0.023,50.0,7.4,-30.6,19.1,192.5,-74.3,-3.0,3.0,1019.2,44.53,23.02454,72.53761999999999,,,,,127.74193000000001,,0 / 0,19,2019-01-03 10:18:10:967,0.19
1,0.9309999999999999,9.45,2.0380000000000003,0.248,9.482000000000001,2.49,0.642,0.129,-0.833,-0.133,0.021,0.10099999999999999,49.0,7.7,-31.1,19.4,192.1,-74.5,-3.6,3.0,1019.2,44.53,23.02454,72.53761999999999,,,,,127.74193000000001,,0 / 0,120,2019-01-03 10:18:11:068,0.19
2,0.541,9.572000000000001,2.485,0.387,9.469,2.521,0.138,0.10800000000000001,-0.028999999999999998,-0.05,-0.135,0.079,49.0,7.6,-31.0,19.5,189.8,-74.9,-8.7,3.0,1019.2,44.53,23.02454,72.53761999999999,,,,,127.74193000000001,,0 / 0,219,2019-01-03 10:18:11:167,0.19
3,0.196,9.722999999999999,1.9469999999999998,0.419,9.486,2.452,-0.115,-0.026000000000000002,-0.537,0.028999999999999998,0.034,-0.045,50.0,7.0,-31.8,19.3,187.1,-75.1,-9.8,3.0,1019.2,47.56,23.02454,72.53761999999999,,,,,127.74193000000001,,0 / 0,319,2019-01-03 10:18:11:267,0.19
4,0.426,9.603,2.03,0.41600000000000004,9.514,2.339,0.19399999999999998,-0.067,-0.07,-0.036000000000000004,0.053,0.034,50.0,7.7,-31.4,19.4,189.7,-75.8,-9.9,3.0,1019.2,47.56,23.02454,72.53761999999999,,,,,127.74193000000001,,0 / 0,419,2019-01-03 10:18:11:367,0.19
5,0.503,9.738,1.781,0.41100000000000003,9.538,2.241,0.099,0.20199999999999999,-0.46,0.011000000000000001,0.063,0.008,49.0,7.2,-32.0,18.2,188.8,-76.1,-10.1,3.0,1019.2,47.56,23.02454,72.53761999999999,,,,,127.74193000000001,,0 / 0,521,2019-01-03 10:18:11:469,0.19
6,0.536,9.9,2.339,0.44799999999999995,9.562000000000001,2.131,0.172,0.315,-0.091,0.085,0.151,-0.05,49.0,6.7,-31.4,18.6,186.3,-77.2,-11.9,3.0,1019.2,47.56,23.02454,72.53761999999999,,,,,127.74193000000001,,0 / 0,620,2019-01-03 10:18:11:568,0.19
7,0.254,10.113,3.7689999999999997,0.418,9.576,2.072,-0.092,0.5489999999999999,1.7630000000000001,0.018000000000000002,0.175,-0.066,49.0,7.2,-31.1,18.5,188.5,-77.6,-11.8,3.0,1019.2,49.24,23.02454,72.53761999999999,,,,,127.74193000000001,,0 / 0,719,2019-01-03 10:18:11:667,0.19
8,0.366,9.702,2.449,0.452,9.583,2.035,0.049,-0.106,0.79,-0.038,0.174,0.23600000000000002,49.0,6.8,-31.3,19.7,185.3,-77.7,-12.5,3.0,1019.2,49.24,23.02454,72.53761999999999,,,,,127.74193000000001,,0 / 0,819,2019-01-03 10:18:11:767,0.19
9,-0.040999999999999995,8.993,2.911,0.536,9.579,2.031,-0.631,-0.562,0.823,0.177,0.252,0.193,48.0,5.8,-30.1,20.4,181.9,-77.6,-14.3,3.0,1019.2,49.24,23.02454,72.53761999999999,,,,,127.74193000000001,,0 / 0,919,2019-01-03 10:18:11:867,0.19
10,-0.223,9.541,3.1010000000000004,0.595,9.499,2.363,-0.444,0.09,0.8290000000000001,-0.297,0.10800000000000001,0.142,44.0,4.4,-31.4,20.3,177.5,-76.2,-14.7,3.0,1019.2,48.6,23.02454,72.53761999999999,,,,,127.74193000000001,,0 / 0,1019,2019-01-03 10:18:11:967,0.19
11,0.043,9.773,2.722,0.485,9.457,2.548,-0.624,0.555,-0.33299999999999996,0.22,0.034,-0.207,44.0,4.9,-32.0,18.8,179.3,-74.5,-12.3,3.0,1019.2,48.6,23.02454,72.53761999999999,,,,,127.74193000000001,,0 / 0,1119,2019-01-03 10:18:12:067,0.19
12,0.713,8.937999999999999,2.708,0.478,9.466000000000001,2.5180000000000002,0.18899999999999997,-0.46,0.09300000000000001,0.004,-0.005,0.055,42.0,3.8,-31.7,19.3,180.8,-74.8,-10.8,3.0,1019.2,48.6,23.02454,72.53761999999999,,,,,127.74193000000001,,0 / 0,1219,2019-01-03 10:18:12:167,0.19
13,0.67,9.06,3.498,0.49200000000000005,9.439,2.614,0.156,-0.37799999999999995,0.836,-0.105,-0.006999999999999999,-0.002,42.0,3.7,-31.6,19.2,180.3,-74.7,-10.9,3.0,1019.2,55.58,23.02454,72.53761999999999,,,,,127.74193000000001,,0 / 0,1320,2019-01-03 10:18:12:268,0.19
14,0.405,9.529,2.488,0.465,9.426,2.665,-0.073,0.10800000000000001,0.024,-0.092,-0.157,-0.054000000000000006,44.0,4.4,-31.3,18.5,181.8,-74.0,-9.9,3.0,1019.2,55.58,23.02454,72.53761999999999,,,,,127.74193000000001,,0 / 0,1420,2019-01-03 10:18:12:368,0.19
15,0.158,9.613,2.7319999999999998,0.516,9.392999999999999,2.772,-0.418,0.247,-0.018000000000000002,-0.11800000000000001,-0.299,-0.021,44.0,5.9,-31.5,17.8,183.7,-73.5,-10.3,3.0,1019.2,55.58,23.02454,72.53761999999999,,,,,127.74193000000001,,0 / 0,1520,2019-01-03 10:18:12:468,0.19
16,-0.019,9.644,3.488,0.552,9.357000000000001,2.8819999999999997,-0.674,0.335,0.731,-0.099,-0.066,-0.10300000000000001,45.0,6.5,-32.6,17.6,185.2,-72.6,-10.8,3.0,1019.2,58.91,23.02454,72.53761999999999,,,,,127.74193000000001,,0 / 0,1620,2019-01-03 10:18:12:568,0.19
17,0.41700000000000004,9.541,3.8310000000000004,0.66,9.306000000000001,3.0239999999999996,-0.396,0.195,0.688,-0.22899999999999998,-0.302,-0.023,45.0,6.2,-32.9,17.5,184.7,-72.1,-12.4,3.0,1019.2,58.91,23.02454,72.53761999999999,,,,,127.74193000000001,,0 / 0,1719,2019-01-03 10:18:12:667,0.19
18,2.653,6.896,5.595,0.8370000000000001,9.175,3.359,1.4709999999999999,-2.127,1.901,-0.28800000000000003,-0.449,-0.026000000000000002,46.0,6.4,-33.5,15.8,184.0,-69.3,-14.0,3.0,1019.2,58.91,23.02454,72.53761999999999,,,,,127.74193000000001,,0 / 0,1819,2019-01-03 10:18:12:767,0.19
19,0.555,10.056000000000001,3.532,0.8490000000000001,9.152999999999999,3.4160000000000004,-0.162,0.752,0.585,-0.098,-0.114,0.069,49.0,7.6,-33.0,15.9,188.7,-68.9,-13.7,3.0,1019.2,52.13,23.02454,72.53761999999999,,,,,127.74193000000001,,0 / 0,1919,2019-01-03 10:18:12:867,0.19
20,0.6609999999999999,9.575,3.7539999999999996,0.897,9.125,3.478,-0.026000000000000002,0.226,0.359,-0.063,-0.048,0.081,49.0,7.7,-33.2,15.2,188.3,-68.5,-14.5,3.0,1019.2,52.13,23.02454,72.53761999999999,,,,,127.74193000000001,,0 / 0,2019,2019-01-03 10:18:12:967,0.19
21,0.735,9.369,2.95,0.782,9.189,3.335,-0.228,0.39899999999999997,-0.47,0.237,0.201,-0.07400000000000001,47.0,8.8,-32.8,15.3,188.8,-69.1,-13.8,3.0,1019.2,52.13,23.02454,72.53761999999999,,,,,127.74193000000001,,0 / 0,2119,2019-01-03 10:18:13:067,0.19
22,0.9390000000000001,9.107999999999999,2.861,0.8240000000000001,9.207,3.273,0.16,-0.138,-0.466,0.099,0.124,0.17300000000000001,47.0,8.0,-32.8,15.3,189.3,-69.8,-13.1,3.0,1019.2,52.13,23.02454,72.53761999999999,,,,,127.74193000000001,,0 / 0,2219,2019-01-03 10:18:13:167,0.19
23,0.56,9.732999999999999,1.9180000000000001,0.797,9.262,3.122,-0.237,0.47100000000000003,-1.204,0.358,0.33399999999999996,0.121,57.0,7.5,-33.0,16.1,187.9,-70.2,-14.1,3.0,1019.2,56.89,23.02454,72.53761999999999,,,,,127.74193000000001,,0 / 0,2319,2019-01-03 10:18:13:267,0.19
24,-0.251,9.192,4.738,0.769,9.211,3.2769999999999997,-1.1640000000000001,0.266,1.153,0.151,0.247,-0.037000000000000005,57.0,6.3,-32.6,16.1,183.1,-70.8,-14.6,3.0,1019.2,56.89,23.02454,72.53761999999999,,,,,127.74193000000001,,0 / 0,2419,2019-01-03 10:18:13:367,0.19
25,1.305,8.856,2.38,0.715,9.245,3.1910000000000003,0.12300000000000001,-0.061,-0.473,0.08900000000000001,0.10300000000000001,-0.013999999999999999,69.0,5.7,-32.9,17.0,184.6,-69.9,-13.2,3.0,1019.2,56.89,23.02454,72.53761999999999,,,,,127.74193000000001,,0 / 0,2520,2019-01-03 10:18:13:468,0.19
0,0.067,9.721,1.496,0.358,9.391,2.801,-0.252,0.31,-1.28,0.147,-0.077,-0.087,48.0,-4.0,-11.6,-41.0,357.6,-72.8,-7.7,3.0,1019.2,37.98,23.02454,72.53761999999999,,,,,127.74193000000001,,0 / 0,13,2019-01-03 10:18:18:686,0.19
1,0.57,9.656,1.949,0.35600000000000004,9.42,2.7039999999999997,0.204,0.16,-0.6709999999999999,0.07,-0.031,-0.027999999999999997,48.0,-4.3,-11.3,-43.1,357.9,-73.5,-7.3,3.0,1019.2,37.98,23.02454,72.53761999999999,,,,,127.74193000000001,,0 / 0,114,2019-01-03 10:18:18:787,0.19
2,0.797,9.419,2.4419999999999997,0.42100000000000004,9.484,2.46,0.354,0.025,-0.077,0.109,-0.015,-0.075,47.0,-4.4,-12.4,-43.1,355.3,-75.0,-9.5,3.0,1019.2,37.98,23.02454,72.53761999999999,,,,,127.74193000000001,,0 / 0,214,2019-01-03 10:18:18:887,0.19
3,0.5720000000000001,10.113,3.9410000000000003,0.446,9.484,2.456,-0.14300000000000002,0.551,1.643,-0.10099999999999999,-0.022000000000000002,-0.064,49.0,-5.3,-12.2,-41.4,354.9,-75.4,-9.9,3.0,1019.2,50.84,23.02454,72.53761999999999,,,,,127.74193000000001,,0 / 0,313,2019-01-03 10:18:18:986,0.19
4,0.345,9.677999999999999,3.218,0.491,9.472999999999999,2.488,-0.152,0.207,0.721,0.022000000000000002,-0.042,0.102,49.0,-4.9,-12.1,-42.2,355.6,-75.2,-10.7,3.0,1019.2,50.84,23.02454,72.53761999999999,,,,,127.74193000000001,,0 / 0,413,2019-01-03 10:18:19:086,0.19
5,0.163,9.048,2.873,0.40399999999999997,9.412,2.7230000000000003,-0.40299999999999997,-0.364,0.33299999999999996,0.16899999999999998,-0.018000000000000002,0.122,51.0,-5.4,-12.4,-41.0,356.7,-74.8,-11.3,3.0,1019.2,50.84,23.02454,72.53761999999999,,,,,127.74193000000001,,0 / 0,514,2019-01-03 10:18:19:187,0.19
6,0.515,8.95,3.0239999999999996,0.381,9.382,2.8280000000000003,0.163,-0.301,0.203,-0.081,-0.008,-0.051,51.0,-5.5,-11.4,-42.1,0.1,-73.3,-8.0,3.0,1019.2,48.17,23.02454,72.53761999999999,,,,,127.74193000000001,,0 / 0,613,2019-01-03 10:18:19:286,0.19
7,0.141,9.56,3.153,0.309,9.346,2.9530000000000003,-0.16,0.20199999999999999,0.325,0.19699999999999998,-0.217,-0.268,55.0,-4.4,-11.9,-43.4,359.2,-72.7,-7.3,3.0,1019.2,48.17,23.02454,72.53761999999999,,,,,127.74193000000001,,0 / 0,714,2019-01-03 10:18:19:387,0.19
8,1.111,9.213,3.002,0.317,9.378,2.85,0.402,0.10800000000000001,0.337,0.08,-0.5720000000000001,0.01,55.0,-5.6,-12.8,-43.3,1.8,-73.0,-6.3,3.0,1019.2,48.17,23.02454,72.53761999999999,,,,,127.74193000000001,,0 / 0,813,2019-01-03 10:18:19:486,0.19
9,1.743,8.952,2.935,0.545,9.414,2.6910000000000003,1.2770000000000001,-0.546,0.376,0.27,-1.111,-0.318,65.0,-10.5,-12.2,-41.2,4.1,-73.3,-8.9,3.0,1019.2,64.16,23.02454,72.53761999999999,,,,,127.74193000000001,,0 / 0,913,2019-01-03 10:18:19:586,0.19
10,0.73,10.033999999999999,2.969,0.613,9.476,2.448,0.11699999999999999,0.5579999999999999,0.521,0.184,-1.798,-0.307,65.0,-13.3,-13.3,-40.8,4.0,-75.1,-14.1,3.0,1019.2,64.16,23.02454,72.53761999999999,,,,,127.74193000000001,,0 / 0,1014,2019-01-03 10:18:19:687,0.19
11,1.149,9.402000000000001,3.0980000000000003,0.828,9.494,2.312,0.395,0.078,0.36700000000000005,-0.20800000000000002,-2.246,-0.337,67.0,-20.9,-15.2,-37.6,6.1,-75.6,-18.2,3.0,1019.2,64.16,23.02454,72.53761999999999,,,,,127.74193000000001,,0 / 0,1114,2019-01-03 10:18:19:787,0.19
12,0.35700000000000004,9.472000000000001,3.2560000000000002,0.917,9.474,2.36,-0.46399999999999997,0.067,0.841,-0.171,-2.154,-0.384,112.0,-26.2,-14.7,-30.8,21.4,-75.0,-21.2,3.0,1019.3,59.09,23.02454,72.53761999999999,,,,,127.74193000000001,,0 / 0,1214,2019-01-03 10:18:19:887,0.19
13,2.164,8.804,3.532,1.348,9.353,2.622,0.8170000000000001,-0.5489999999999999,0.91,-0.672,-2.49,-0.17800000000000002,112.0,-32.5,-15.4,-24.1,28.6,-74.4,-23.9,3.0,1019.3,59.09,23.02454,72.53761999999999,,,,,127.74193000000001,,0 / 0,1314,2019-01-03 10:18:19:987,0.19
14,1.669,9.146,3.074,1.6159999999999999,9.269,2.766,-0.006999999999999999,-0.5820000000000001,1.256,-0.135,-2.175,-0.344,67.0,-34.6,-15.1,-18.1,38.6,-70.9,-30.3,3.0,1019.3,59.09,23.02454,72.53761999999999,,,,,127.74193000000001,,0 / 0,1414,2019-01-03 10:18:20:087,0.19
15,0.685,8.758,3.699,1.855,9.193999999999999,2.862,-1.025,-0.5489999999999999,0.9159999999999999,-0.325,-1.776,-0.514,67.0,-35.9,-16.1,-9.7,48.3,-70.2,-32.8,3.0,1019.3,53.86,23.02454,72.53761999999999,,,,,127.74193000000001,,0 / 0,1514,2019-01-03 10:18:20:187,0.19
16,1.262,8.945,3.8,1.805,9.176,2.951,-0.251,0.015,0.044000000000000004,-0.47,-1.4240000000000002,-0.34299999999999997,43.0,-35.3,-17.2,-5.8,54.5,-69.6,-32.6,3.0,1019.3,53.86,23.02454,72.53761999999999,,,,,127.74193000000001,,0 / 0,1614,2019-01-03 10:18:20:287,0.19
17,0.163,10.317,2.725,1.449,9.266,2.865,-1.131,0.634,0.381,-0.159,-0.8540000000000001,-0.268,43.0,-33.8,-19.7,-1.3,73.0,-70.6,-27.6,3.0,1019.3,53.86,23.02454,72.53761999999999,,,,,127.74193000000001,,0 / 0,1713,2019-01-03 10:18:20:386,0.19
18,-0.41200000000000003,9.927,3.3739999999999997,1.286,9.302999999999999,2.824,-1.6980000000000002,0.624,0.55,-0.037000000000000005,-0.531,-0.205,43.0,-32.8,-21.2,0.5,76.5,-71.0,-26.2,3.0,1019.3,53.86,23.02454,72.53761999999999,,,,,127.74193000000001,,0 / 0,1813,2019-01-03 10:18:20:486,0.19
0,0.493,9.326,2.9619999999999997,0.473,9.16,3.47,0.034,0.182,-0.498,-0.063,0.096,-0.037000000000000005,49.0,2.4,-34.6,15.0,181.7,-68.0,-8.4,3.0,1019.3,38.47,23.02454,72.53761999999999,,,,,127.74193000000001,,0 / 0,9,2019-01-03 10:18:23:948,0.19
1,0.575,9.603,3.6439999999999997,0.43700000000000006,9.204,3.3569999999999998,0.035,0.479,-0.075,-0.085,0.07200000000000001,0.005,48.0,3.5,-34.9,14.7,182.2,-69.6,-7.4,3.0,1019.3,47.81,23.02454,72.53761999999999,,,,,127.74193000000001,,0 / 0,108,2019-01-03 10:18:24:047,0.19
2,0.28300000000000003,10.03,3.563,0.35700000000000004,9.243,3.2560000000000002,-0.07400000000000001,0.7859999999999999,0.306,0.083,0.217,-0.026000000000000002,48.0,3.2,-34.6,15.1,182.7,-70.2,-6.7,3.0,1019.3,47.81,23.02454,72.53761999999999,,,,,127.74193000000001,,0 / 0,208,2019-01-03 10:18:24:147,0.19
3,0.426,9.338,4.388999999999999,0.342,9.247,3.248,-0.22,0.006999999999999999,1.4,0.1,0.113,0.023,48.0,2.9,-33.7,15.5,183.1,-70.5,-6.0,3.0,1019.3,47.81,23.02454,72.53761999999999,,,,,127.74193000000001,,0 / 0,309,2019-01-03 10:18:24:248,0.19
4,-0.38799999999999996,8.725,3.491,0.26899999999999996,9.269,3.1910000000000003,-0.7170000000000001,-0.5710000000000001,0.525,0.446,-0.048,0.04,48.0,1.9,-33.7,17.0,180.8,-70.5,-5.7,3.0,1019.3,47.81,23.02454,72.53761999999999,,,,,127.74193000000001,,0 / 0,409,2019-01-03 10:18:24:348,0.19
5,-0.139,8.746,3.7969999999999997,0.29100000000000004,9.277000000000001,3.165,-0.33399999999999996,-0.598,0.469,-0.040999999999999995,0.065,0.092,48.0,2.2,-33.4,17.2,180.9,-71.1,-5.3,3.0,1019.3,49.71,23.02454,72.53761999999999,,,,,127.74193000000001,,0 / 0,510,2019-01-03 10:18:24:449,0.19
6,-0.113,9.117,3.505,0.183,9.248,3.2569999999999997,-0.24,-0.136,0.155,0.13,-0.031,-0.003,48.0,2.8,-33.6,16.6,186.1,-70.9,-4.9,3.0,1019.3,49.71,23.02454,72.53761999999999,,,,,127.74193000000001,,0 / 0,609,2019-01-03 10:18:24:548,0.19
7,0.20600000000000002,9.201,3.295,0.18600000000000003,9.257,3.2310000000000003,-0.083,0.11599999999999999,-0.032,0.001,-0.22,0.115,45.0,2.1,-33.4,17.2,182.4,-70.7,-2.8,3.0,1019.3,49.71,23.02454,72.53761999999999,,,,,127.74193000000001,,0 / 0,709,2019-01-03 10:18:24:648,0.19
8,0.7759999999999999,9.163,3.1919999999999997,0.264,9.272,3.1830000000000003,0.5479999999999999,-0.14,-0.009000000000000001,0.196,-0.27899999999999997,-0.2,45.0,2.8,-33.2,17.4,183.1,-70.8,-4.7,3.0,1019.3,56.98,23.02454,72.53761999999999,,,,,127.74193000000001,,0 / 0,809,2019-01-03 10:18:24:748,0.19
9,0.045,9.649,3.1919999999999997,0.20199999999999999,9.345,2.967,-0.254,0.278,0.21,0.185,-0.45299999999999996,-0.187,42.0,4.0,-32.8,18.2,185.7,-72.0,-4.0,3.0,1019.3,56.98,23.02454,72.53761999999999,,,,,127.74193000000001,,0 / 0,909,2019-01-03 10:18:24:848,0.19
10,-0.18,9.541,3.4189999999999996,0.228,9.363999999999999,2.903,-0.386,-0.20600000000000002,1.43,-0.08800000000000001,-0.431,-0.027999999999999997,41.0,5.5,-32.4,18.7,187.6,-72.9,-4.3,3.0,1019.3,56.98,23.02454,72.53761999999999,,,,,127.74193000000001,,0 / 0,1008,2019-01-03 10:18:24:947,0.19
11,0.491,9.412,2.509,0.273,9.402000000000001,2.775,0.18,-0.033,-0.158,-0.047,-0.225,-0.053,41.0,6.7,-31.4,18.2,191.1,-73.5,-5.6,3.0,1019.2,59.29,23.02454,72.53761999999999,,,,,127.74193000000001,,0 / 0,1108,2019-01-03 10:18:25:047,0.19
12,1.901,8.502,2.878,0.317,9.38,2.842,0.8290000000000001,-0.929,0.373,-0.008,-0.40399999999999997,-0.01,40.0,7.9,-31.9,18.5,190.7,-73.1,-5.9,3.0,1019.3,59.29,23.02454,72.53761999999999,,,,,127.74193000000001,,0 / 0,1208,2019-01-03 10:18:25:147,0.19
13,0.22699999999999998,9.579,3.508,0.307,9.318999999999999,3.0380000000000003,-0.721,0.337,0.8290000000000001,-0.14800000000000002,0.048,-0.221,40.0,8.6,-32.3,17.1,194.6,-72.2,-6.6,3.0,1019.3,59.29,23.02454,72.53761999999999,,,,,127.74193000000001,,0 / 0,1309,2019-01-03 10:18:25:248,0.19
14,-0.139,9.505,3.1289999999999996,0.259,9.305,3.0860000000000003,-0.39799999999999996,0.2,0.044000000000000004,0.16899999999999998,-0.002,-0.138,42.0,8.5,-32.0,17.5,195.1,-71.5,-5.6,3.0,1019.3,53.67,23.02454,72.53761999999999,,,,,127.74193000000001,,0 / 0,1408,2019-01-03 10:18:25:347,0.19
15,-0.239,9.414,2.892,0.136,9.335,3.002,-0.366,0.075,-0.076,-0.11599999999999999,0.042,-0.024,42.0,9.4,-31.3,18.4,196.3,-72.1,-3.4,3.0,1019.2,53.67,23.02454,72.53761999999999,,,,,127.74193000000001,,0 / 0,1512,2019-01-03 10:18:25:451,0.19
16,0.23199999999999998,8.823,3.141,0.114,9.323,3.0380000000000003,0.11900000000000001,-0.501,0.10300000000000001,-0.125,0.147,0.132,40.0,9.5,-31.9,16.1,199.8,-72.1,-2.2,3.0,1019.2,53.67,23.02454,72.53761999999999,,,,,127.74193000000001,,0 / 0,1609,2019-01-03 10:18:25:548,0.19
17,0.52,9.783,3.182,0.07200000000000001,9.314,3.068,0.764,1.276,-0.33899999999999997,0.155,0.39,-0.062,40.0,8.5,-32.9,17.4,195.3,-71.6,-2.2,3.0,1019.2,64.04,23.02454,72.53761999999999,,,,,127.74193000000001,,0 / 0,1713,2019-01-03 10:18:25:652,0.19
18,-1.235,8.964,5.2989999999999995,0.08800000000000001,9.218,3.345,-1.35,-0.32299999999999995,2.161,-0.111,0.249,0.064,38.0,6.9,-32.2,16.6,195.6,-71.8,-1.3,3.0,1019.2,64.04,23.02454,72.53761999999999,,,,,127.74193000000001,,0 / 0,1809,2019-01-03 10:18:25:748,0.19
19,0.625,9.378,2.765,0.040999999999999995,9.254,3.245,0.662,-0.055,-1.044,-0.081,0.27699999999999997,0.16899999999999998,35.0,5.9,-32.4,17.5,192.4,-70.6,-0.5,3.0,1019.2,64.04,23.02454,72.53761999999999,,,,,127.74193000000001,,0 / 0,1909,2019-01-03 10:18:25:848,0.19
20,0.7020000000000001,8.722000000000001,3.824,0.365,9.164,3.4730000000000003,1.0090000000000001,-1.0590000000000002,-0.17600000000000002,-0.361,-0.149,0.53,35.0,5.5,-32.9,14.6,192.3,-70.5,-1.0,3.0,1019.2,52.6,23.02454,72.53761999999999,,,,,127.74193000000001,,0 / 0,2009,2019-01-03 10:18:25:948,0.19
0,-0.091,8.908999999999999,3.642,0.22699999999999998,9.345,2.965,-0.306,-0.47600000000000003,0.215,-0.21899999999999997,0.109,0.054000000000000006,54.0,-4.1,-9.8,-41.2,1.4,-72.3,-4.4,3.0,1019.3,49.58,23.02454,72.53761999999999,,,,,127.74193000000001,,0 / 0,8,2019-01-03 10:18:29:885,0.19
1,-0.23199999999999998,9.517000000000001,3.1460000000000004,0.13,9.298,3.113,-0.391,0.145,0.303,0.047,-0.046,-0.096,65.0,-4.6,-9.7,-41.9,2.4,-71.5,-3.2,3.0,1019.3,49.58,23.02454,72.53761999999999,,,,,127.74193000000001,,0 / 0,107,2019-01-03 10:18:29:984,0.19
2,0.247,9.05,3.362,0.133,9.276,3.179,0.07,-0.195,0.252,-0.039,-0.168,0.106,65.0,-4.7,-9.5,-43.0,4.8,-71.1,-2.4,3.0,1019.2,49.58,23.02454,72.53761999999999,,,,,127.74193000000001,,0 / 0,207,2019-01-03 10:18:30:084,0.19
3,0.134,9.381,3.1439999999999997,0.24,9.267999999999999,3.197,-0.055999999999999994,-0.1,-0.122,0.006,-0.366,-0.073,103.0,-6.3,-8.6,-42.5,3.4,-70.9,-3.7,3.0,1019.2,51.32,23.02454,72.53761999999999,,,,,127.74193000000001,,0 / 0,307,2019-01-03 10:18:30:184,0.19
4,0.23199999999999998,9.472000000000001,3.6439999999999997,0.258,9.299,3.1039999999999996,-0.040999999999999995,0.24,0.3,0.114,-0.364,-0.076,103.0,-7.4,-9.5,-43.1,5.1,-71.5,-4.7,3.0,1019.2,51.32,23.02454,72.53761999999999,,,,,127.74193000000001,,0 / 0,407,2019-01-03 10:18:30:284,0.19
5,0.215,9.146,3.9,0.354,9.312000000000001,3.055,0.242,-0.151,0.086,-0.017,-0.7090000000000001,-0.22899999999999998,139.0,-9.4,-9.4,-42.5,4.9,-71.7,-6.2,3.0,1019.2,51.32,23.02454,72.53761999999999,,,,,127.74193000000001,,0 / 0,508,2019-01-03 10:18:30:385,0.19
6,1.3459999999999999,8.572000000000001,3.3810000000000002,0.36,9.331,2.9939999999999998,0.5429999999999999,-0.051,-0.047,-0.08,-0.7559999999999999,-0.152,139.0,-11.6,-10.1,-42.9,9.9,-72.1,-6.8,3.0,1019.3,58.78,23.02454,72.53761999999999,,,,,127.74193000000001,,0 / 0,607,2019-01-03 10:18:30:484,0.19
7,0.551,8.911,3.795,0.371,9.258,3.2110000000000003,0.249,-0.256,0.768,-0.081,-0.49700000000000005,-0.301,67.0,-14.0,-9.7,-42.0,10.9,-71.4,-7.3,3.0,1019.3,58.78,23.02454,72.53761999999999,,,,,127.74193000000001,,0 / 0,707,2019-01-03 10:18:30:584,0.19
8,0.175,9.539,3.51,0.298,9.259,3.216,-0.156,0.418,0.217,-0.11900000000000001,-0.317,-0.07,67.0,-15.7,-9.5,-41.5,17.6,-70.8,-5.3,3.0,1019.2,58.78,23.02454,72.53761999999999,,,,,127.74193000000001,,0 / 0,807,2019-01-03 10:18:30:684,0.19
9,0.371,9.151,2.998,0.295,9.245,3.2569999999999997,-0.019,-0.207,-0.006,0.07200000000000001,-0.08800000000000001,-0.044000000000000004,83.0,-17.6,-9.7,-43.3,18.3,-70.4,-5.4,3.0,1019.3,54.62,23.02454,72.53761999999999,,,,,127.74193000000001,,0 / 0,907,2019-01-03 10:18:30:784,0.19
10,-0.385,10.614,3.242,0.128,9.279,3.1710000000000003,-0.852,1.656,-1.694,0.863,-0.09699999999999999,-0.5489999999999999,73.0,-17.2,-9.6,-42.4,20.2,-70.3,-4.4,3.0,1019.3,54.62,23.02454,72.53761999999999,,,,,127.74193000000001,,0 / 0,1008,2019-01-03 10:18:30:885,0.19
11,-0.266,9.235,2.1,0.235,9.331,3.0069999999999997,0.163,-0.48,0.19399999999999998,0.275,0.205,0.15,73.0,-17.5,-11.6,-43.2,24.1,-72.0,-1.6,3.0,1019.3,54.62,23.02454,72.53761999999999,,,,,127.74193000000001,,0 / 0,1107,2019-01-03 10:18:30:984,0.19
12,0.79,8.897,1.537,0.21,9.349,2.9539999999999997,0.58,-0.452,-1.4169999999999998,-0.331,0.23199999999999998,-0.031,56.0,-15.5,-12.7,-43.3,17.4,-72.4,-4.1,3.0,1019.3,59.23,23.02454,72.53761999999999,,,,,127.74193000000001,,0 / 0,1207,2019-01-03 10:18:31:084,0.19
13,-1.403,8.595,3.572,-0.015,9.435,2.674,-1.642,-0.342,0.489,0.496,1.979,0.363,56.0,-12.4,-12.2,-43.1,19.4,-73.4,-0.9,3.0,1019.2,59.23,23.02454,72.53761999999999,,,,,127.74193000000001,,0 / 0,1308,2019-01-03 10:18:31:185,0.19
0,1.128,9.788,1.389,0.434,9.61,1.9080000000000001,0.7509999999999999,0.075,-0.519,0.11,0.145,0.076,50.0,3.4,-31.3,18.2,178.0,-78.3,-12.1,3.0,1019.2,50.18,23.02454,72.53761999999999,,,,,127.74193000000001,,0 / 0,15,2019-01-03 10:18:38:498,0.19
1,0.872,10.125,1.305,0.447,9.642000000000001,1.733,0.355,0.5529999999999999,-0.349,0.081,0.057999999999999996,-0.02,50.0,2.0,-30.8,21.1,172.8,-79.5,-14.5,3.0,1019.2,50.18,23.02454,72.53761999999999,,,,,127.74193000000001,,0 / 0,115,2019-01-03 10:18:38:598,0.19
2,0.33,10.152000000000001,1.525,0.47,9.666,1.584,-0.11599999999999999,0.935,-0.08800000000000001,0.033,0.075,0.002,48.0,1.6,-29.8,21.2,170.7,-80.0,-16.6,3.0,1019.2,50.18,23.02454,72.53761999999999,,,,,127.74193000000001,,0 / 0,214,2019-01-03 10:18:38:697,0.19
3,0.028999999999999998,10.657,2.5789999999999997,0.434,9.662,1.624,-0.35,0.9670000000000001,0.8809999999999999,0.134,0.016,0.057,46.0,2.5,-30.7,22.1,170.8,-80.4,-16.8,3.0,1019.2,51.33,23.02454,72.53761999999999,,,,,127.74193000000001,,0 / 0,315,2019-01-03 10:18:38:798,0.19
4,0.23,9.302,1.726,0.516,9.652000000000001,1.6580000000000001,-0.154,-0.324,-0.022000000000000002,0.139,0.006,0.115,46.0,1.9,-29.6,21.8,171.2,-79.8,-15.9,3.0,1019.2,51.33,23.02454,72.53761999999999,,,,,127.74193000000001,,0 / 0,415,2019-01-03 10:18:38:898,0.19
5,-0.287,9.017000000000001,1.695,0.518,9.657,1.624,-0.741,-0.655,0.15,0.055,0.004,0.012,45.0,1.3,-30.3,22.7,167.8,-79.8,-17.5,3.0,1019.2,51.33,23.02454,72.53761999999999,,,,,127.74193000000001,,0 / 0,514,2019-01-03 10:18:38:997,0.19
6,-0.14800000000000002,9.533999999999999,2.1959999999999997,0.261,9.632,1.8219999999999998,-0.6509999999999999,0.258,0.414,-0.081,0.13,-0.027000000000000003,45.0,1.1,-30.1,22.5,171.4,-79.7,-12.9,3.0,1019.2,43.14,23.02454,72.53761999999999,,,,,127.74193000000001,,0 / 0,614,2019-01-03 10:18:39:097,0.19
7,0.433,9.718,2.289,0.174,9.602,1.984,0.327,0.16,0.23399999999999999,-0.003,-0.016,-0.032,41.0,0.5,-30.0,23.1,178.0,-78.3,-5.0,3.0,1019.2,43.14,23.02454,72.53761999999999,,,,,127.74193000000001,,0 / 0,714,2019-01-03 10:18:39:197,0.19
8,0.256,9.493,2.102,0.188,9.595,2.017,0.024,-0.139,0.018000000000000002,0.02,-0.23399999999999999,-0.016,41.0,0.6,-29.3,22.0,176.3,-78.2,-4.8,3.0,1019.2,43.14,23.02454,72.53761999999999,,,,,127.74193000000001,,0 / 0,814,2019-01-03 10:18:39:297,0.19
9,-0.065,9.505,1.439,0.174,9.61,1.945,-0.251,-0.124,-0.46399999999999997,0.05,-0.266,0.040999999999999995,40.0,1.7,-29.2,22.8,179.9,-78.5,-5.1,3.0,1019.3,59.24,23.02454,72.53761999999999,,,,,127.74193000000001,,0 / 0,914,2019-01-03 10:18:39:397,0.19
10,0.10099999999999999,9.747,1.528,0.225,9.631,1.835,-0.064,0.09699999999999999,-0.402,0.10300000000000001,-0.26899999999999996,0.004,40.0,2.6,-29.2,22.7,181.1,-78.8,-6.1,3.0,1019.3,59.24,23.02454,72.53761999999999,,,,,127.74193000000001,,0 / 0,1014,2019-01-03 10:18:39:497,0.19
11,0.6779999999999999,10.006,0.735,0.258,9.646,1.75,0.507,0.408,-0.86,0.094,-0.39399999999999996,-0.083,39.0,3.5,-29.3,23.2,181.2,-79.6,-8.4,3.0,1019.3,59.24,23.02454,72.53761999999999,,,,,127.74193000000001,,0 / 0,1114,2019-01-03 10:18:39:597,0.19
12,0.73,9.732999999999999,1.671,0.293,9.647,1.736,0.406,0.21899999999999997,0.35,-0.026000000000000002,-0.536,0.013999999999999999,38.0,4.8,-29.1,21.5,181.9,-79.7,-8.1,3.0,1019.2,58.77,23.02454,72.53761999999999,,,,,127.74193000000001,,0 / 0,1216,2019-01-03 10:18:39:699,0.19
13,0.759,7.922999999999999,7.111000000000001,0.52,9.532,2.245,1.261,-1.9469999999999998,2.951,-0.597,-0.617,0.13699999999999998,38.0,6.1,-29.3,21.4,183.1,-77.5,-12.1,3.0,1019.2,58.77,23.02454,72.53761999999999,,,,,127.74193000000001,,0 / 0,1314,2019-01-03 10:18:39:797,0.19
14,-0.795,9.656,-0.043,0.364,9.561,2.1519999999999997,-1.214,0.285,-2.155,-0.02,-0.511,-0.466,39.0,8.7,-29.0,21.4,184.4,-76.3,-12.7,3.0,1019.2,58.77,23.02454,72.53761999999999,,,,,127.74193000000001,,0 / 0,1414,2019-01-03 10:18:39:897,0.19
15,0.034,10.267000000000001,3.0380000000000003,0.40299999999999997,9.499,2.403,-0.475,0.389,1.222,-0.153,-0.013999999999999999,0.337,39.0,10.5,-29.1,19.9,195.0,-75.6,-9.5,3.0,1019.2,49.55,23.02454,72.53761999999999,,,,,127.74193000000001,,0 / 0,1515,2019-01-03 10:18:39:998,0.19
16,-0.256,9.575,2.174,0.5479999999999999,9.429,2.64,-1.1540000000000001,0.314,-0.852,-0.466,-0.261,0.098,35.0,10.7,-30.2,18.4,193.6,-74.7,-12.0,3.0,1019.2,49.55,23.02454,72.53761999999999,,,,,127.74193000000001,,0 / 0,1614,2019-01-03 10:18:40:097,0.19
17,0.8809999999999999,9.704,2.895,0.639,9.387,2.764,0.223,0.39399999999999996,0.113,-0.12,-0.45299999999999996,-0.158,35.0,9.9,-30.6,18.2,191.6,-73.4,-12.9,3.0,1019.2,49.55,23.02454,72.53761999999999,,,,,127.74193000000001,,0 / 0,1715,2019-01-03 10:18:40:198,0.19
18,0.56,10.104,2.363,0.703,9.397,2.715,-0.273,0.855,-1.6059999999999999,-0.037000000000000005,0.057999999999999996,0.16399999999999998,32.0,11.5,-30.8,17.0,194.0,-73.1,-13.3,3.0,1019.2,49.69,23.02454,72.53761999999999,,,,,127.74193000000001,,0 / 0,1814,2019-01-03 10:18:40:297,0.19
0,0.17,9.943,0.8,0.483,9.631,1.7830000000000001,-0.28600000000000003,0.32,-1.072,-0.08199999999999999,0.025,-0.025,24.0,-6.9,-15.7,-39.8,353.8,-79.1,-15.6,3.0,1019.3,42.66,23.02534,72.5373,,,,,3225.8064,,0 / 0,16,2019-01-03 10:18:49:756,0.19
1,0.79,9.805,0.79,0.42700000000000005,9.664,1.611,0.358,0.14800000000000002,-0.833,0.08199999999999999,0.07200000000000001,-0.028999999999999998,24.0,-7.5,-15.4,-39.7,353.3,-79.4,-14.6,3.0,1019.3,42.66,23.02534,72.5373,,,,,3225.8064,,0 / 0,116,2019-01-03 10:18:49:856,0.19
2,1.092,10.037,0.977,0.457,9.697000000000001,1.39,0.638,0.326,-0.382,0.205,0.067,-0.08800000000000001,24.0,-5.3,-15.4,-39.2,349.8,-81.0,-16.8,3.0,1019.3,47.47,23.02534,72.5373,,,,,3225.8064,,0 / 0,216,2019-01-03 10:18:49:956,0.19
3,0.35,10.578,1.8630000000000002,0.44799999999999995,9.727,1.165,0.151,0.669,0.499,0.297,-0.019,-0.177,25.0,-6.5,-15.5,-38.8,348.5,-82.3,-21.0,3.0,1019.3,47.47,23.02534,72.5373,,,,,3225.8064,,0 / 0,315,2019-01-03 10:18:50:055,0.19
4,-0.105,10.353,1.1320000000000001,0.361,9.749,1.0,-0.447,0.537,0.10300000000000001,0.076,-0.024,0.035,24.0,-6.7,-16.4,-39.3,350.3,-83.7,-19.4,3.0,1019.3,47.47,23.02534,72.5373,,,,,3225.8064,,0 / 0,416,2019-01-03 10:18:50:156,0.19
5,0.134,9.732999999999999,2.215,0.32,9.737,1.122,-0.18600000000000003,-0.095,1.251,0.073,0.17800000000000002,0.139,24.0,-6.4,-16.4,-38.9,350.6,-83.7,-19.1,3.0,1019.3,47.47,23.02534,72.5373,,,,,3225.8064,,0 / 0,516,2019-01-03 10:18:50:256,0.19
6,0.06,9.388,2.227,0.293,9.716000000000001,1.2990000000000002,-0.41200000000000003,-0.19399999999999998,0.7909999999999999,0.057999999999999996,0.131,0.21100000000000002,26.0,-5.8,-16.3,-38.6,357.5,-82.1,-11.1,3.0,1019.3,44.94,23.02534,72.5373,,,,,3225.8064,,0 / 0,616,2019-01-03 10:18:50:356,0.19
7,0.158,9.512,2.603,0.344,9.698,1.415,-0.629,0.013000000000000001,1.702,0.077,0.16899999999999998,-0.079,26.0,-6.7,-17.0,-38.8,352.9,-81.8,-15.4,3.0,1019.3,44.94,23.02534,72.5373,,,,,3225.8064,,0 / 0,716,2019-01-03 10:18:50:456,0.19
8,0.247,9.277999999999999,1.365,0.28800000000000003,9.693999999999999,1.452,-0.13,-0.385,-0.212,0.073,-0.063,-0.038,26.0,-4.7,-16.4,-41.2,354.5,-81.4,-12.1,3.0,1019.3,44.94,23.02534,72.5373,,,,,3225.8064,,0 / 0,816,2019-01-03 10:18:50:556,0.19
9,0.163,9.668,1.348,0.23199999999999998,9.703,1.406,-0.07200000000000001,-0.032,-0.087,0.028999999999999998,-0.12300000000000001,-0.053,26.0,-6.4,-16.9,-39.6,355.8,-81.4,-10.7,3.0,1019.3,60.73,23.02534,72.5373,,,,,3225.8064,,0 / 0,916,2019-01-03 10:18:50:656,0.19
10,0.017,9.988999999999999,1.875,0.205,9.703,1.4080000000000001,-0.066,0.2,0.40700000000000003,0.11,-0.267,-0.08,25.0,-6.5,-16.1,-38.8,2.0,-81.7,-8.3,3.0,1019.3,60.73,23.02534,72.5373,,,,,3225.8064,,0 / 0,1015,2019-01-03 10:18:50:755,0.19
11,-0.33,9.924,1.58,0.214,9.707,1.3769999999999998,-0.5820000000000001,0.217,0.006999999999999999,0.054000000000000006,-0.52,0.03,25.0,-8.2,-16.9,-39.7,2.2,-81.7,-8.1,3.0,1019.3,60.73,23.02534,72.5373,,,,,3225.8064,,0 / 0,1116,2019-01-03 10:18:50:856,0.19
12,-0.213,10.347999999999999,3.7089999999999996,0.27899999999999997,9.679,1.5530000000000002,-0.49200000000000005,0.669,2.156,-0.215,-0.517,-0.062,25.0,-8.2,-17.0,-40.2,2.7,-81.8,-8.8,3.0,1019.3,61.06,23.02534,72.5373,,,,,3225.8064,,0 / 0,1216,2019-01-03 10:18:50:956,0.19
13,0.275,9.465,1.796,0.413,9.662,1.626,-0.016,-0.369,0.113,-0.122,-0.609,0.147,26.0,-12.4,-15.8,-39.6,4.4,-80.4,-12.6,3.0,1019.3,61.06,23.02534,72.5373,,,,,3225.8064,,0 / 0,1316,2019-01-03 10:18:51:056,0.19
14,0.6459999999999999,9.366,0.426,0.562,9.652999999999999,1.633,0.078,-0.254,-1.069,-0.07400000000000001,-0.324,0.027999999999999997,26.0,-14.7,-15.5,-38.5,2.4,-79.8,-17.6,3.0,1019.3,61.06,23.02534,72.5373,,,,,3225.8064,,0 / 0,1416,2019-01-03 10:18:51:156,0.19
15,1.4269999999999998,9.175,1.075,0.631,9.628,1.754,0.7909999999999999,-0.46,-0.608,-0.31,-0.402,-0.11800000000000001,28.0,-16.5,-15.0,-40.0,2.1,-79.4,-19.9,3.0,1019.3,59.04,23.02534,72.5373,,,,,3225.8064,,0 / 0,1516,2019-01-03 10:18:51:256,0.19
16,1.173,9.677999999999999,0.359,0.594,9.62,1.811,0.158,0.218,-0.573,0.215,-0.242,0.13,28.0,-18.0,-13.9,-39.7,7.4,-78.4,-16.8,3.0,1019.3,59.04,23.02534,72.5373,,,,,3225.8064,,0 / 0,1615,2019-01-03 10:18:51:355,0.19
0,0.486,9.431000000000001,1.659,0.095,9.46,2.5839999999999996,0.379,-0.016,-0.961,0.201,0.022000000000000002,-0.08900000000000001,26.0,4.6,-30.5,18.4,189.4,-74.2,-2.3,3.0,1019.3,39.42,23.02534,72.5373,,,,,3225.8064,,0 / 0,16,2019-01-03 10:18:57:750,0.19
1,0.491,9.522,1.7890000000000001,0.067,9.49,2.47,0.321,0.065,-0.715,0.03,0.081,-0.026000000000000002,26.0,4.5,-31.0,19.6,189.4,-75.0,-1.8,3.0,1019.3,39.42,23.02534,72.5373,,,,,3225.8064,,0 / 0,115,2019-01-03 10:18:57:849,0.19
2,0.113,10.092,1.939,0.085,9.572000000000001,2.1319999999999997,0.195,0.40399999999999997,-0.297,0.11800000000000001,0.139,-0.10300000000000001,25.0,3.9,-31.5,19.1,187.2,-77.0,-2.3,3.0,1019.3,39.42,23.02534,72.5373,,,,,3225.8064,,0 / 0,215,2019-01-03 10:18:57:949,0.19
3,0.804,10.245,1.415,0.07,9.6,2.001,0.245,1.001,0.047,-0.06,0.125,-0.11900000000000001,25.0,4.5,-31.6,19.6,189.6,-77.6,-2.2,3.0,1019.3,50.82,23.02534,72.5373,,,,,3225.8064,,0 / 0,315,2019-01-03 10:18:58:049,0.19
4,-0.56,10.01,3.216,0.03,9.573,2.126,-0.59,0.43700000000000006,1.089,-0.079,0.05,-0.047,25.0,4.9,-31.1,20.4,189.7,-77.8,-1.5,3.0,1019.3,50.82,23.02534,72.5373,,,,,3225.8064,,0 / 0,416,2019-01-03 10:18:58:150,0.19
5,-0.10099999999999999,9.666,2.6860000000000004,0.0,9.543,2.26,0.098,0.10800000000000001,0.31,-0.07400000000000001,-0.12300000000000001,0.051,25.0,4.7,-31.4,19.4,189.0,-77.2,0.1,3.0,1019.3,50.82,23.02534,72.5373,,,,,3225.8064,,0 / 0,515,2019-01-03 10:18:58:249,0.19
6,-0.575,9.352,2.926,-0.028999999999999998,9.527999999999999,2.319,-0.509,-0.157,0.636,0.254,0.155,0.183,27.0,4.1,-31.5,20.3,189.0,-76.3,0.7,3.0,1019.3,46.21,23.02534,72.5373,,,,,3225.8064,,0 / 0,615,2019-01-03 10:18:58:349,0.19
7,-0.898,9.972000000000001,3.62,-0.047,9.548,2.2359999999999998,-0.81,0.46,1.527,0.281,0.23199999999999998,-0.042,28.0,3.8,-31.1,20.3,188.2,-76.5,-0.4,3.0,1019.3,46.21,23.02534,72.5373,,,,,3225.8064,,0 / 0,715,2019-01-03 10:18:58:449,0.19
8,0.086,8.583,2.052,-0.015,9.533,2.301,0.023,-0.879,0.052000000000000005,0.141,-0.048,-0.075,28.0,3.8,-30.5,20.0,188.9,-76.5,0.4,3.0,1019.3,46.21,23.02534,72.5373,,,,,3225.8064,,0 / 0,816,2019-01-03 10:18:58:550,0.19
9,-0.17,9.316,2.176,-0.08900000000000001,9.551,2.225,-0.081,-0.223,-0.008,0.040999999999999995,-0.17,-0.114,24.0,3.6,-30.5,21.3,189.2,-76.7,0.9,3.0,1019.3,56.59,23.02534,72.5373,,,,,3225.8064,,0 / 0,916,2019-01-03 10:18:58:650,0.19
10,-0.192,9.314,2.595,-0.096,9.556000000000001,2.2,0.003,-0.295,0.308,0.011000000000000001,-0.382,-0.06,24.0,5.2,-30.5,20.3,192.8,-77.0,2.7,3.0,1019.3,56.59,23.02534,72.5373,,,,,3225.8064,,0 / 0,1015,2019-01-03 10:18:58:749,0.19
11,-0.342,9.644,2.248,-0.061,9.561,2.178,-0.23,0.024,0.066,0.006,-0.5529999999999999,-0.114,26.0,6.4,-30.5,21.2,194.0,-77.1,2.1,3.0,1019.3,56.59,23.02534,72.5373,,,,,3225.8064,,0 / 0,1115,2019-01-03 10:18:58:849,0.19
12,0.158,10.075,1.726,-0.044000000000000004,9.562999999999999,2.171,0.159,0.514,-0.11699999999999999,-0.19899999999999998,-0.737,-0.05,26.0,9.1,-29.8,18.6,201.2,-77.6,1.8,3.0,1019.3,59.84,23.02534,72.5373,,,,,3225.8064,,0 / 0,1216,2019-01-03 10:18:58:950,0.19
13,0.28,9.551,2.571,0.011000000000000001,9.533,2.298,0.139,0.08199999999999999,0.34,0.07200000000000001,-0.682,0.055999999999999994,26.0,10.3,-30.1,19.4,201.2,-76.4,-0.3,3.0,1019.3,59.84,23.02534,72.5373,,,,,3225.8064,,0 / 0,1315,2019-01-03 10:18:59:049,0.19
0,0.594,9.776,1.607,0.24,9.648,1.7409999999999999,0.431,0.073,-0.245,-0.015,0.099,-0.055999999999999994,31.0,-3.8,-15.8,-41.3,358.2,-79.6,-7.2,3.0,1019.2,41.65,23.02534,72.5373,,,,,3225.8064,,0 / 0,19,2019-01-03 10:19:09:020,0.19
1,0.7020000000000001,10.302999999999999,1.125,0.179,9.671,1.6130000000000002,0.537,0.665,-0.555,-0.005,0.111,-0.083,33.0,-3.2,-15.0,-41.9,356.4,-80.1,-7.3,3.0,1019.2,41.65,23.02534,72.5373,,,,,3225.8064,,0 / 0,119,2019-01-03 10:19:09:120,0.19
2,0.381,10.116,2.148,0.15,9.665,1.653,0.271,0.396,0.495,0.1,-0.078,-0.055,33.0,-3.4,-14.8,-40.8,358.7,-80.4,-5.4,3.0,1019.2,49.44,23.02534,72.5373,,,,,3225.8064,,0 / 0,219,2019-01-03 10:19:09:220,0.19
3,-0.129,9.905,2.306,0.192,9.642999999999999,1.774,-0.19,0.262,0.505,0.08800000000000001,0.05,-0.081,36.0,-4.0,-15.3,-40.1,359.8,-80.0,-5.9,3.0,1019.2,49.44,23.02534,72.5373,,,,,3225.8064,,0 / 0,319,2019-01-03 10:19:09:320,0.19
4,-0.314,9.046,2.289,0.046,9.601,2.0,-0.86,-0.529,1.252,0.188,-0.006,0.068,38.0,-3.9,-14.8,-39.9,2.0,-78.8,-3.9,3.0,1019.2,49.44,23.02534,72.5373,,,,,3225.8064,,0 / 0,419,2019-01-03 10:19:09:420,0.19
5,-0.395,9.386000000000001,3.213,-0.07200000000000001,9.56,2.1830000000000003,-0.203,-0.311,0.68,-0.12300000000000001,0.027999999999999997,0.005,38.0,-4.4,-15.5,-39.9,7.3,-77.7,0.9,3.0,1019.2,42.77,23.02534,72.5373,,,,,3225.8064,,0 / 0,519,2019-01-03 10:19:09:520,0.19
6,-0.077,9.625,2.033,-0.198,9.485,2.483,0.069,0.055999999999999994,-0.20600000000000002,0.022000000000000002,-0.293,-0.128,41.0,-3.7,-14.5,-41.6,10.7,-75.3,4.1,3.0,1019.2,42.77,23.02534,72.5373,,,,,3225.8064,,0 / 0,618,2019-01-03 10:19:09:619,0.19
7,0.20600000000000002,9.828,2.533,-0.198,9.494,2.449,0.332,0.38799999999999996,-0.26899999999999996,-0.004,-0.409,-0.07200000000000001,41.0,-4.4,-14.5,-43.4,13.4,-75.4,5.0,3.0,1019.2,42.77,23.02534,72.5373,,,,,3225.8064,,0 / 0,718,2019-01-03 10:19:09:719,0.19
8,0.79,9.398,2.4419999999999997,-0.10300000000000001,9.507,2.405,0.914,-0.127,0.053,0.091,-0.845,-0.133,41.0,-7.4,-14.8,-39.6,15.0,-75.7,3.3,3.0,1019.2,42.77,23.02534,72.5373,,,,,3225.8064,,0 / 0,818,2019-01-03 10:19:09:819,0.19
9,1.077,9.165,2.66,0.022000000000000002,9.527000000000001,2.323,1.005,-0.45299999999999996,0.368,0.187,-1.196,-0.24100000000000002,41.0,-10.4,-14.6,-39.6,16.1,-75.9,1.6,3.0,1019.2,58.14,23.02534,72.5373,,,,,3225.8064,,0 / 0,919,2019-01-03 10:19:09:920,0.19
10,0.828,9.386000000000001,2.737,0.20600000000000002,9.514,2.3680000000000003,0.7040000000000001,-0.098,0.496,-0.225,-1.956,-0.318,42.0,-14.7,-14.5,-38.1,20.1,-76.3,-3.7,3.0,1019.3,58.14,23.02534,72.5373,,,,,3225.8064,,0 / 0,1019,2019-01-03 10:19:10:020,0.19
11,-0.429,10.197000000000001,3.5239999999999996,0.17800000000000002,9.516,2.363,-0.636,0.617,0.932,-0.059000000000000004,-2.103,-0.371,42.0,-20.8,-15.7,-34.6,27.6,-75.8,-4.7,3.0,1019.2,58.14,23.02534,72.5373,,,,,3225.8064,,0 / 0,1118,2019-01-03 10:19:10:119,0.19
12,0.259,9.139,3.34,0.36,9.481,2.481,-0.133,-0.373,0.768,0.03,-2.09,-0.35100000000000003,82.0,-26.2,-16.8,-29.8,39.2,-75.3,-6.7,3.0,1019.2,59.08,23.02534,72.5373,,,,,3225.8064,,0 / 0,1218,2019-01-03 10:19:10:219,0.19
13,0.45299999999999996,9.165,2.753,0.608,9.496,2.374,-0.02,-0.433,0.27699999999999997,0.064,-2.043,-0.084,42.0,-29.8,-17.9,-23.8,44.1,-75.3,-9.5,3.0,1019.2,59.08,23.02534,72.5373,,,,,3225.8064,,0 / 0,1318,2019-01-03 10:19:10:319,0.19
14,1.255,9.012,2.986,0.955,9.482000000000001,2.313,0.111,-0.373,0.625,-0.1,-1.8359999999999999,-0.14400000000000002,42.0,-31.9,-18.1,-17.1,48.2,-75.4,-20.2,3.0,1019.2,59.08,23.02534,72.5373,,,,,3225.8064,,0 / 0,1418,2019-01-03 10:19:10:419,0.19
15,0.977,8.859,3.108,1.182,9.451,2.335,-0.23,-0.528,0.624,-0.47100000000000003,-1.7890000000000001,-0.19899999999999998,37.0,-33.8,-19.4,-11.3,52.0,-75.2,-24.2,3.0,1019.2,52.85,23.02534,72.5373,,,,,3225.8064,,0 / 0,1518,2019-01-03 10:19:10:519,0.19
16,0.69,9.218,2.327,1.117,9.443,2.398,-0.835,-0.062,-0.162,-0.21100000000000002,-1.4769999999999999,-0.426,37.0,-33.4,-20.0,-6.9,61.4,-74.4,-25.8,3.0,1019.2,52.85,23.02534,72.5373,,,,,3225.8064,,0 / 0,1618,2019-01-03 10:19:10:619,0.19
17,0.045,9.943,2.318,0.922,9.461,2.4090000000000003,-1.011,0.604,-0.235,-0.11800000000000001,-1.058,-0.33399999999999996,39.0,-32.7,-21.5,-1.9,71.6,-74.2,-23.8,3.0,1019.2,52.85,23.02534,72.5373,,,,,3225.8064,,0 / 0,1718,2019-01-03 10:19:10:719,0.19
18,0.01,9.706,1.765,0.81,9.482999999999999,2.364,-0.927,0.434,-0.932,0.258,-0.573,-0.28600000000000003,39.0,-31.3,-22.9,1.4,84.1,-74.6,-19.7,3.0,1019.2,43.41,23.02534,72.5373,,,,,3225.8064,,0 / 0,1818,2019-01-03 10:19:10:819,0.19
19,0.551,9.809,1.901,0.7809999999999999,9.491,2.3409999999999997,-0.525,0.639,-0.136,-0.305,-0.621,0.065,94.0,-29.4,-24.7,2.9,88.9,-75.2,-18.9,3.0,1019.2,43.41,23.02534,72.5373,,,,,3225.8064,,0 / 0,1918,2019-01-03 10:19:10:919,0.19
0,0.294,9.63,2.083,0.037000000000000005,9.41,2.759,0.429,0.17600000000000002,-0.5660000000000001,-0.095,0.098,0.068,40.0,4.3,-32.5,17.2,188.4,-73.3,-0.7,3.0,1019.3,43.72,23.02534,72.5373,,,,,3225.8064,,0 / 0,18,2019-01-03 10:19:15:056,0.19
1,0.544,10.099,2.72,0.099,9.433,2.678,0.444,0.6659999999999999,0.042,-0.01,0.027000000000000003,-0.016,40.0,3.5,-33.6,17.0,188.1,-73.9,-1.2,3.0,1019.2,43.72,23.02534,72.5373,,,,,3225.8064,,0 / 0,117,2019-01-03 10:19:15:155,0.19
2,0.158,10.288,2.864,0.15,9.459,2.585,0.221,0.988,0.11800000000000001,0.201,0.006999999999999999,-0.081,40.0,5.6,-32.0,16.0,191.9,-74.4,-3.2,3.0,1019.3,43.72,23.02534,72.5373,,,,,3225.8064,,0 / 0,218,2019-01-03 10:19:15:256,0.19
3,0.235,10.379000000000001,2.761,0.21,9.467,2.55,0.025,0.912,0.21,0.135,-0.022000000000000002,-0.047,40.0,4.3,-33.3,16.3,185.8,-74.8,-4.2,3.0,1019.3,54.14,23.02534,72.5373,,,,,3225.8064,,0 / 0,317,2019-01-03 10:19:15:355,0.19
4,-0.462,9.663,3.97,0.10800000000000001,9.453,2.609,-0.56,0.158,1.205,0.41600000000000004,0.002,-0.023,40.0,4.1,-32.8,17.6,187.1,-74.6,-2.4,3.0,1019.2,54.14,23.02534,72.5373,,,,,3225.8064,,0 / 0,417,2019-01-03 10:19:15:455,0.19
5,-0.359,8.357999999999999,4.006,0.11599999999999999,9.471,2.54,-0.629,-1.024,1.521,0.155,-0.127,0.233,40.0,4.6,-32.6,18.9,189.3,-74.9,-1.6,3.0,1019.2,54.14,23.02534,72.5373,,,,,3225.8064,,0 / 0,517,2019-01-03 10:19:15:555,0.19
6,-0.503,8.852,3.63,0.096,9.471,2.542,-0.611,-0.626,1.171,0.027000000000000003,0.08900000000000001,-0.055,40.0,3.5,-31.6,19.3,188.5,-74.9,-3.6,3.0,1019.2,52.94,23.02534,72.5373,,,,,3225.8064,,0 / 0,617,2019-01-03 10:19:15:655,0.19
7,-0.11,9.141,2.6189999999999998,-0.018000000000000002,9.443999999999999,2.642,-0.086,-0.303,-0.066,0.03,-0.011000000000000001,-0.057,36.0,4.0,-31.9,18.5,188.6,-74.4,-0.3,3.0,1019.3,52.94,23.02534,72.5373,,,,,3225.8064,,0 / 0,717,2019-01-03 10:19:15:755,0.19
8,0.263,9.366,2.545,-0.065,9.414,2.7460000000000004,0.27699999999999997,0.075,-0.243,0.015,-0.139,-0.184,36.0,4.9,-32.2,18.8,189.2,-74.1,1.1,3.0,1019.3,52.94,23.02534,72.5373,,,,,3225.8064,,0 / 0,817,2019-01-03 10:19:15:855,0.19
9,-0.8,9.363999999999999,2.787,-0.12300000000000001,9.413,2.748,-0.47600000000000003,0.021,0.106,0.127,-0.342,-0.14300000000000002,35.0,5.0,-32.6,17.0,192.7,-73.7,2.4,3.0,1019.3,59.42,23.02534,72.5373,,,,,3225.8064,,0 / 0,917,2019-01-03 10:19:15:955,0.19
10,-0.294,9.437999999999999,2.1,-0.152,9.43,2.688,-0.221,-0.142,-0.385,0.008,-0.439,-0.099,35.0,5.6,-31.3,19.6,194.6,-74.1,3.2,3.0,1019.3,59.42,23.02534,72.5373,,,,,3225.8064,,0 / 0,1017,2019-01-03 10:19:16:055,0.19
11,0.41700000000000004,8.931000000000001,2.509,-0.032,9.389,2.833,0.535,-0.040999999999999995,0.83,-0.537,-0.531,0.03,36.0,6.7,-31.6,18.8,196.1,-73.9,2.3,3.0,1019.2,59.42,23.02534,72.5373,,,,,3225.8064,,0 / 0,1118,2019-01-03 10:19:16:156,0.19
12,0.539,9.905,2.31,0.026000000000000002,9.401,2.792,0.086,0.777,-0.66,0.442,-0.42100000000000004,-0.099,36.0,7.6,-31.9,17.2,194.5,-72.8,-0.3,3.0,1019.2,59.05,23.02534,72.5373,,,,,3225.8064,,0 / 0,1217,2019-01-03 10:19:16:255,0.19
13,-0.7829999999999999,9.802,2.95,0.201,9.366,2.8989999999999996,-0.012,0.175,0.28800000000000003,0.235,-0.002,-0.321,36.0,9.2,-31.3,17.1,197.0,-73.1,-3.7,3.0,1019.2,59.05,23.02534,72.5373,,,,,3225.8064,,0 / 0,1317,2019-01-03 10:19:16:355,0.19
14,0.175,8.701,2.911,0.114,9.411,2.755,0.93,-0.835,-0.222,-0.08,-0.733,0.032,34.0,10.8,-31.5,17.3,202.1,-73.6,-1.2,3.0,1019.2,59.05,23.02534,72.5373,,,,,3225.8064,,0 / 0,1417,2019-01-03 10:19:16:455,0.19
15,-0.079,10.056000000000001,3.4760000000000004,0.151,9.374,2.877,-0.228,0.648,0.669,-0.198,-0.121,0.001,34.0,12.3,-31.6,15.5,204.9,-73.2,-2.9,3.0,1019.2,53.38,23.02534,72.5373,,,,,3225.8064,,0 / 0,1517,2019-01-03 10:19:16:555,0.19
16,0.07400000000000001,9.22,2.8760000000000003,0.163,9.347999999999999,2.96,-0.467,0.172,0.102,-0.061,-0.021,0.14800000000000002,32.0,11.6,-32.3,15.5,203.6,-72.7,-3.1,3.0,1019.2,53.38,23.02534,72.5373,,,,,3225.8064,,0 / 0,1617,2019-01-03 10:19:16:655,0.19
17,0.52,9.058,2.2840000000000003,0.126,9.375,2.873,0.324,-0.28,-0.649,0.063,0.318,0.115,32.0,11.0,-31.0,16.3,202.6,-72.9,-2.3,3.0,1019.2,53.38,23.02534,72.5373,,,,,3225.8064,,0 / 0,1717,2019-01-03 10:19:16:755,0.19
18,0.077,9.309,3.213,0.162,9.375,2.872,0.053,-0.018000000000000002,0.245,0.10800000000000001,0.40299999999999997,0.222,29.0,10.6,-31.0,16.6,202.0,-72.7,-2.8,3.0,1019.2,53.38,23.02534,72.5373,,,,,3225.8064,,0 / 0,1818,2019-01-03 10:19:16:856,0.19
19,-0.16,9.809,3.069,0.218,9.372,2.878,-0.491,0.353,0.28300000000000003,-0.08199999999999999,0.5479999999999999,0.18899999999999997,29.0,7.7,-32.3,17.0,194.4,-73.0,-4.3,3.0,1019.3,50.33,23.02534,72.5373,,,,,3225.8064,,0 / 0,1917,2019-01-03 10:19:16:955,0.19
0,1.044,9.939,2.344,1.046,9.412,2.546,-0.171,0.628,-0.306,0.16899999999999998,0.078,-0.19899999999999998,50.0,-8.1,-10.7,-42.8,347.0,-72.8,-22.5,3.0,1019.3,53.8,23.02534,72.5373,,,,,3225.8064,,0 / 0,9,2019-01-03 10:19:21:431,0.19
1,0.67,9.922,4.388999999999999,0.937,9.432,2.517,-0.069,0.613,1.8719999999999999,-0.066,0.057,-0.138,52.0,-8.2,-10.6,-41.8,348.0,-74.2,-21.5,3.0,1019.2,53.8,23.02534,72.5373,,,,,3225.8064,,0 / 0,111,2019-01-03 10:19:21:533,0.19
2,0.46,9.316,4.54,0.8320000000000001,9.463,2.435,-0.336,-0.016,1.901,-0.036000000000000004,0.079,0.114,52.0,-6.5,-10.1,-42.7,348.9,-74.2,-19.5,3.0,1019.2,53.8,23.02534,72.5373,,,,,3225.8064,,0 / 0,209,2019-01-03 10:19:21:631,0.19
3,0.165,8.926,3.884,0.889,9.423,2.5669999999999997,-0.706,-0.511,1.364,0.028999999999999998,0.033,0.223,59.0,-7.0,-11.4,-42.1,349.3,-74.3,-19.0,3.0,1019.2,53.8,23.02534,72.5373,,,,,3225.8064,,0 / 0,309,2019-01-03 10:19:21:731,0.19
4,0.33799999999999997,8.935,3.699,0.838,9.37,2.7689999999999997,-0.617,-0.46299999999999997,0.7090000000000001,-0.127,0.083,0.03,59.0,-7.4,-10.1,-41.9,349.9,-73.5,-18.7,3.0,1019.2,50.72,23.02534,72.5373,,,,,3225.8064,,0 / 0,409,2019-01-03 10:19:21:831,0.19
5,0.057,9.697000000000001,2.909,0.634,9.264,3.1519999999999997,-0.466,0.33799999999999997,-0.222,0.153,-0.031,-0.17800000000000002,75.0,-7.3,-10.4,-42.5,357.8,-70.9,-11.4,3.0,1019.2,50.72,23.02534,72.5373,,,,,3225.8064,,0 / 0,509,2019-01-03 10:19:21:931,0.19
6,0.833,9.081,3.5839999999999996,0.637,9.252,3.188,0.168,-0.175,0.312,0.001,-0.24600000000000002,-0.02,111.0,-6.9,-10.7,-42.6,358.1,-70.8,-10.9,3.0,1019.2,50.72,23.02534,72.5373,,,,,3225.8064,,0 / 0,609,2019-01-03 10:19:22:031,0.19
7,0.46399999999999997,9.45,3.884,0.654,9.254,3.179,-0.20600000000000002,0.244,0.762,0.174,-0.179,-0.065,111.0,-8.0,-10.7,-43.2,358.7,-70.7,-11.6,3.0,1019.2,59.09,23.02534,72.5373,,,,,3225.8064,,0 / 0,709,2019-01-03 10:19:22:131,0.19
8,0.254,8.911,2.224,0.59,9.328,2.967,-0.779,-0.06,-0.168,0.337,-0.21899999999999997,0.034,126.0,-9.3,-11.4,-42.9,1.0,-71.5,-11.0,3.0,1019.3,59.09,23.02534,72.5373,,,,,3225.8064,,0 / 0,809,2019-01-03 10:19:22:231,0.19
9,0.019,10.183,0.965,0.585,9.372,2.826,-0.425,0.6629999999999999,-1.9880000000000002,-0.136,-0.405,-0.271,126.0,-7.7,-11.9,-46.0,359.7,-72.5,-11.8,3.0,1019.3,59.09,23.02534,72.5373,,,,,3225.8064,,0 / 0,909,2019-01-03 10:19:22:331,0.19
10,1.0270000000000001,8.818,3.2110000000000003,0.617,9.327,2.966,0.126,-0.35,1.195,-0.132,-0.33799999999999997,0.111,40.0,-8.3,-12.7,-48.7,358.2,-72.3,-10.8,3.0,1019.3,59.27,23.02534,72.5373,,,,,3225.8064,,0 / 0,1009,2019-01-03 10:19:22:431,0.19
11,0.795,8.861,3.359,0.77,9.226,3.235,0.21600000000000003,-0.721,1.218,0.003,-0.44799999999999995,-0.028999999999999998,40.0,-9.4,-10.3,-48.8,357.8,-71.7,-12.3,3.0,1019.2,59.27,23.02534,72.5373,,,,,3225.8064,,0 / 0,1109,2019-01-03 10:19:22:531,0.19
0,0.409,9.927,1.405,0.4,9.547,2.204,0.052000000000000005,0.375,-0.7340000000000001,-0.017,0.13,-0.043,47.0,7.7,-31.9,19.1,189.0,-76.6,-10.9,3.0,1019.2,42.45,23.02454,72.53761999999999,,,,,157.74194,,0 / 0,10,2019-01-03 10:19:26:470,0.19
1,0.433,10.357999999999999,1.805,0.33399999999999996,9.582,2.062,0.037000000000000005,0.8390000000000001,-0.245,0.124,0.059000000000000004,0.01,44.0,7.3,-31.4,19.1,187.7,-76.8,-10.0,3.0,1019.2,45.8,23.02454,72.53761999999999,,,,,157.74194,,0 / 0,110,2019-01-03 10:19:26:570,0.19
2,0.369,10.226,1.5659999999999998,0.332,9.62,1.8730000000000002,0.156,0.885,-0.19899999999999998,0.14800000000000002,0.142,-0.016,44.0,6.8,-31.4,19.4,188.0,-78.4,-9.9,3.0,1019.2,45.8,23.02454,72.53761999999999,,,,,157.74194,,0 / 0,210,2019-01-03 10:19:26:670,0.19
3,0.318,10.137,2.023,0.326,9.625,1.85,-0.01,0.52,0.188,0.027999999999999997,-0.049,0.016,43.0,7.4,-30.9,19.2,188.8,-79.0,-9.9,3.0,1019.2,45.8,23.02454,72.53761999999999,,,,,157.74194,,0 / 0,310,2019-01-03 10:19:26:770,0.19
4,-0.271,8.952,3.943,0.3,9.557,2.176,-0.561,-0.861,1.609,0.07400000000000001,0.08,0.20199999999999999,43.0,6.5,-30.4,19.4,188.2,-78.1,-9.7,3.0,1019.2,45.8,23.02454,72.53761999999999,,,,,157.74194,,0 / 0,410,2019-01-03 10:19:26:870,0.19
5,-0.040999999999999995,8.859,2.7319999999999998,0.32,9.509,2.378,-0.348,-0.674,0.424,-0.14,0.161,0.22,41.0,5.7,-30.7,20.7,188.2,-76.0,-5.8,3.0,1019.2,54.52,23.02454,72.53761999999999,,,,,157.74194,,0 / 0,510,2019-01-03 10:19:26:970,0.19
6,-0.7609999999999999,9.685,2.947,0.25,9.485,2.48,-0.887,0.054000000000000006,0.57,0.14400000000000002,0.16899999999999998,-0.145,41.0,4.8,-30.5,20.5,185.1,-75.3,-7.2,3.0,1019.2,54.52,23.02454,72.53761999999999,,,,,157.74194,,0 / 0,609,2019-01-03 10:19:27:069,0.19
7,-0.395,9.761000000000001,1.571,0.094,9.508,2.399,-0.307,0.23199999999999998,-0.68,-0.011000000000000001,0.08900000000000001,0.10400000000000001,39.0,4.2,-30.5,20.5,186.9,-75.5,-4.3,3.0,1019.3,54.52,23.02454,72.53761999999999,,,,,157.74194,,0 / 0,710,2019-01-03 10:19:27:170,0.19
8,0.505,9.113,2.715,0.11699999999999999,9.515,2.373,0.38799999999999996,-0.402,0.34299999999999997,-0.10400000000000001,-0.07200000000000001,0.191,39.0,4.6,-30.4,20.3,189.6,-76.2,-1.4,3.0,1019.2,59.83,23.02454,72.53761999999999,,,,,157.74194,,0 / 0,818,2019-01-03 10:19:27:278,0.19
9,0.6659999999999999,9.378,1.935,0.28600000000000003,9.506,2.3930000000000002,0.3,-0.17,-0.363,0.055999999999999994,-0.068,0.17600000000000002,39.0,4.4,-30.4,20.0,185.0,-75.8,-4.6,3.0,1019.2,59.83,23.02454,72.53761999999999,,,,,157.74194,,0 / 0,910,2019-01-03 10:19:27:370,0.19
10,-0.019,9.912,1.561,0.354,9.533,2.272,-0.359,0.363,-0.63,0.361,0.086,-0.063,39.0,4.3,-30.6,20.8,181.5,-76.4,-8.9,3.0,1019.2,59.83,23.02454,72.53761999999999,,,,,157.74194,,0 / 0,1010,2019-01-03 10:19:27:470,0.19
11,0.833,9.201,2.49,0.24,9.634,1.814,-0.374,0.34,0.7190000000000001,0.434,0.467,-0.247,39.0,2.7,-30.4,20.9,178.8,-77.8,-9.3,3.0,1019.2,60.63,23.02454,72.53761999999999,,,,,157.74194,,0 / 0,1109,2019-01-03 10:19:27:569,0.19
12,0.632,10.158999999999999,2.021,0.235,9.634,1.818,0.397,0.525,0.203,-0.684,-0.439,0.272,34.0,4.1,-29.1,22.1,184.3,-80.4,-5.2,3.0,1019.2,60.63,23.02454,72.53761999999999,,,,,157.74194,,0 / 0,1209,2019-01-03 10:19:27:669,0.19
13,0.419,9.165,4.726,0.376,9.533,2.27,-0.23199999999999998,-0.187,1.963,-0.02,0.023,-0.10800000000000001,34.0,2.8,-30.9,20.3,179.1,-77.8,-9.3,3.0,1019.2,60.63,23.02454,72.53761999999999,,,,,157.74194,,0 / 0,1309,2019-01-03 10:19:27:769,0.19
14,1.034,9.917,1.571,0.35100000000000003,9.491,2.444,0.6729999999999999,0.489,-0.904,0.273,-0.18,-0.258,34.0,4.0,-30.7,20.4,182.3,-75.4,-8.2,3.0,1019.2,51.66,23.02454,72.53761999999999,,,,,157.74194,,0 / 0,1409,2019-01-03 10:19:27:869,0.19
15,0.115,9.307,2.971,0.22699999999999998,9.564,2.157,-0.433,-0.013000000000000001,-0.015,0.083,0.179,0.07200000000000001,34.0,3.9,-30.8,20.9,186.4,-76.8,-5.7,3.0,1019.2,51.66,23.02454,72.53761999999999,,,,,157.74194,,0 / 0,1510,2019-01-03 10:19:27:970,0.19
16,0.026000000000000002,9.443,2.998,0.295,9.521,2.332,-0.18600000000000003,-0.12,0.584,-0.171,0.046,0.136,30.0,3.7,-30.4,20.1,183.1,-76.1,-7.2,3.0,1019.2,51.66,23.02454,72.53761999999999,,,,,157.74194,,0 / 0,1612,2019-01-03 10:19:28:072,0.19
17,1.379,8.868,3.199,0.466,9.443999999999999,2.602,0.89,-0.568,0.574,-0.217,-0.035,0.21600000000000003,28.0,3.1,-31.1,20.3,180.2,-75.3,-8.2,3.0,1019.2,51.75,23.02454,72.53761999999999,,,,,157.74194,,0 / 0,1710,2019-01-03 10:19:28:170,0.19
18,0.28,9.5,2.452,0.545,9.443,2.588,-0.294,0.033,0.066,-0.028999999999999998,0.153,0.184,28.0,3.2,-31.5,19.2,181.0,-74.1,-11.1,3.0,1019.2,51.75,23.02454,72.53761999999999,,,,,157.74194,,0 / 0,1810,2019-01-03 10:19:28:270,0.19
19,0.515,9.107999999999999,3.0,0.746,9.426,2.602,0.289,-0.237,0.068,-0.15,0.255,0.14400000000000002,27.0,4.1,-31.3,17.0,179.3,-74.4,-14.3,3.0,1019.2,51.75,23.02454,72.53761999999999,,,,,157.74194,,0 / 0,1909,2019-01-03 10:19:28:369,0.19
20,1.1179999999999999,9.192,3.017,0.8170000000000001,9.386000000000001,2.72,0.626,-0.267,-0.175,0.175,-0.004,0.184,27.0,2.5,-31.2,18.1,173.6,-73.0,-15.7,3.0,1019.2,54.48,23.02454,72.53761999999999,,,,,157.74194,,0 / 0,2010,2019-01-03 10:19:28:470,0.19
0,-0.426,9.357000000000001,3.603,0.34600000000000003,9.495,2.427,-0.9840000000000001,-0.1,1.347,0.015,0.267,0.096,47.0,-4.4,-12.4,-41.9,354.3,-76.1,-10.6,3.0,1019.2,53.96,23.02454,72.53761999999999,,,,,157.74194,,0 / 0,17,2019-01-03 10:19:32:143,0.19
1,0.024,9.11,3.2039999999999997,0.24600000000000002,9.445,2.627,-0.218,-0.331,0.564,-0.008,0.24100000000000002,0.11199999999999999,47.0,-4.0,-11.8,-41.8,359.7,-74.8,-5.7,3.0,1019.2,53.96,23.02454,72.53761999999999,,,,,157.74194,,0 / 0,119,2019-01-03 10:19:32:245,0.19
2,-0.187,9.512,2.5860000000000003,0.16699999999999998,9.434,2.673,-0.33799999999999997,0.084,-0.172,0.235,0.142,-0.016,51.0,-3.2,-11.8,-42.2,0.6,-74.1,-3.6,3.0,1019.2,53.96,23.02454,72.53761999999999,,,,,157.74194,,0 / 0,217,2019-01-03 10:19:32:343,0.19
3,-0.096,9.56,2.504,0.147,9.457,2.592,-0.265,0.201,0.033,0.129,-0.002,0.08,51.0,-1.6,-12.3,-43.1,359.5,-74.4,-3.2,3.0,1019.2,49.23,23.02454,72.53761999999999,,,,,157.74194,,0 / 0,317,2019-01-03 10:19:32:443,0.19
4,0.069,9.084,2.188,0.125,9.453,2.6069999999999998,-0.08900000000000001,-0.369,-0.415,0.006,0.218,-0.078,56.0,-2.0,-12.9,-42.3,358.8,-74.6,-3.8,3.0,1019.2,49.23,23.02454,72.53761999999999,,,,,157.74194,,0 / 0,417,2019-01-03 10:19:32:543,0.19
5,-0.218,9.132,3.917,0.013000000000000001,9.398,2.801,-0.45799999999999996,0.08800000000000001,0.348,-0.25,-0.37200000000000005,-0.125,56.0,-0.4,-12.5,-43.5,359.4,-74.6,-1.9,3.0,1019.2,49.23,23.02454,72.53761999999999,,,,,157.74194,,0 / 0,517,2019-01-03 10:19:32:643,0.19
6,0.716,8.904,4.769,0.033,9.356,2.938,0.6809999999999999,-0.41600000000000004,1.7180000000000002,-0.599,-0.271,-0.142,66.0,-1.4,-10.6,-44.0,1.6,-73.2,0.1,3.0,1019.2,60.56,23.02454,72.53761999999999,,,,,157.74194,,0 / 0,618,2019-01-03 10:19:32:744,0.19
7,-0.084,9.318999999999999,1.896,0.10800000000000001,9.292,3.1319999999999997,-0.153,-0.359,-0.755,-0.126,-0.28,0.20600000000000002,37.0,-3.1,-10.7,-44.9,2.9,-71.4,0.0,3.0,1019.2,60.56,23.02454,72.53761999999999,,,,,157.74194,,0 / 0,717,2019-01-03 10:19:32:843,0.19
8,0.5579999999999999,9.354,3.8089999999999997,0.213,9.211,3.36,0.07200000000000001,0.12,0.316,0.092,-0.03,0.045,37.0,-4.5,-9.2,-46.4,1.9,-69.8,-3.3,3.0,1019.2,60.56,23.02454,72.53761999999999,,,,,157.74194,,0 / 0,818,2019-01-03 10:19:32:944,0.19
0,0.429,10.324000000000002,3.031,0.5479999999999999,9.457,2.536,-0.046,0.762,0.943,-0.06,0.034,-0.062,39.0,5.3,-32.9,17.8,182.0,-74.8,-12.7,3.0,1019.2,46.91,23.02454,72.53761999999999,,,,,157.74194,,0 / 0,15,2019-01-03 10:19:36:681,0.19
1,0.113,9.654,3.6319999999999997,0.45299999999999996,9.469,2.512,-0.341,0.185,1.12,0.068,0.268,-0.011000000000000001,39.0,6.6,-32.9,18.1,187.8,-74.9,-10.2,3.0,1019.2,46.91,23.02454,72.53761999999999,,,,,157.74194,,0 / 0,115,2019-01-03 10:19:36:781,0.19
2,-0.534,9.587,3.261,0.40700000000000003,9.494,2.423,-0.755,-0.111,1.087,0.106,0.27,0.299,39.0,6.1,-32.4,17.1,186.9,-75.0,-9.6,3.0,1019.2,46.91,23.02454,72.53761999999999,,,,,157.74194,,0 / 0,215,2019-01-03 10:19:36:881,0.19
3,-0.527,9.014,2.648,0.45799999999999996,9.477,2.481,-0.995,-0.45,0.198,0.059000000000000004,0.36,0.17,34.0,4.0,-31.9,19.2,183.7,-75.3,-10.3,3.0,1019.2,47.3,23.02454,72.53761999999999,,,,,157.74194,,0 / 0,314,2019-01-03 10:19:36:980,0.19
4,-0.345,8.914,3.623,0.375,9.422,2.693,-0.675,-0.613,1.073,0.04,0.11699999999999999,-0.14300000000000002,34.0,3.1,-33.1,18.4,181.0,-73.9,-7.9,3.0,1019.3,47.3,23.02454,72.53761999999999,,,,,157.74194,,0 / 0,414,2019-01-03 10:19:37:080,0.19
5,-0.081,9.496,3.306,0.22899999999999998,9.407,2.761,-0.282,0.12,0.6559999999999999,-0.141,0.052000000000000005,-0.032,34.0,3.2,-31.6,17.8,182.5,-74.0,-5.9,3.0,1019.3,47.3,23.02454,72.53761999999999,,,,,157.74194,,0 / 0,514,2019-01-03 10:19:37:180,0.19
6,0.259,9.247,2.78,0.182,9.401,2.786,-0.017,-0.147,0.03,-0.003,-0.158,0.054000000000000006,34.0,3.1,-32.4,18.5,184.0,-73.6,-3.7,3.0,1019.3,53.74,23.02454,72.53761999999999,,,,,157.74194,,0 / 0,614,2019-01-03 10:19:37:280,0.19
7,-0.268,9.788,2.785,0.151,9.412,2.75,-0.441,0.35200000000000004,-0.006,0.012,-0.172,-0.053,35.0,3.5,-32.3,19.3,183.9,-73.6,-3.4,3.0,1019.2,53.74,23.02454,72.53761999999999,,,,,157.74194,,0 / 0,714,2019-01-03 10:19:37:380,0.19
8,-0.285,10.089,3.3089999999999997,0.19899999999999998,9.427,2.696,-0.369,0.8640000000000001,0.632,0.121,-0.335,-0.013999999999999999,35.0,5.0,-32.0,19.3,187.8,-73.8,-3.7,3.0,1019.2,53.74,23.02454,72.53761999999999,,,,,157.74194,,0 / 0,815,2019-01-03 10:19:37:481,0.19
9,0.259,9.417,4.262,0.37200000000000005,9.408,2.7430000000000003,-0.046,-0.353,1.475,0.063,-0.49700000000000005,-0.016,36.0,4.8,-32.2,17.9,184.3,-74.0,-5.8,3.0,1019.2,59.0,23.02454,72.53761999999999,,,,,157.74194,,0 / 0,915,2019-01-03 10:19:37:581,0.19
10,1.123,8.986,2.088,0.527,9.406,2.725,0.596,-0.42,-0.637,-0.024,-0.84,-0.28600000000000003,36.0,6.7,-31.8,17.5,188.2,-73.6,-10.5,3.0,1019.2,59.0,23.02454,72.53761999999999,,,,,157.74194,,0 / 0,1014,2019-01-03 10:19:37:680,0.19
11,0.397,9.259,3.448,0.58,9.371,2.8310000000000004,-0.217,-0.163,0.622,0.066,-0.7490000000000001,-0.152,35.0,9.2,-32.0,16.0,193.4,-73.1,-11.0,3.0,1019.2,59.0,23.02454,72.53761999999999,,,,,157.74194,,0 / 0,1115,2019-01-03 10:19:37:781,0.19
12,1.5590000000000002,9.23,3.0789999999999997,0.784,9.347999999999999,2.859,0.585,-0.06,0.395,-0.099,-0.263,0.09,32.0,9.9,-31.8,16.8,190.5,-72.4,-15.3,3.0,1019.2,53.85,23.02454,72.53761999999999,,,,,157.74194,,0 / 0,1215,2019-01-03 10:19:37:881,0.19
13,1.6380000000000001,8.339,4.001,1.183,9.221,3.1210000000000004,0.826,-1.454,1.548,-0.495,-0.18100000000000002,0.43700000000000006,32.0,10.8,-32.5,15.7,189.6,-72.0,-17.8,3.0,1019.3,53.85,23.02454,72.53761999999999,,,,,157.74194,,0 / 0,1315,2019-01-03 10:19:37:981,0.19
14,1.3619999999999999,9.392999999999999,1.9680000000000002,1.26,9.216000000000001,3.1069999999999998,-0.027000000000000003,0.34700000000000003,-1.567,0.142,0.207,-0.034,33.0,9.7,-33.9,14.0,188.2,-69.7,-22.2,3.0,1019.2,53.85,23.02454,72.53761999999999,,,,,157.74194,,0 / 0,1415,2019-01-03 10:19:38:081,0.19
15,1.425,9.666,2.275,1.271,9.217,3.1,0.17,0.483,-0.488,0.21899999999999997,0.228,0.363,33.0,10.0,-32.8,14.8,188.2,-69.8,-20.9,3.0,1019.2,53.85,23.02454,72.53761999999999,,,,,157.74194,,0 / 0,1514,2019-01-03 10:19:38:180,0.19
0,-0.017,9.378,2.641,0.22899999999999998,9.434,2.667,-0.155,-0.044000000000000004,-0.11900000000000001,-0.07400000000000001,0.055999999999999994,0.040999999999999995,42.0,-4.9,-11.9,-41.5,0.5,-74.7,-6.3,3.0,1019.2,44.44,23.02454,72.53761999999999,,,,,157.74194,,0 / 0,14,2019-01-03 10:19:42:715,0.19
1,-0.285,9.371,3.843,0.142,9.369,2.8930000000000002,-0.414,0.04,0.873,0.031,-0.08800000000000001,-0.127,44.0,-5.2,-12.1,-41.1,2.7,-73.8,-4.6,3.0,1019.2,44.44,23.02454,72.53761999999999,,,,,157.74194,,0 / 0,114,2019-01-03 10:19:42:815,0.19
2,-0.153,9.603,2.344,0.018000000000000002,9.379,2.865,-0.125,0.09300000000000001,-0.332,0.003,-0.11199999999999999,0.012,44.0,-5.6,-12.4,-41.6,8.8,-72.8,-0.5,3.0,1019.2,44.44,23.02454,72.53761999999999,,,,,157.74194,,0 / 0,214,2019-01-03 10:19:42:915,0.19
3,-0.218,9.462,2.835,0.027000000000000003,9.39,2.8280000000000003,-0.244,0.07200000000000001,0.006999999999999999,-0.048,-0.214,0.073,45.0,-5.0,-11.9,-43.0,7.4,-73.2,-0.3,3.0,1019.2,56.35,23.02454,72.53761999999999,,,,,157.74194,,0 / 0,314,2019-01-03 10:19:43:015,0.19
4,-0.254,9.867,2.1719999999999997,0.038,9.395,2.813,-0.217,0.127,-0.251,0.154,-0.311,-0.08,53.0,-6.2,-11.6,-41.2,8.6,-73.1,-0.8,3.0,1019.2,56.35,23.02454,72.53761999999999,,,,,157.74194,,0 / 0,413,2019-01-03 10:19:43:114,0.19
5,-0.12,9.314,3.072,0.13699999999999998,9.419,2.727,0.376,0.28800000000000003,-0.105,-0.017,-0.252,0.066,53.0,-7.7,-11.5,-41.5,9.5,-73.8,-1.3,3.0,1019.2,56.35,23.02454,72.53761999999999,,,,,157.74194,,0 / 0,513,2019-01-03 10:19:43:214,0.19
6,0.63,9.295,4.14,0.19,9.401,2.786,0.04,-0.003,0.5820000000000001,-0.247,-0.26,0.031,43.0,-8.7,-11.2,-42.1,9.2,-73.5,-3.9,3.0,1019.2,57.63,23.02454,72.53761999999999,,,,,157.74194,,0 / 0,613,2019-01-03 10:19:43:314,0.19
7,0.45,9.172,3.69,0.32799999999999996,9.339,2.9739999999999998,0.166,-0.057,0.436,-0.146,-0.177,-0.001,43.0,-9.3,-10.3,-42.5,7.2,-72.7,-5.5,3.0,1019.2,57.63,23.02454,72.53761999999999,,,,,157.74194,,0 / 0,713,2019-01-03 10:19:43:414,0.19
8,0.905,8.78,3.661,0.462,9.244,3.241,0.297,-0.282,0.276,0.258,-0.285,-0.247,40.0,-10.4,-9.0,-42.9,5.7,-70.9,-8.1,3.0,1019.2,57.63,23.02454,72.53761999999999,,,,,157.74194,,0 / 0,813,2019-01-03 10:19:43:514,0.19
9,0.601,9.584,3.321,0.461,9.269,3.168,0.408,0.305,0.013999999999999999,-0.153,-0.10400000000000001,-0.08900000000000001,40.0,-11.2,-10.1,-44.2,6.6,-70.9,-8.3,3.0,1019.2,52.69,23.02454,72.53761999999999,,,,,157.74194,,0 / 0,916,2019-01-03 10:19:43:617,0.19
10,0.374,9.383,3.333,0.496,9.295,3.0869999999999997,0.048,-0.051,0.141,-0.113,-0.076,0.25,46.0,-12.8,-10.3,-43.8,9.6,-71.3,-8.0,3.0,1019.2,52.69,23.02454,72.53761999999999,,,,,157.74194,,0 / 0,1013,2019-01-03 10:19:43:714,0.19
11,0.898,9.267999999999999,3.23,0.662,9.249,3.1919999999999997,0.564,-0.098,-0.129,-0.040999999999999995,0.28300000000000003,0.248,46.0,-11.2,-9.3,-43.6,3.5,-70.8,-10.9,3.0,1019.2,52.69,23.02454,72.53761999999999,,,,,157.74194,,0 / 0,1114,2019-01-03 10:19:43:815,0.19
12,0.374,9.529,3.23,0.672,9.261000000000001,3.156,-0.121,0.327,0.231,0.22,0.693,0.19699999999999998,45.0,-9.5,-9.8,-44.6,0.4,-70.4,-12.2,3.0,1019.2,57.07,23.02454,72.53761999999999,,,,,157.74194,,0 / 0,1214,2019-01-03 10:19:43:915,0.19
13,0.998,9.383,3.805,0.8370000000000001,9.265,3.102,0.652,0.065,-0.495,-0.218,0.915,0.321,36.0,-7.4,-10.3,-47.0,353.0,-71.2,-14.6,3.0,1019.2,57.07,23.02454,72.53761999999999,,,,,157.74194,,0 / 0,1313,2019-01-03 10:19:44:014,0.19
0,0.73,10.03,3.488,0.284,9.36,2.9130000000000003,0.42700000000000005,0.239,1.236,-0.067,0.138,-0.047,43.0,5.2,-33.3,14.7,188.7,-72.7,-5.4,3.0,1019.2,43.59,23.02454,72.53761999999999,,,,,157.74194,,0 / 0,11,2019-01-03 10:19:48:050,0.19
1,0.536,9.668,3.266,0.249,9.339,2.9810000000000003,0.156,1.088,-0.127,0.075,0.031,-0.066,43.0,5.1,-32.9,14.6,186.1,-72.4,-5.2,3.0,1019.2,51.24,23.02454,72.53761999999999,,,,,157.74194,,0 / 0,110,2019-01-03 10:19:48:149,0.19
2,-1.3459999999999999,8.908999999999999,3.9960000000000004,0.08199999999999999,9.272,3.1919999999999997,-1.4280000000000002,-0.363,0.804,0.278,0.063,0.044000000000000004,43.0,5.6,-32.6,14.5,192.6,-71.0,-1.5,3.0,1019.2,51.24,23.02454,72.53761999999999,,,,,157.74194,,0 / 0,210,2019-01-03 10:19:48:249,0.19
3,0.5870000000000001,9.041,2.612,0.165,9.306000000000001,3.088,0.371,-0.653,-0.586,0.13699999999999998,0.016,0.254,42.0,4.6,-33.1,14.9,190.4,-71.1,-1.3,3.0,1019.2,51.24,23.02454,72.53761999999999,,,,,157.74194,,0 / 0,310,2019-01-03 10:19:48:349,0.19
4,-1.065,8.837,5.803999999999999,0.191,9.21,3.363,-1.246,-0.35100000000000003,2.388,-0.079,0.10800000000000001,-0.032,42.0,3.3,-34.1,14.5,184.7,-69.9,-3.2,3.0,1019.2,48.82,23.02454,72.53761999999999,,,,,157.74194,,0 / 0,411,2019-01-03 10:19:48:450,0.19
5,0.151,9.103,3.0189999999999997,0.08800000000000001,9.187000000000001,3.431,0.228,0.063,-1.0170000000000001,-0.028999999999999998,0.052000000000000005,-0.009000000000000001,38.0,3.8,-33.3,15.1,187.8,-69.5,-1.7,3.0,1019.2,48.82,23.02454,72.53761999999999,,,,,157.74194,,0 / 0,510,2019-01-03 10:19:48:549,0.19
6,0.031,9.105,3.34,0.047,9.181000000000001,3.446,-0.019,-0.08,-0.095,-0.047,-0.09,-0.048,38.0,3.5,-33.7,15.1,188.4,-69.5,-1.2,3.0,1019.2,48.82,23.02454,72.53761999999999,,,,,157.74194,,0 / 0,611,2019-01-03 10:19:48:650,0.19
7,-0.134,9.587,3.005,0.027999999999999997,9.182,3.445,-0.131,0.307,-0.435,0.006,-0.332,-0.025,36.0,4.5,-33.1,14.5,190.7,-69.3,-0.5,3.0,1019.2,48.82,23.02454,72.53761999999999,,,,,157.74194,,0 / 0,711,2019-01-03 10:19:48:750,0.19
8,0.201,9.127,3.1510000000000002,0.153,9.175,3.458,0.019,-0.025,-0.312,-0.07200000000000001,-0.5920000000000001,0.027999999999999997,36.0,5.8,-33.8,13.0,193.1,-69.4,-1.6,3.0,1019.2,61.09,23.02454,72.53761999999999,,,,,157.74194,,0 / 0,810,2019-01-03 10:19:48:849,0.19
9,0.254,8.832,4.808,0.37799999999999995,9.099,3.637,-0.491,0.315,1.092,-0.18,-0.649,-0.08900000000000001,38.0,7.4,-33.4,13.3,193.1,-68.7,-5.2,3.0,1019.2,61.09,23.02454,72.53761999999999,,,,,157.74194,,0 / 0,911,2019-01-03 10:19:48:950,0.19
10,1.061,8.543,4.338,0.5479999999999999,9.05,3.738,0.505,-0.295,0.485,-0.12300000000000001,-0.8590000000000001,-0.22,38.0,8.0,-34.6,12.3,193.8,-67.8,-7.1,3.0,1019.2,61.09,23.02454,72.53761999999999,,,,,157.74194,,0 / 0,1010,2019-01-03 10:19:49:049,0.19
11,-0.187,9.256,5.052,0.5529999999999999,8.979,3.904,-0.647,0.28,1.023,0.015,-0.7120000000000001,-0.284,38.0,9.8,-33.6,12.4,197.6,-66.6,-8.3,3.0,1019.2,61.09,23.02454,72.53761999999999,,,,,157.74194,,0 / 0,1110,2019-01-03 10:19:49:149,0.19
12,0.555,9.338,4.365,0.52,9.0,3.861,-1.192,0.479,1.27,-0.225,-0.341,-0.21600000000000003,33.0,12.2,-33.5,12.2,201.6,-67.0,-8.1,3.0,1019.2,57.37,23.02454,72.53761999999999,,,,,157.74194,,0 / 0,1211,2019-01-03 10:19:49:250,0.19
13,0.8140000000000001,8.162,3.603,0.6509999999999999,8.972999999999999,3.904,0.295,-0.851,-0.28800000000000003,-0.099,-0.156,0.157,33.0,11.9,-33.5,12.5,201.0,-66.5,-7.7,3.0,1019.2,57.37,23.02454,72.53761999999999,,,,,157.74194,,0 / 0,1310,2019-01-03 10:19:49:349,0.19
14,0.737,9.17,3.517,0.669,8.978,3.887,0.10400000000000001,0.21100000000000002,-0.674,0.054000000000000006,0.17600000000000002,0.066,33.0,12.2,-33.5,12.2,200.4,-66.3,-9.8,3.0,1019.2,57.37,23.02454,72.53761999999999,,,,,157.74194,,0 / 0,1410,2019-01-03 10:19:49:449,0.19
15,0.848,9.129,3.9360000000000004,0.7609999999999999,8.958,3.917,0.455,-0.042,0.048,0.004,0.34299999999999997,0.156,33.0,11.2,-33.4,11.5,198.2,-66.0,-10.8,3.0,1019.2,58.13,23.02454,72.53761999999999,,,,,157.74194,,0 / 0,1510,2019-01-03 10:19:49:549,0.19
16,1.695,8.014,4.034,0.866,8.917,3.988,0.7190000000000001,-0.784,0.511,-0.081,0.304,0.308,33.0,11.0,-34.7,10.7,198.7,-66.0,-11.0,3.0,1019.2,58.13,23.02454,72.53761999999999,,,,,157.74194,,0 / 0,1610,2019-01-03 10:19:49:649,0.19
17,1.183,8.741,4.6160000000000005,0.9159999999999999,8.833,4.16,0.2,-0.055999999999999994,0.525,-0.157,0.183,0.16,33.0,9.0,-34.6,11.6,192.8,-64.5,-12.3,3.0,1019.3,58.13,23.02454,72.53761999999999,,,,,157.74194,,0 / 0,1711,2019-01-03 10:19:49:750,0.19
0,-0.32299999999999995,9.058,3.306,0.56,9.488999999999999,2.41,-0.7659999999999999,-0.297,0.9590000000000001,0.091,0.183,0.17300000000000001,38.0,-7.7,-13.4,-40.8,357.8,-75.3,-13.0,3.0,1019.3,48.84,23.02454,72.53761999999999,,,,,157.74194,,0 / 0,11,2019-01-03 10:19:53:520,0.19
1,0.40700000000000003,9.316,2.282,0.622,9.486,2.4090000000000003,-0.221,-0.204,-0.146,-0.09699999999999999,0.139,0.18600000000000003,39.0,-6.5,-12.5,-41.3,356.1,-75.3,-13.4,3.0,1019.3,48.84,23.02454,72.53761999999999,,,,,157.74194,,0 / 0,111,2019-01-03 10:19:53:620,0.19
2,-0.266,9.673,2.861,0.599,9.442,2.5810000000000004,-0.8490000000000001,0.218,0.375,0.027000000000000003,0.085,-0.084,39.0,-5.8,-11.6,-41.5,354.6,-74.3,-13.1,3.0,1019.3,48.84,23.02454,72.53761999999999,,,,,157.74194,,0 / 0,212,2019-01-03 10:19:53:721,0.19
3,0.115,9.722999999999999,2.351,0.428,9.448,2.591,-0.297,0.289,-0.249,0.033,0.038,0.081,41.0,-7.3,-12.3,-41.1,358.4,-74.4,-11.1,3.0,1019.3,41.0,23.02454,72.53761999999999,,,,,157.74194,,0 / 0,311,2019-01-03 10:19:53:820,0.19
4,0.419,9.139,2.32,0.423,9.455,2.569,-0.036000000000000004,-0.569,-0.12300000000000001,0.013999999999999999,-0.11800000000000001,-0.018000000000000002,42.0,-6.7,-12.0,-41.5,0.4,-74.6,-9.3,3.0,1019.2,41.0,23.02454,72.53761999999999,,,,,157.74194,,0 / 0,411,2019-01-03 10:19:53:920,0.19
5,-0.01,9.728,2.346,0.396,9.47,2.5140000000000002,-0.158,0.243,-0.20800000000000002,-0.057,-0.335,0.124,42.0,-7.1,-11.4,-41.5,0.7,-74.7,-9.1,3.0,1019.2,41.0,23.02454,72.53761999999999,,,,,157.74194,,0 / 0,511,2019-01-03 10:19:54:020,0.19
6,0.414,10.338,2.773,0.45399999999999996,9.481,2.463,-0.063,0.855,0.32299999999999995,0.152,-0.431,0.172,42.0,-7.6,-11.5,-41.8,0.4,-75.2,-10.4,3.0,1019.2,60.54,23.02454,72.53761999999999,,,,,157.74194,,0 / 0,612,2019-01-03 10:19:54:121,0.19
7,0.565,9.766,3.915,0.624,9.479,2.436,0.33299999999999996,0.1,1.3619999999999999,0.069,-0.35200000000000004,0.22,42.0,-9.0,-11.5,-41.3,359.8,-75.2,-12.6,3.0,1019.2,60.54,23.02454,72.53761999999999,,,,,157.74194,,0 / 0,711,2019-01-03 10:19:54:220,0.19
8,0.809,8.629,4.0489999999999995,0.838,9.434,2.544,0.153,-0.655,1.166,-0.217,-0.289,0.078,34.0,-10.0,-11.2,-42.2,357.0,-75.0,-16.1,3.0,1019.2,60.54,23.02454,72.53761999999999,,,,,157.74194,,0 / 0,811,2019-01-03 10:19:54:320,0.19
9,2.995,9.524,2.239,0.995,9.418,2.548,2.03,0.28600000000000003,0.18899999999999997,-0.152,-0.132,0.013999999999999999,34.0,-11.0,-11.0,-41.9,354.3,-73.8,-19.7,3.0,1019.2,59.81,23.02454,72.53761999999999,,,,,157.74194,,0 / 0,912,2019-01-03 10:19:54:421,0.19
10,0.764,9.318999999999999,1.4409999999999998,1.149,9.398,2.5540000000000003,-0.20199999999999999,0.098,-1.0979999999999999,0.369,0.264,0.237,37.0,-11.7,-11.6,-42.1,350.6,-73.4,-24.2,3.0,1019.3,59.81,23.02454,72.53761999999999,,,,,157.74194,,0 / 0,1011,2019-01-03 10:19:54:520,0.19
11,1.14,9.204,1.6980000000000002,1.273,9.389,2.528,-0.14,0.006,-1.168,0.17600000000000002,0.373,0.028999999999999998,37.0,-11.6,-11.9,-41.8,347.8,-73.4,-26.7,3.0,1019.3,59.81,23.02454,72.53761999999999,,,,,157.74194,,0 / 0,1112,2019-01-03 10:19:54:621,0.19
12,1.7069999999999999,9.18,3.7489999999999997,1.261,9.379,2.572,0.446,-0.19899999999999998,1.177,-0.006999999999999999,0.503,0.114,34.0,-10.0,-12.0,-43.4,344.8,-73.3,-26.5,3.0,1019.2,54.95,23.02454,72.53761999999999,,,,,157.74194,,0 / 0,1211,2019-01-03 10:19:54:720,0.19
13,1.6469999999999998,9.392999999999999,2.7560000000000002,1.31,9.377,2.556,0.627,-0.321,-0.23399999999999999,0.099,0.469,0.268,33.0,-8.3,-12.7,-45.1,342.3,-73.1,-26.0,3.0,1019.2,54.95,23.02454,72.53761999999999,,,,,157.74194,,0 / 0,1312,2019-01-03 10:19:54:821,0.19
14,0.8809999999999999,9.747,1.975,1.2209999999999999,9.408,2.484,-0.311,0.303,-0.391,0.099,1.02,0.20199999999999999,33.0,-5.3,-12.6,-43.7,337.2,-73.4,-26.6,3.0,1019.2,54.95,23.02454,72.53761999999999,,,,,157.74194,,0 / 0,1411,2019-01-03 10:19:54:920,0.19
15,1.6469999999999998,9.562999999999999,1.535,1.264,9.411,2.449,0.38,0.147,-0.8959999999999999,0.33299999999999996,1.12,0.303,29.0,-1.0,-12.9,-44.3,334.5,-73.4,-26.3,3.0,1019.2,56.33,23.02454,72.53761999999999,,,,,157.74194,,0 / 0,1512,2019-01-03 10:19:55:021,0.19
16,0.32799999999999996,9.263,3.261,1.307,9.372,2.574,-0.655,-0.16399999999999998,0.6559999999999999,0.121,0.9790000000000001,0.534,29.0,1.3,-14.0,-43.7,328.8,-73.8,-27.5,3.0,1019.2,56.33,23.02454,72.53761999999999,,,,,157.74194,,0 / 0,1611,2019-01-03 10:19:55:120,0.19
0,0.546,9.486,3.3760000000000003,0.588,9.337,2.9389999999999996,-0.032,0.171,0.40700000000000003,0.179,0.154,-0.061,41.0,5.7,-33.7,16.1,185.6,-72.2,-11.8,3.0,1019.2,51.81,23.02454,72.53761999999999,,,,,157.74194,,0 / 0,9,2019-01-03 10:19:58:254,0.19
1,-0.275,8.605,4.686,0.5770000000000001,9.327,2.9730000000000003,-0.7240000000000001,-0.513,1.796,0.094,0.24600000000000002,0.203,41.0,5.2,-33.7,16.1,184.2,-72.4,-10.7,3.0,1019.2,51.81,23.02454,72.53761999999999,,,,,157.74194,,0 / 0,110,2019-01-03 10:19:58:355,0.19
2,0.43799999999999994,8.832,3.3280000000000003,0.722,9.283999999999999,3.074,-0.18100000000000002,-0.502,0.307,-0.168,0.153,0.353,42.0,4.1,-33.5,15.6,181.8,-72.0,-11.1,3.0,1019.2,51.81,23.02454,72.53761999999999,,,,,157.74194,,0 / 0,209,2019-01-03 10:19:58:454,0.19
3,0.062,9.055,4.585,0.728,9.241,3.202,-0.624,-0.212,1.288,-0.095,0.22699999999999998,0.1,42.0,3.5,-33.9,14.7,181.0,-71.2,-13.2,3.0,1019.3,47.6,23.02454,72.53761999999999,,,,,157.74194,,0 / 0,309,2019-01-03 10:19:58:554,0.19
4,0.045,9.562999999999999,3.031,0.5529999999999999,9.234,3.2560000000000002,-0.37,0.18899999999999997,-0.33899999999999997,0.033,0.111,0.008,40.0,3.4,-33.8,14.8,180.3,-70.0,-10.9,3.0,1019.2,47.6,23.02454,72.53761999999999,,,,,157.74194,,0 / 0,409,2019-01-03 10:19:58:654,0.19
5,0.503,8.883,3.2319999999999998,0.53,9.221,3.2960000000000003,-0.027000000000000003,-0.336,-0.069,0.091,-0.11599999999999999,0.012,40.0,3.4,-34.1,14.6,181.3,-70.3,-9.8,3.0,1019.3,47.6,23.02454,72.53761999999999,,,,,157.74194,,0 / 0,509,2019-01-03 10:19:58:754,0.19
6,0.603,9.115,3.733,0.569,9.215,3.305,0.023,-0.102,0.435,-0.004,-0.36200000000000004,-0.04,38.0,3.1,-33.5,14.9,183.5,-70.1,-9.1,3.0,1019.2,47.6,23.02454,72.53761999999999,,,,,157.74194,,0 / 0,609,2019-01-03 10:19:58:854,0.19
7,1.247,9.785,3.9189999999999996,0.7440000000000001,9.238,3.2060000000000004,0.69,0.588,0.61,0.033,-0.648,0.015,38.0,5.6,-33.2,14.9,186.5,-70.4,-11.1,3.0,1019.2,57.68,23.02454,72.53761999999999,,,,,157.74194,,0 / 0,709,2019-01-03 10:19:58:954,0.19
8,0.33799999999999997,9.752,3.9389999999999996,0.845,9.258,3.1210000000000004,-0.153,-0.105,0.138,0.1,-0.5479999999999999,0.057,37.0,5.6,-33.4,16.6,182.2,-70.5,-13.9,3.0,1019.2,57.68,23.02454,72.53761999999999,,,,,157.74194,,0 / 0,809,2019-01-03 10:19:59:054,0.19
9,1.686,8.445,2.495,0.995,9.242,3.1260000000000003,0.537,-0.507,-0.9690000000000001,-0.028999999999999998,-0.521,-0.09300000000000001,37.0,6.8,-34.1,16.2,184.1,-70.4,-17.2,3.0,1019.2,57.68,23.02454,72.53761999999999,,,,,157.74194,,0 / 0,910,2019-01-03 10:19:59:155,0.19
10,0.242,8.387,5.224,0.9790000000000001,9.162,3.3569999999999998,-1.006,-0.665,1.87,-0.37200000000000005,-0.746,-0.408,37.0,8.2,-33.7,14.7,186.6,-69.7,-17.3,3.0,1019.3,56.96,23.02454,72.53761999999999,,,,,157.74194,,0 / 0,1010,2019-01-03 10:19:59:255,0.19
11,1.547,9.326,4.2860000000000005,1.073,9.109,3.469,0.32799999999999996,0.221,0.888,-0.341,-0.444,-0.07,35.0,10.3,-33.2,13.8,192.2,-69.4,-15.9,3.0,1019.2,56.96,23.02454,72.53761999999999,,,,,157.74194,,0 / 0,1109,2019-01-03 10:19:59:354,0.19
12,1.13,8.241,3.8360000000000003,1.256,8.972000000000001,3.7539999999999996,-0.03,-0.8029999999999999,-0.055,-0.266,-0.48700000000000004,0.055,35.0,11.5,-32.8,11.9,194.3,-66.8,-18.0,3.0,1019.2,56.96,23.02454,72.53761999999999,,,,,157.74194,,0 / 0,1209,2019-01-03 10:19:59:454,0.19
13,1.252,8.923,3.819,1.234,8.948,3.818,0.092,-0.066,-0.073,-0.07200000000000001,-0.213,-0.094,34.0,12.3,-34.2,10.4,197.8,-65.9,-17.9,3.0,1019.2,52.49,23.02454,72.53761999999999,,,,,157.74194,,0 / 0,1309,2019-01-03 10:19:59:554,0.19
14,1.137,9.122,3.9189999999999996,1.209,8.978,3.755,-0.237,0.484,-0.207,-0.096,0.218,0.287,34.0,13.8,-34.9,8.4,202.2,-65.9,-17.7,3.0,1019.3,52.49,23.02454,72.53761999999999,,,,,157.74194,,0 / 0,1409,2019-01-03 10:19:59:654,0.19
15,1.985,8.342,4.487,1.2990000000000002,8.923,3.8539999999999996,0.552,-0.39299999999999996,0.6970000000000001,0.111,0.423,0.243,31.0,10.6,-34.3,11.7,193.4,-65.5,-18.6,3.0,1019.3,52.49,23.02454,72.53761999999999,,,,,157.74194,,0 / 0,1510,2019-01-03 10:19:59:755,0.19
0,-0.084,9.22,3.4930000000000003,0.539,9.408999999999999,2.713,-0.562,-0.215,0.909,0.011000000000000001,0.166,0.12300000000000001,38.0,-0.4,-12.8,-46.3,349.2,-73.9,-10.8,3.0,1019.2,53.73,23.02454,72.53761999999999,,,,,157.74194,,0 / 0,8,2019-01-03 10:20:03:539,0.19
1,-0.026000000000000002,9.405,3.388,0.51,9.357999999999999,2.889,-0.29600000000000004,-0.48200000000000004,1.383,0.045,0.027999999999999997,-0.071,35.0,-0.8,-12.7,-45.9,349.1,-72.7,-10.7,3.0,1019.3,53.73,23.02454,72.53761999999999,,,,,157.74194,,0 / 0,112,2019-01-03 10:20:03:643,0.19
2,0.6629999999999999,9.213,2.988,0.485,9.35,2.918,0.17300000000000001,-0.24100000000000002,0.069,-0.06,-0.071,0.113,35.0,-1.3,-12.5,-44.5,351.1,-72.5,-9.0,3.0,1019.3,53.15,23.02454,72.53761999999999,,,,,157.74194,,0 / 0,209,2019-01-03 10:20:03:740,0.19
3,0.33,9.107999999999999,2.658,0.583,9.365,2.85,-0.231,-0.222,-0.147,-0.008,-0.247,0.0,31.0,-1.6,-11.4,-45.5,350.2,-72.7,-11.2,3.0,1019.3,53.15,23.02454,72.53761999999999,,,,,157.74194,,0 / 0,309,2019-01-03 10:20:03:840,0.19
4,0.41200000000000003,9.63,2.3080000000000003,0.627,9.392000000000001,2.752,-0.052000000000000005,0.363,-0.9109999999999999,-0.067,-0.289,-0.01,31.0,-3.3,-11.8,-44.8,350.3,-73.1,-12.4,3.0,1019.2,53.15,23.02454,72.53761999999999,,,,,157.74194,,0 / 0,410,2019-01-03 10:20:03:941,0.19
5,0.46,9.457,3.002,0.715,9.37,2.805,-0.23399999999999999,-0.17800000000000002,0.36,0.084,-0.517,-0.12300000000000001,32.0,-4.7,-11.3,-44.5,351.0,-73.1,-13.2,3.0,1019.2,53.15,23.02454,72.53761999999999,,,,,157.74194,,0 / 0,509,2019-01-03 10:20:04:040,0.19
6,1.2570000000000001,8.842,4.063,0.8909999999999999,9.322000000000001,2.911,0.496,-0.435,0.973,-0.345,-0.6629999999999999,0.13,32.0,-6.1,-11.6,-44.5,350.5,-72.5,-15.9,3.0,1019.2,62.33,23.02454,72.53761999999999,,,,,157.74194,,0 / 0,608,2019-01-03 10:20:04:139,0.19
7,1.456,8.536,4.07,1.022,9.301,2.935,0.309,-0.49700000000000005,0.97,-0.272,-0.455,0.057,32.0,-8.2,-10.3,-45.3,350.1,-71.7,-17.6,3.0,1019.3,62.33,23.02454,72.53761999999999,,,,,157.74194,,0 / 0,708,2019-01-03 10:20:04:239,0.19
8,0.9940000000000001,9.363999999999999,2.859,1.129,9.248,3.062,0.057999999999999996,0.068,-0.16899999999999998,0.046,-0.21600000000000003,0.184,32.0,-9.5,-10.3,-44.5,352.3,-70.6,-19.5,3.0,1019.3,62.33,23.02454,72.53761999999999,,,,,157.74194,,0 / 0,808,2019-01-03 10:20:04:339,0.19
9,1.568,9.237,3.06,1.3630000000000002,9.174,3.1860000000000004,0.706,-0.078,-0.43799999999999994,-0.013000000000000001,-0.019,-0.105,38.0,-10.4,-9.5,-45.6,349.2,-70.3,-21.7,3.0,1019.3,58.74,23.02454,72.53761999999999,,,,,157.74194,,0 / 0,909,2019-01-03 10:20:04:440,0.19
10,1.281,9.283,3.639,1.321,9.204,3.116,-0.055999999999999994,0.191,-0.054000000000000006,-0.149,0.19699999999999998,0.061,44.0,-10.9,-8.2,-46.4,349.2,-69.8,-23.0,3.0,1019.3,58.74,23.02454,72.53761999999999,,,,,157.74194,,0 / 0,1009,2019-01-03 10:20:04:540,0.19
11,1.58,9.654,2.021,1.217,9.249,3.025,0.14800000000000002,0.522,-0.7509999999999999,0.311,0.6859999999999999,-0.068,44.0,-9.2,-9.5,-46.3,349.0,-69.7,-23.0,3.0,1019.3,58.74,23.02454,72.53761999999999,,,,,157.74194,,0 / 0,1108,2019-01-03 10:20:04:639,0.19
0,1.7,9.732999999999999,0.941,1.102,9.554,1.9180000000000001,0.5479999999999999,0.387,-0.91,0.16899999999999998,0.048,-0.065,43.0,3.5,-31.3,19.7,167.9,-76.3,-27.5,3.0,1019.2,39.76,23.02454,72.53761999999999,,,,,157.74194,,0 / 0,13,2019-01-03 10:20:08:394,0.19
1,1.123,10.42,2.7489999999999997,1.117,9.562999999999999,1.865,-0.038,0.8859999999999999,0.9570000000000001,0.027999999999999997,-0.022000000000000002,-0.21600000000000003,43.0,3.3,-31.6,18.9,163.2,-77.1,-31.5,3.0,1019.2,39.76,23.02454,72.53761999999999,,,,,157.74194,,0 / 0,113,2019-01-03 10:20:08:494,0.19
2,0.615,10.335999999999999,2.291,0.993,9.58,1.849,-0.45899999999999996,0.795,1.166,0.223,-0.23600000000000002,-0.087,42.0,4.1,-31.3,20.0,167.6,-77.4,-30.2,3.0,1019.2,52.44,23.02454,72.53761999999999,,,,,157.74194,,0 / 0,213,2019-01-03 10:20:08:594,0.19
3,0.79,9.726,2.2359999999999998,1.063,9.596,1.7169999999999999,-0.244,0.129,0.503,0.085,-0.156,0.11800000000000001,42.0,5.4,-31.1,18.0,168.7,-78.1,-30.5,3.0,1019.2,52.44,23.02454,72.53761999999999,,,,,157.74194,,0 / 0,313,2019-01-03 10:20:08:694,0.19
4,0.013999999999999999,9.363999999999999,2.569,1.111,9.606,1.63,-1.1340000000000001,-0.287,1.03,0.185,-0.012,0.046,42.0,6.1,-31.1,18.2,169.0,-78.2,-32.9,3.0,1019.2,52.44,23.02454,72.53761999999999,,,,,157.74194,,0 / 0,413,2019-01-03 10:20:08:794,0.19
5,0.371,9.275,2.734,1.162,9.58,1.745,-0.752,-0.306,0.897,-0.018000000000000002,0.185,0.002,41.0,5.5,-30.4,17.9,166.9,-78.0,-35.6,3.0,1019.2,42.2,23.02454,72.53761999999999,,,,,157.74194,,0 / 0,514,2019-01-03 10:20:08:895,0.19
6,0.175,9.22,3.4530000000000003,0.8859999999999999,9.511000000000001,2.219,-0.67,-0.331,1.156,-0.048,-0.051,-0.163,41.0,4.7,-31.0,18.8,171.8,-77.2,-29.4,3.0,1019.2,42.2,23.02454,72.53761999999999,,,,,157.74194,,0 / 0,613,2019-01-03 10:20:08:994,0.19
7,0.52,9.383,1.915,0.654,9.527000000000001,2.2319999999999998,0.21899999999999997,-0.28300000000000003,-0.138,0.055999999999999994,-0.054000000000000006,-0.084,38.0,5.5,-30.7,20.4,178.4,-76.1,-16.9,3.0,1019.2,42.2,23.02454,72.53761999999999,,,,,157.74194,,0 / 0,713,2019-01-03 10:20:09:094,0.19
8,0.304,9.68,2.545,0.578,9.54,2.1959999999999997,-0.23,0.094,0.439,0.191,0.015,-0.051,38.0,5.3,-30.5,20.3,179.5,-76.6,-14.7,3.0,1019.2,42.2,23.02454,72.53761999999999,,,,,157.74194,,0 / 0,813,2019-01-03 10:20:09:194,0.19
9,0.831,9.129,2.0709999999999997,0.655,9.543,2.1630000000000003,0.341,-0.499,-0.163,-0.019,-0.41,-0.017,37.0,5.6,-31.2,19.7,180.5,-76.8,-16.1,3.0,1019.2,53.46,23.02454,72.53761999999999,,,,,157.74194,,0 / 0,913,2019-01-03 10:20:09:294,0.19
10,1.8719999999999999,9.033999999999999,2.0780000000000003,0.929,9.503,2.235,1.1740000000000002,-0.774,-0.355,-0.455,-0.631,0.223,37.0,7.0,-30.1,19.8,177.5,-75.7,-22.6,3.0,1019.2,53.46,23.02454,72.53761999999999,,,,,157.74194,,0 / 0,1013,2019-01-03 10:20:09:394,0.19
11,0.005,10.620999999999999,1.401,0.762,9.555,2.072,-0.884,1.0659999999999998,-0.597,0.23199999999999998,0.086,-0.19,36.0,7.5,-30.3,19.6,179.4,-76.5,-21.0,3.0,1019.3,53.46,23.02454,72.53761999999999,,,,,157.74194,,0 / 0,1114,2019-01-03 10:20:09:495,0.19
12,0.024,9.488999999999999,3.508,0.672,9.519,2.26,-0.595,-0.066,1.4080000000000001,-0.021,-0.341,-0.19899999999999998,33.0,7.3,-31.2,19.7,182.1,-76.1,-16.6,3.0,1019.2,59.06,23.02454,72.53761999999999,,,,,157.74194,,0 / 0,1214,2019-01-03 10:20:09:595,0.19
13,1.484,10.075,3.438,0.557,9.498,2.378,0.726,0.762,1.0290000000000001,-0.239,-0.415,-0.271,33.0,10.0,-30.3,19.1,188.7,-76.1,-15.0,3.0,1019.2,59.06,23.02454,72.53761999999999,,,,,157.74194,,0 / 0,1313,2019-01-03 10:20:09:694,0.19
14,-0.5720000000000001,10.001,3.278,0.46299999999999997,9.503,2.375,-1.031,0.191,1.044,-0.405,-0.33299999999999996,0.131,31.0,9.7,-30.6,18.4,189.2,-75.6,-13.2,3.0,1019.2,59.06,23.02454,72.53761999999999,,,,,157.74194,,0 / 0,1413,2019-01-03 10:20:09:794,0.19
15,0.546,9.107999999999999,2.4130000000000003,0.5820000000000001,9.44,2.591,-0.021,-0.33,-0.161,0.08,0.032,-0.013999999999999999,31.0,9.3,-30.5,17.5,191.1,-74.4,-12.5,3.0,1019.2,50.31,23.02454,72.53761999999999,,,,,157.74194,,0 / 0,1513,2019-01-03 10:20:09:894,0.19
16,0.845,9.378,2.8539999999999996,0.54,9.45,2.5660000000000003,0.154,0.266,-0.315,-0.226,0.304,0.136,29.0,10.9,-30.6,16.1,195.0,-74.5,-12.4,3.0,1019.2,50.31,23.02454,72.53761999999999,,,,,157.74194,,0 / 0,1614,2019-01-03 10:20:09:995,0.19
17,0.632,9.732999999999999,2.44,0.565,9.423,2.656,0.002,0.391,0.11699999999999999,0.032,0.225,0.147,29.0,9.4,-31.6,18.2,190.4,-73.9,-11.9,3.0,1019.2,50.31,23.02454,72.53761999999999,,,,,157.74194,,0 / 0,1714,2019-01-03 10:20:10:095,0.19
0,0.515,9.714,2.526,0.428,9.516,2.329,0.051,0.223,-0.021,0.025,0.040999999999999995,-0.094,42.0,-6.7,-12.1,-41.3,359.0,-75.4,-10.3,3.0,1019.2,42.87,23.02454,72.53761999999999,,,,,157.74194,,0 / 0,13,2019-01-03 10:20:14:616,0.19
1,0.19399999999999998,10.638,1.757,0.322,9.547,2.219,-0.051,1.084,-0.44299999999999995,0.026000000000000002,0.162,-0.086,43.0,-6.5,-12.8,-41.7,1.3,-76.8,-8.3,3.0,1019.2,52.31,23.02454,72.53761999999999,,,,,157.74194,,0 / 0,113,2019-01-03 10:20:14:716,0.19
2,0.371,10.269,2.617,0.24600000000000002,9.549,2.221,-0.115,1.197,0.44799999999999995,0.09,-0.013000000000000001,0.065,47.0,-6.7,-12.4,-41.0,1.7,-76.8,-6.8,3.0,1019.2,52.31,23.02454,72.53761999999999,,,,,157.74194,,0 / 0,214,2019-01-03 10:20:14:817,0.19
3,-0.445,9.204,4.154,0.201,9.457,2.589,-0.51,-0.586,1.064,0.23199999999999998,0.07400000000000001,0.054000000000000006,47.0,-6.6,-11.9,-41.6,5.7,-74.6,-4.4,3.0,1019.2,52.31,23.02454,72.53761999999999,,,,,157.74194,,0 / 0,314,2019-01-03 10:20:14:917,0.19
4,0.005,8.425,3.055,0.198,9.419,2.721,-0.18899999999999997,-1.008,0.348,0.009000000000000001,0.07400000000000001,0.154,49.0,-6.9,-12.5,-41.0,7.2,-74.1,-3.4,3.0,1019.2,48.84,23.02454,72.53761999999999,,,,,157.74194,,0 / 0,413,2019-01-03 10:20:15:016,0.19
5,-0.192,8.725,4.2330000000000005,0.2,9.352,2.945,-0.332,-0.723,1.3940000000000001,-0.157,-0.001,-0.092,49.0,-4.7,-11.3,-44.6,2.8,-72.5,-3.9,3.0,1019.2,48.84,23.02454,72.53761999999999,,,,,157.74194,,0 / 0,513,2019-01-03 10:20:15:116,0.19
6,-0.493,9.884,2.782,-0.034,9.329,3.022,-0.466,0.547,-0.242,0.009000000000000001,0.037000000000000005,-0.09,55.0,-4.4,-10.8,-43.9,5.5,-71.9,-1.7,3.0,1019.3,48.84,23.02454,72.53761999999999,,,,,157.74194,,0 / 0,613,2019-01-03 10:20:15:216,0.19
7,-0.218,9.484,3.532,-0.022000000000000002,9.314,3.068,-0.18600000000000003,0.16699999999999998,0.456,0.008,-0.026000000000000002,0.10300000000000001,55.0,-5.9,-10.3,-42.2,9.7,-71.8,0.4,3.0,1019.3,58.6,23.02454,72.53761999999999,,,,,157.74194,,0 / 0,713,2019-01-03 10:20:15:316,0.19
8,-0.115,9.383,2.8680000000000003,0.016,9.317,3.0589999999999997,-0.11699999999999999,0.042,-0.20800000000000002,-0.002,-0.156,0.11900000000000001,78.0,-6.1,-11.6,-42.5,9.4,-71.7,0.1,3.0,1019.3,58.6,23.02454,72.53761999999999,,,,,157.74194,,0 / 0,813,2019-01-03 10:20:15:416,0.19
9,-0.053,9.122,2.5789999999999997,0.094,9.33,3.0180000000000002,-0.209,-0.28,-0.258,0.171,-0.188,-0.004,78.0,-6.9,-10.6,-42.4,8.0,-71.8,-0.9,3.0,1019.2,58.6,23.02454,72.53761999999999,,,,,157.74194,,0 / 0,913,2019-01-03 10:20:15:516,0.19
10,-0.026000000000000002,9.445,3.043,0.21100000000000002,9.336,2.9930000000000003,0.129,0.281,-0.326,0.012,-0.365,0.048,91.0,-6.9,-11.2,-42.9,7.0,-72.2,-3.1,3.0,1019.2,58.6,23.02454,72.53761999999999,,,,,157.74194,,0 / 0,1014,2019-01-03 10:20:15:617,0.19
11,0.06,9.302,4.044,0.285,9.302,3.091,0.5770000000000001,-0.23600000000000002,-0.17,0.048,-0.262,-0.22699999999999998,47.0,-9.1,-10.1,-44.2,4.3,-72.0,-5.3,3.0,1019.2,59.27,23.02454,72.53761999999999,,,,,157.74194,,0 / 0,1114,2019-01-03 10:20:15:717,0.19
12,2.138,8.351,2.722,0.48,9.261000000000001,3.19,1.304,-0.55,-0.9590000000000001,-0.809,-0.42100000000000004,-0.048,47.0,-10.3,-10.2,-43.0,7.5,-71.6,-6.5,3.0,1019.2,59.27,23.02454,72.53761999999999,,,,,157.74194,,0 / 0,1214,2019-01-03 10:20:15:817,0.19
13,0.086,9.963,2.5639999999999996,0.47100000000000003,9.185,3.404,0.377,0.426,-0.183,-0.17800000000000002,-0.125,0.01,52.0,-11.7,-8.8,-44.3,8.0,-69.1,-8.3,3.0,1019.2,59.27,23.02454,72.53761999999999,,,,,157.74194,,0 / 0,1313,2019-01-03 10:20:15:916,0.19
0,0.419,10.092,2.557,0.619,9.443,2.572,-0.2,0.649,-0.015,0.01,0.222,-0.078,43.0,4.0,-32.6,17.1,179.5,-74.1,-13.9,3.0,1019.2,36.54,23.02454,72.53761999999999,,,,,157.74194,,0 / 0,13,2019-01-03 10:20:20:752,0.19
1,0.395,10.329,3.12,0.522,9.456,2.546,0.043,0.894,0.098,0.037000000000000005,0.195,-0.115,43.0,3.7,-33.4,17.9,177.9,-74.4,-13.2,3.0,1019.2,45.35,23.02454,72.53761999999999,,,,,157.74194,,0 / 0,113,2019-01-03 10:20:20:852,0.19
2,0.594,9.491,3.057,0.435,9.434,2.641,0.17600000000000002,-0.07,0.546,0.09,0.221,-0.146,45.0,3.4,-32.9,17.2,180.4,-74.2,-9.3,3.0,1019.2,45.35,23.02454,72.53761999999999,,,,,157.74194,,0 / 0,213,2019-01-03 10:20:20:952,0.19
3,-0.223,9.41,4.662,0.374,9.372,2.862,-0.47200000000000003,-0.099,1.7519999999999998,-0.079,0.152,-0.009000000000000001,45.0,3.7,-33.2,16.6,183.5,-73.5,-8.0,3.0,1019.2,45.35,23.02454,72.53761999999999,,,,,157.74194,,0 / 0,313,2019-01-03 10:20:21:052,0.19
4,-0.036000000000000004,8.971,3.213,0.38,9.36,2.9,-0.41600000000000004,-0.389,0.313,0.019,-0.071,0.268,46.0,3.5,-34.0,16.7,183.8,-72.6,-7.5,3.0,1019.2,52.57,23.02454,72.53761999999999,,,,,157.74194,,0 / 0,412,2019-01-03 10:20:21:151,0.19
5,-0.29,9.017000000000001,4.846,0.425,9.258,3.205,-0.593,-0.345,1.6869999999999998,-0.215,0.222,0.096,46.0,1.8,-34.0,17.6,178.8,-71.9,-8.2,3.0,1019.2,52.57,23.02454,72.53761999999999,,,,,157.74194,,0 / 0,513,2019-01-03 10:20:21:252,0.19
6,-0.237,9.077,2.9589999999999996,0.36,9.193,3.395,-0.465,-0.315,-0.106,0.18,0.021,-0.158,41.0,2.8,-33.8,14.3,177.7,-69.9,-7.3,3.0,1019.2,52.57,23.02454,72.53761999999999,,,,,157.74194,,0 / 0,613,2019-01-03 10:20:21:352,0.19
7,-0.01,9.01,3.7880000000000003,0.261,9.198,3.39,-0.247,-0.18899999999999997,0.395,0.019,-0.081,-0.047,41.0,2.8,-34.4,14.6,184.0,-69.8,-4.5,3.0,1019.2,55.54,23.02454,72.53761999999999,,,,,157.74194,,0 / 0,713,2019-01-03 10:20:21:452,0.19
8,0.369,8.693999999999999,3.29,0.23399999999999999,9.166,3.4789999999999996,-0.203,-0.304,0.299,0.047,-0.406,0.025,41.0,2.8,-34.1,14.5,184.2,-69.7,-4.0,3.0,1019.2,55.54,23.02454,72.53761999999999,,,,,157.74194,,0 / 0,813,2019-01-03 10:20:21:552,0.19
9,0.321,9.115,3.625,0.33299999999999996,9.169,3.4610000000000003,0.09,-0.081,0.379,-0.05,-0.371,-0.026000000000000002,41.0,3.8,-33.8,16.1,185.5,-69.4,-4.9,3.0,1019.2,55.54,23.02454,72.53761999999999,,,,,157.74194,,0 / 0,912,2019-01-03 10:20:21:651,0.19
10,0.599,9.235,4.377,0.49700000000000005,9.113999999999999,3.585,0.084,0.397,0.642,0.171,-0.648,-0.345,41.0,5.2,-32.7,15.0,187.1,-68.9,-6.5,3.0,1019.2,55.54,23.02454,72.53761999999999,,,,,157.74194,,0 / 0,1013,2019-01-03 10:20:21:752,0.19
11,0.426,8.679,6.196000000000001,0.6,9.058,3.71,-0.033,-0.541,0.9440000000000001,-0.282,-1.1340000000000001,-0.318,39.0,6.9,-32.8,15.5,188.8,-67.5,-9.2,3.0,1019.2,55.73,23.02454,72.53761999999999,,,,,157.74194,,0 / 0,1113,2019-01-03 10:20:21:852,0.19
12,1.3980000000000001,8.119,3.886,0.589,9.101,3.6039999999999996,0.32799999999999996,-0.6829999999999999,0.624,0.008,-0.757,0.22699999999999998,39.0,9.4,-34.1,13.9,191.9,-67.0,-9.3,3.0,1019.2,55.73,23.02454,72.53761999999999,,,,,157.74194,,0 / 0,1212,2019-01-03 10:20:21:951,0.19
13,0.917,9.228,3.915,0.677,9.086,3.628,0.551,0.02,-0.09699999999999999,0.40399999999999997,-0.278,-0.098,34.0,9.9,-33.8,12.4,192.8,-67.6,-10.9,3.0,1019.2,55.73,23.02454,72.53761999999999,,,,,157.74194,,0 / 0,1312,2019-01-03 10:20:22:051,0.19
0,0.51,9.718,2.4090000000000003,0.23800000000000002,9.374,2.8710000000000004,0.34,0.335,-0.56,0.027000000000000003,-0.04,-0.081,42.0,1.3,-10.4,-42.4,353.2,-72.7,-4.6,3.0,1019.3,40.39,23.02454,72.53761999999999,,,,,157.74194,,0 / 0,10,2019-01-03 10:20:28:336,0.19
1,0.182,9.747,2.955,0.22899999999999998,9.41,2.7510000000000003,-0.08199999999999999,0.537,0.365,0.013999999999999999,0.038,-0.113,42.0,0.4,-8.9,-42.2,352.9,-73.2,-4.9,3.0,1019.2,40.39,23.02454,72.53761999999999,,,,,157.74194,,0 / 0,110,2019-01-03 10:20:28:436,0.19
2,-0.192,9.891,3.965,0.136,9.39,2.825,-0.306,0.537,0.9490000000000001,0.052000000000000005,-0.018000000000000002,-0.079,43.0,1.0,-9.7,-42.5,354.7,-73.5,-3.3,3.0,1019.2,40.39,23.02454,72.53761999999999,,,,,157.74194,,0 / 0,209,2019-01-03 10:20:28:535,0.19
3,0.129,9.33,4.36,0.171,9.314,3.0639999999999996,0.129,-0.26899999999999996,1.392,-0.078,-0.05,0.165,43.0,1.2,-9.4,-42.7,355.8,-73.0,-2.4,3.0,1019.2,50.62,23.02454,72.53761999999999,,,,,157.74194,,0 / 0,310,2019-01-03 10:20:28:636,0.19
4,-0.6920000000000001,8.703,4.1419999999999995,0.128,9.171,3.471,-0.8390000000000001,-0.382,0.626,0.163,-0.07,0.212,46.0,0.8,-8.9,-43.1,355.2,-70.0,-2.8,3.0,1019.2,50.62,23.02454,72.53761999999999,,,,,157.74194,,0 / 0,410,2019-01-03 10:20:28:736,0.19
5,0.17,8.749,3.0669999999999997,0.172,9.154,3.514,-0.184,-0.326,-0.18100000000000002,-0.134,0.006999999999999999,-0.039,46.0,-0.5,-8.4,-42.8,356.7,-69.1,-2.9,3.0,1019.2,50.62,23.02454,72.53761999999999,,,,,157.74194,,0 / 0,509,2019-01-03 10:20:28:835,0.19
6,-0.35,9.374,4.077,0.003,9.118,3.611,-0.33,0.256,0.467,0.065,-0.175,-0.27699999999999997,53.0,-0.2,-8.2,-43.2,360.0,-68.4,0.0,3.0,1019.2,48.67,23.02454,72.53761999999999,,,,,157.74194,,0 / 0,609,2019-01-03 10:20:28:935,0.19
7,-0.036000000000000004,8.964,2.9619999999999997,-0.165,9.148,3.529,0.26,-0.212,-0.545,0.268,-0.322,-0.341,74.0,-0.9,-8.8,-43.3,2.0,-68.5,1.7,3.0,1019.3,48.67,23.02454,72.53761999999999,,,,,157.74194,,0 / 0,709,2019-01-03 10:20:29:035,0.19
8,-0.433,9.374,3.35,-0.324,9.225,3.3110000000000004,0.032,0.094,0.373,0.099,-0.536,-0.214,74.0,-1.3,-9.5,-42.2,7.9,-70.0,5.4,3.0,1019.2,48.67,23.02454,72.53761999999999,,,,,157.74194,,0 / 0,810,2019-01-03 10:20:29:136,0.19
9,0.244,9.163,3.6510000000000002,-0.28800000000000003,9.26,3.217,0.505,-0.075,0.28800000000000003,0.218,-0.893,-0.317,36.0,-4.3,-9.5,-43.5,10.8,-70.3,5.4,3.0,1019.2,62.94,23.02454,72.53761999999999,,,,,157.74194,,0 / 0,910,2019-01-03 10:20:29:236,0.19
10,0.505,9.45,3.455,-0.28800000000000003,9.33,3.0060000000000002,0.652,0.127,0.8420000000000001,0.11800000000000001,-1.5190000000000001,-0.488,36.0,-7.2,-11.2,-43.7,16.8,-71.9,5.7,3.0,1019.2,62.94,23.02454,72.53761999999999,,,,,157.74194,,0 / 0,1010,2019-01-03 10:20:29:336,0.19
11,0.491,8.738999999999999,3.766,-0.17300000000000001,9.327,3.025,0.774,-0.597,0.584,0.053,-1.949,-0.635,35.0,-13.7,-11.0,-40.7,23.2,-72.1,4.0,3.0,1019.2,62.94,23.02454,72.53761999999999,,,,,157.74194,,0 / 0,1110,2019-01-03 10:20:29:436,0.19
12,-0.713,9.055,3.18,-0.22,9.373,2.877,-0.48200000000000004,-0.387,0.341,0.336,-1.92,-0.45799999999999996,35.0,-20.0,-13.9,-36.7,38.2,-72.7,4.9,3.0,1019.2,58.45,23.02454,72.53761999999999,,,,,157.74194,,0 / 0,1209,2019-01-03 10:20:29:535,0.19
13,-1.075,9.196,2.521,-0.207,9.43,2.6830000000000003,-0.899,-0.047,-0.517,0.5870000000000001,-1.492,-0.408,82.0,-24.2,-14.9,-32.5,46.7,-73.3,4.0,3.0,1019.2,58.45,23.02454,72.53761999999999,,,,,157.74194,,0 / 0,1309,2019-01-03 10:20:29:635,0.19
14,-1.3530000000000002,10.207,2.878,-0.107,9.419,2.7289999999999996,-1.1340000000000001,0.75,0.16,0.004,-0.9590000000000001,-0.09300000000000001,82.0,-26.8,-16.6,-29.0,50.7,-74.3,3.7,3.0,1019.2,58.45,23.02454,72.53761999999999,,,,,157.74194,,0 / 0,1409,2019-01-03 10:20:29:735,0.19
15,-0.6609999999999999,9.342,2.129,-0.021,9.381,2.8569999999999998,-0.475,-0.063,-0.628,-0.21100000000000002,-0.867,-0.045,30.0,-29.6,-17.0,-24.2,59.8,-73.4,1.0,3.0,1019.2,57.71,23.02454,72.53761999999999,,,,,157.74194,,0 / 0,1509,2019-01-03 10:20:29:835,0.19
16,-1.044,9.902999999999999,1.9869999999999999,-0.07200000000000001,9.384,2.847,-1.256,0.828,-1.188,-0.115,-0.23800000000000002,0.001,30.0,-30.9,-16.1,-22.6,61.5,-73.0,0.7,3.0,1019.2,57.71,23.02454,72.53761999999999,,,,,157.74194,,0 / 0,1610,2019-01-03 10:20:29:936,0.19
17,0.601,8.782,0.716,0.013999999999999999,9.355,2.9410000000000003,0.5870000000000001,-0.573,-2.225,-0.242,-0.316,-0.21,30.0,-31.6,-16.4,-22.2,62.7,-72.7,-0.4,3.0,1019.3,57.71,23.02454,72.53761999999999,,,,,157.74194,,0 / 0,1710,2019-01-03 10:20:30:036,0.19
0,-1.3769999999999998,9.402000000000001,4.815,-0.303,9.499,2.419,-1.284,-0.084,2.24,0.047,0.35600000000000004,-0.159,34.0,7.0,-32.2,16.4,196.7,-75.7,4.0,3.0,1019.2,54.93,23.02454,72.53761999999999,,,,,157.74194,,0 / 0,6,2019-01-03 10:20:34:099,0.19
1,0.132,9.048,1.492,-0.23800000000000002,9.542,2.251,0.621,-0.7120000000000001,-0.604,0.16,-0.043,0.429,34.0,6.5,-31.0,17.8,200.1,-76.6,8.7,3.0,1019.2,54.93,23.02454,72.53761999999999,,,,,157.74194,,0 / 0,108,2019-01-03 10:20:34:201,0.19
2,-1.0390000000000001,9.369,4.372,-0.098,9.504,2.417,-0.872,-0.182,1.8619999999999999,-0.195,0.348,0.35200000000000004,32.0,4.7,-31.8,18.1,194.0,-76.2,3.6,3.0,1019.2,54.93,23.02454,72.53761999999999,,,,,157.74194,,0 / 0,207,2019-01-03 10:20:34:300,0.19
3,0.065,9.079,2.313,-0.085,9.464,2.569,0.006,-0.142,-0.37200000000000005,0.218,0.175,-0.13,32.0,3.3,-32.5,17.7,186.9,-74.4,0.5,3.0,1019.2,54.09,23.02454,72.53761999999999,,,,,157.74194,,0 / 0,306,2019-01-03 10:20:34:399,0.19
4,0.244,8.895,3.1889999999999996,-0.115,9.456,2.597,0.254,-0.573,0.631,0.078,-0.23600000000000002,-0.145,32.0,3.2,-32.0,18.7,188.2,-74.9,2.5,3.0,1019.2,54.09,23.02454,72.53761999999999,,,,,157.74194,,0 / 0,407,2019-01-03 10:20:34:500,0.19
5,-0.017,9.16,2.773,-0.11800000000000001,9.454,2.605,0.205,-0.319,-0.079,-0.092,-0.361,-0.085,32.0,4.9,-30.8,16.9,193.3,-74.6,2.6,3.0,1019.2,54.09,23.02454,72.53761999999999,,,,,157.74194,,0 / 0,507,2019-01-03 10:20:34:600,0.19
6,0.098,9.716000000000001,1.76,-0.026000000000000002,9.454,2.6060000000000003,-0.237,0.446,0.215,-0.105,-0.45,-0.057,33.0,6.4,-31.0,17.2,195.0,-74.7,1.7,3.0,1019.2,58.13,23.02454,72.53761999999999,,,,,157.74194,,0 / 0,606,2019-01-03 10:20:34:699,0.19
7,0.14800000000000002,10.044,2.4330000000000003,0.10300000000000001,9.451,2.614,0.165,-0.049,0.122,0.009000000000000001,-0.7390000000000001,0.018000000000000002,35.0,6.5,-32.2,17.0,193.7,-74.7,0.2,3.0,1019.2,58.13,23.02454,72.53761999999999,,,,,157.74194,,0 / 0,707,2019-01-03 10:20:34:800,0.19
8,-0.122,9.776,2.009,0.12,9.482000000000001,2.499,-0.218,0.792,-1.814,0.226,-0.539,-0.065,35.0,9.7,-30.9,16.4,201.2,-75.2,-2.7,3.0,1019.2,58.13,23.02454,72.53761999999999,,,,,157.74194,,0 / 0,807,2019-01-03 10:20:34:900,0.19
9,0.9740000000000001,8.986,4.843999999999999,0.354,9.387,2.815,0.643,-0.488,2.05,-0.634,-0.722,0.161,34.0,9.6,-31.2,15.8,198.8,-74.2,-5.5,3.0,1019.2,54.4,23.02454,72.53761999999999,,,,,157.74194,,0 / 0,907,2019-01-03 10:20:35:000,0.19
10,0.527,8.775,3.287,0.72,9.125,3.52,-0.136,-0.8440000000000001,1.068,-0.08199999999999999,-1.035,-0.18899999999999997,34.0,10.4,-32.6,16.0,193.8,-71.8,-8.8,3.0,1019.2,54.4,23.02454,72.53761999999999,,,,,157.74194,,0 / 0,1006,2019-01-03 10:20:35:099,0.19
11,0.883,9.62,3.182,0.7440000000000001,9.125,3.515,0.214,0.537,-0.545,-0.258,-0.435,-0.15,34.0,14.0,-32.8,11.9,203.6,-68.8,-12.0,3.0,1019.2,54.4,23.02454,72.53761999999999,,,,,157.74194,,0 / 0,1106,2019-01-03 10:20:35:199,0.19
12,0.62,9.017000000000001,2.938,0.69,9.193999999999999,3.341,-0.591,0.257,-0.23800000000000002,-0.077,-0.10300000000000001,0.201,34.0,13.8,-32.8,10.8,205.1,-68.7,-11.4,3.0,1019.2,55.11,23.02454,72.53761999999999,,,,,157.74194,,0 / 0,1207,2019-01-03 10:20:35:300,0.19
13,1.817,8.581,4.346,0.965,9.106,3.511,1.0070000000000001,-0.496,0.586,0.263,-0.008,0.303,31.0,13.0,-33.1,11.6,204.2,-69.6,-11.7,3.0,1019.2,55.11,23.02454,72.53761999999999,,,,,157.74194,,0 / 0,1306,2019-01-03 10:20:35:399,0.19
0,1.595,10.113,1.882,0.8759999999999999,9.593,1.839,0.6859999999999999,0.446,0.102,-0.046,-0.073,0.017,38.0,-9.7,-12.5,-39.6,348.6,-78.0,-24.5,3.0,1019.2,44.4,23.02454,72.53761999999999,,,,,157.74194,,0 / 0,22,2019-01-03 10:20:39:973,0.19
1,0.644,11.244000000000002,1.7,0.7759999999999999,9.631,1.679,-0.06,1.496,-0.557,-0.113,-0.018000000000000002,-0.073,39.0,-9.8,-12.4,-39.4,347.2,-78.2,-25.8,3.0,1019.2,44.4,23.02454,72.53761999999999,,,,,157.74194,,0 / 0,121,2019-01-03 10:20:40:072,0.19
2,0.034,10.033999999999999,4.171,0.716,9.626,1.7309999999999999,-0.591,0.642,1.764,-0.08800000000000001,0.221,0.099,39.0,-8.8,-12.8,-42.4,348.0,-79.0,-23.2,3.0,1019.2,54.53,23.02454,72.53761999999999,,,,,157.74194,,0 / 0,221,2019-01-03 10:20:40:172,0.19
3,0.596,8.674,3.673,0.785,9.612,1.777,-0.078,-0.912,1.4040000000000001,0.664,0.02,0.098,40.0,-10.1,-12.4,-39.7,349.2,-78.3,-22.6,3.0,1019.2,54.53,23.02454,72.53761999999999,,,,,157.74194,,0 / 0,322,2019-01-03 10:20:40:273,0.19
4,0.136,8.979,3.6180000000000003,0.868,9.589,1.864,-0.768,-0.38299999999999995,2.0709999999999997,-0.12,0.221,0.13699999999999998,40.0,-10.7,-13.1,-39.3,349.0,-78.6,-25.9,3.0,1019.2,54.53,23.02454,72.53761999999999,,,,,157.74194,,0 / 0,423,2019-01-03 10:20:40:374,0.19
5,0.96,8.2,3.2969999999999997,0.888,9.507,2.237,0.073,-1.315,0.134,0.128,-0.027000000000000003,-0.153,41.0,-9.7,-12.6,-40.0,349.3,-77.3,-23.8,3.0,1019.2,48.65,23.02454,72.53761999999999,,,,,157.74194,,0 / 0,521,2019-01-03 10:20:40:472,0.19
6,0.47600000000000003,9.599,3.002,0.764,9.498,2.3169999999999997,-0.28800000000000003,0.1,0.685,-0.217,-0.099,0.02,43.0,-10.0,-12.6,-40.7,354.3,-75.9,-18.8,3.0,1019.2,48.65,23.02454,72.53761999999999,,,,,157.74194,,0 / 0,621,2019-01-03 10:20:40:572,0.19
7,0.409,9.548,3.0460000000000003,0.754,9.436,2.5610000000000004,-0.024,0.10300000000000001,0.501,-0.065,-0.35200000000000004,-0.044000000000000004,43.0,-9.4,-11.7,-41.3,354.8,-75.2,-18.0,3.0,1019.2,48.65,23.02454,72.53761999999999,,,,,157.74194,,0 / 0,721,2019-01-03 10:20:40:672,0.19
8,0.958,8.959,3.735,0.883,9.426,2.559,-0.086,-0.158,0.583,-0.06,-0.336,0.158,36.0,-10.6,-11.6,-42.2,356.4,-74.2,-17.9,3.0,1019.2,60.18,23.02454,72.53761999999999,,,,,157.74194,,0 / 0,822,2019-01-03 10:20:40:773,0.19
9,1.446,10.515999999999998,0.8759999999999999,0.8859999999999999,9.457,2.44,0.618,1.011,-1.764,0.306,-0.20199999999999999,-0.23800000000000002,36.0,-13.0,-11.5,-41.9,355.5,-73.6,-20.0,3.0,1019.2,60.18,23.02454,72.53761999999999,,,,,157.74194,,0 / 0,922,2019-01-03 10:20:40:873,0.19
10,0.41700000000000004,9.152999999999999,3.2489999999999997,0.82,9.455,2.471,-0.915,0.151,1.253,-0.299,-0.54,0.254,36.0,-13.0,-12.0,-42.1,358.7,-74.6,-18.4,3.0,1019.2,60.18,23.02454,72.53761999999999,,,,,157.74194,,0 / 0,1021,2019-01-03 10:20:40:972,0.19
0,0.615,9.532,1.381,0.35,9.685,1.4969999999999999,0.262,-0.32299999999999995,-0.1,0.001,0.15,-0.191,37.0,5.4,-30.4,19.6,179.9,-80.5,-14.2,3.0,1019.2,53.99,23.02534,72.5373,,,,,3225.8064,,0 / 0,13,2019-01-03 10:20:50:917,0.19
1,0.397,10.784,1.235,0.247,9.687000000000001,1.505,0.15,1.0959999999999999,-0.26899999999999996,-0.053,0.062,-0.039,36.0,5.6,-31.1,19.9,181.9,-81.1,-11.1,3.0,1019.2,53.99,23.02534,72.5373,,,,,3225.8064,,0 / 0,113,2019-01-03 10:20:51:017,0.19
2,-0.266,11.5,2.0380000000000003,0.195,9.664,1.6540000000000001,-0.475,1.9,0.695,-0.28600000000000003,0.11699999999999999,0.019,36.0,4.9,-30.8,20.0,185.5,-80.6,-7.2,3.0,1019.2,53.99,23.02534,72.5373,,,,,3225.8064,,0 / 0,213,2019-01-03 10:20:51:117,0.19
3,0.067,9.488999999999999,4.748,0.317,9.613999999999999,1.909,-0.18600000000000003,0.035,2.43,-0.32899999999999996,0.09699999999999999,0.212,37.0,4.9,-31.6,19.4,185.1,-79.4,-8.2,3.0,1019.2,58.41,23.02534,72.5373,,,,,3225.8064,,0 / 0,313,2019-01-03 10:20:51:217,0.19
4,-0.14400000000000002,9.29,2.306,0.408,9.606,1.929,-0.513,-0.321,0.389,0.042,-0.012,0.275,37.0,4.2,-31.6,20.0,180.6,-78.5,-10.6,3.0,1019.2,58.41,23.02534,72.5373,,,,,3225.8064,,0 / 0,413,2019-01-03 10:20:51:317,0.19
5,-0.215,9.309,3.608,0.501,9.564,2.112,-0.6609999999999999,-0.504,1.7309999999999999,-0.057,0.135,0.18,33.0,3.4,-31.6,20.6,176.2,-78.0,-13.4,3.0,1019.2,58.41,23.02534,72.5373,,,,,3225.8064,,0 / 0,513,2019-01-03 10:20:51:417,0.19
6,-0.18899999999999997,9.378,2.117,0.376,9.512,2.3569999999999998,-0.44799999999999995,-0.239,-0.066,0.263,-0.008,-0.266,33.0,2.7,-31.5,19.1,178.4,-75.9,-11.1,3.0,1019.2,54.39,23.02534,72.5373,,,,,3225.8064,,0 / 0,614,2019-01-03 10:20:51:518,0.19
7,0.040999999999999995,9.41,2.648,0.266,9.505,2.398,-0.17300000000000001,-0.33299999999999996,0.523,-0.10400000000000001,-0.183,-0.09699999999999999,33.0,3.2,-31.5,20.1,181.3,-76.1,-6.8,3.0,1019.2,54.39,23.02534,72.5373,,,,,3225.8064,,0 / 0,714,2019-01-03 10:20:51:618,0.19
8,-0.163,9.33,2.9189999999999996,0.272,9.488,2.4659999999999997,-0.442,-0.188,0.309,-0.03,-0.344,-0.006,33.0,4.6,-31.5,19.3,186.4,-75.5,-6.0,3.0,1019.2,54.39,23.02534,72.5373,,,,,3225.8064,,0 / 0,814,2019-01-03 10:20:51:718,0.19
9,-0.028999999999999998,9.187000000000001,2.95,0.39,9.457,2.565,-0.366,-0.304,0.418,-0.226,-0.42100000000000004,0.105,34.0,4.6,-31.6,19.8,185.8,-75.3,-6.8,3.0,1019.2,60.28,23.02534,72.5373,,,,,3225.8064,,0 / 0,913,2019-01-03 10:20:51:817,0.19
10,0.249,9.998,3.3760000000000003,0.44299999999999995,9.442,2.611,-0.575,0.08900000000000001,1.129,-0.018000000000000002,-0.382,-0.005,34.0,5.4,-31.3,19.1,183.7,-74.3,-9.6,3.0,1019.2,60.28,23.02534,72.5373,,,,,3225.8064,,0 / 0,1013,2019-01-03 10:20:51:917,0.19
11,0.254,9.601,3.7230000000000003,0.618,9.379,2.795,-0.257,-0.106,1.064,-0.556,-0.643,0.282,34.0,6.9,-31.7,18.4,185.3,-74.3,-10.9,3.0,1019.2,60.28,23.02534,72.5373,,,,,3225.8064,,0 / 0,1113,2019-01-03 10:20:52:017,0.19
12,1.705,8.212,4.736000000000001,1.0390000000000001,9.201,3.2310000000000003,0.642,-0.887,1.425,0.121,-0.395,0.051,32.0,7.9,-32.9,16.3,186.6,-70.6,-16.3,3.0,1019.2,59.54,23.02534,72.5373,,,,,3225.8064,,0 / 0,1213,2019-01-03 10:20:52:117,0.19
13,0.713,9.642000000000001,3.656,1.099,9.242,3.089,-0.34,0.366,0.564,-0.135,-0.542,0.2,32.0,8.0,-32.1,15.2,185.4,-70.5,-19.6,3.0,1019.2,59.54,23.02534,72.5373,,,,,3225.8064,,0 / 0,1313,2019-01-03 10:20:52:217,0.19
0,0.872,11.071,1.063,0.556,9.704,1.305,0.316,1.368,-0.242,-0.012,-0.09300000000000001,-0.028999999999999998,38.0,-8.5,-14.9,-39.7,349.7,-81.2,-21.2,3.0,1019.2,48.97,23.02534,72.5373,,,,,3225.8064,,0 / 0,15,2019-01-03 10:20:55:872,0.19
1,0.05,11.174000000000001,1.13,0.493,9.727,1.149,-0.28300000000000003,1.68,-0.14300000000000002,0.165,0.057999999999999996,-0.11900000000000001,38.0,-8.4,-14.2,-40.0,347.4,-82.7,-23.2,3.0,1019.2,48.97,23.02534,72.5373,,,,,3225.8064,,0 / 0,116,2019-01-03 10:20:55:973,0.19
2,-1.1520000000000001,10.331,4.336,0.418,9.691,1.444,-1.171,0.6990000000000001,2.274,-0.172,0.28,-0.048,40.0,-7.3,-14.3,-41.1,350.4,-82.1,-20.4,3.0,1019.2,56.29,23.02534,72.5373,,,,,3225.8064,,0 / 0,216,2019-01-03 10:20:56:073,0.19
3,-0.42100000000000004,9.024,2.66,0.48200000000000004,9.652999999999999,1.6580000000000001,-0.8490000000000001,-0.688,0.894,0.114,0.192,0.34299999999999997,40.0,-8.4,-13.5,-40.9,354.4,-79.9,-16.2,3.0,1019.2,56.29,23.02534,72.5373,,,,,3225.8064,,0 / 0,316,2019-01-03 10:20:56:173,0.19
4,-0.493,8.595,3.843,0.526,9.587,1.9969999999999999,-0.8759999999999999,-0.792,1.5,0.006,0.252,0.172,45.0,-7.6,-13.2,-41.2,354.6,-78.6,-16.0,3.0,1019.2,56.29,23.02534,72.5373,,,,,3225.8064,,0 / 0,416,2019-01-03 10:20:56:273,0.19
5,0.6609999999999999,9.149,4.14,0.365,9.453,2.582,0.45399999999999996,-0.535,1.6840000000000002,-0.299,0.062,-0.145,45.0,-6.0,-11.5,-43.0,357.7,-75.5,-10.0,3.0,1019.2,56.15,23.02534,72.5373,,,,,3225.8064,,0 / 0,516,2019-01-03 10:20:56:373,0.19
6,0.239,9.211,2.483,0.196,9.421,2.715,-0.064,-0.212,-0.153,-0.061,0.284,-0.145,55.0,-6.2,-11.5,-43.4,1.8,-74.1,-6.5,3.0,1019.2,56.15,23.02534,72.5373,,,,,3225.8064,,0 / 0,615,2019-01-03 10:20:56:472,0.19
7,-0.07200000000000001,9.41,2.332,0.127,9.426,2.701,-0.377,0.09699999999999999,-0.653,-0.105,0.271,0.115,55.0,-5.3,-11.9,-44.5,4.3,-74.0,-2.7,3.0,1019.2,56.15,23.02534,72.5373,,,,,3225.8064,,0 / 0,715,2019-01-03 10:20:56:572,0.19
8,-0.402,9.556000000000001,3.33,0.14800000000000002,9.4,2.7910000000000004,-0.523,0.14400000000000002,0.578,0.136,0.138,-0.078,33.0,-5.1,-11.8,-45.2,3.4,-73.4,-3.3,3.0,1019.2,58.01,23.02534,72.5373,,,,,3225.8064,,0 / 0,815,2019-01-03 10:20:56:672,0.19
9,0.706,9.663,1.338,0.297,9.402000000000001,2.7710000000000004,4.309,-0.6920000000000001,4.1080000000000005,-0.245,-0.374,0.276,33.0,-4.3,-12.8,-46.1,3.1,-73.9,-2.3,3.0,1019.2,58.01,23.02534,72.5373,,,,,3225.8064,,0 / 0,915,2019-01-03 10:20:56:772,0.19
10,-2.081,11.308,-0.6970000000000001,0.444,9.331,2.984,-2.082,1.8769999999999998,-3.4539999999999997,-0.009000000000000001,-0.079,0.18600000000000003,31.0,-7.1,-11.9,-45.4,358.7,-71.4,-10.0,3.0,1019.2,58.01,23.02534,72.5373,,,,,3225.8064,,0 / 0,1015,2019-01-03 10:20:56:872,0.19
0,0.716,9.661,1.5230000000000001,0.384,9.539,2.244,0.301,0.07200000000000001,-1.071,0.052000000000000005,0.14400000000000002,0.09,37.0,4.0,-31.5,19.1,181.6,-76.6,-9.7,3.0,1019.2,41.47,23.02534,72.5373,,,,,3225.8064,,0 / 0,12,2019-01-03 10:21:00:954,0.19
1,0.929,10.999,1.432,0.41,9.581,2.05,0.569,1.3030000000000002,-0.667,0.139,0.076,-0.129,37.0,3.3,-32.1,19.1,178.1,-77.0,-11.5,3.0,1019.2,41.47,23.02534,72.5373,,,,,3225.8064,,0 / 0,112,2019-01-03 10:21:01:054,0.19
2,1.1420000000000001,11.61,2.002,0.42700000000000005,9.617,1.8719999999999999,0.38299999999999995,1.6640000000000001,0.298,0.059000000000000004,-0.057999999999999996,-0.059000000000000004,36.0,3.8,-31.1,20.3,180.0,-77.7,-11.3,3.0,1019.2,53.51,23.02534,72.5373,,,,,3225.8064,,0 / 0,212,2019-01-03 10:21:01:154,0.19
3,0.204,9.666,2.926,0.451,9.595,1.974,0.006,-0.536,0.897,-0.218,-0.129,0.03,36.0,4.3,-31.2,18.8,179.3,-78.5,-12.8,3.0,1019.2,53.51,23.02534,72.5373,,,,,3225.8064,,0 / 0,312,2019-01-03 10:21:01:254,0.19
4,0.335,9.165,3.6630000000000003,0.369,9.536,2.2569999999999997,-0.27399999999999997,-0.262,1.2229999999999999,0.053,-0.212,0.22699999999999998,38.0,4.8,-31.4,18.4,179.6,-77.6,-12.4,3.0,1019.2,53.51,23.02534,72.5373,,,,,3225.8064,,0 / 0,412,2019-01-03 10:21:01:354,0.19
5,0.7829999999999999,9.041,2.95,0.5579999999999999,9.471,2.481,0.309,-0.483,0.509,-0.161,0.172,0.002,36.0,4.1,-32.2,19.4,180.1,-75.6,-11.8,3.0,1019.2,53.51,23.02534,72.5373,,,,,3225.8064,,0 / 0,513,2019-01-03 10:21:01:455,0.19
6,-0.491,9.103,2.61,0.395,9.447000000000001,2.6010000000000004,-0.987,-0.293,0.145,0.309,0.121,-0.114,36.0,3.7,-31.5,18.2,181.7,-74.3,-10.2,3.0,1019.2,53.1,23.02534,72.5373,,,,,3225.8064,,0 / 0,613,2019-01-03 10:21:01:555,0.19
7,-0.096,9.096,2.519,0.297,9.453,2.594,-0.22699999999999998,-0.602,-0.42,0.061,-0.147,-0.12,34.0,3.8,-31.3,20.3,183.3,-74.5,-6.8,3.0,1019.2,53.1,23.02534,72.5373,,,,,3225.8064,,0 / 0,712,2019-01-03 10:21:01:654,0.19
8,-0.019,9.172,3.529,0.21,9.437999999999999,2.656,-0.28800000000000003,-0.22399999999999998,0.912,-0.043,-0.46,-0.049,34.0,4.9,-30.5,18.0,188.0,-74.4,-4.2,3.0,1019.2,53.1,23.02534,72.5373,,,,,3225.8064,,0 / 0,812,2019-01-03 10:21:01:754,0.19
9,0.579,8.2,2.904,0.287,9.376,2.861,-0.18,-0.775,0.349,-0.12,-0.611,-0.485,36.0,6.2,-31.3,19.0,186.7,-73.9,-5.4,3.0,1019.2,58.28,23.02534,72.5373,,,,,3225.8064,,0 / 0,912,2019-01-03 10:21:01:854,0.19
10,0.5870000000000001,9.647,3.201,0.185,9.345,2.969,-0.65,0.47100000000000003,0.004,-0.532,-0.902,0.172,36.0,8.6,-31.7,17.8,196.0,-72.3,-3.6,3.0,1019.2,58.28,23.02534,72.5373,,,,,3225.8064,,0 / 0,1012,2019-01-03 10:21:01:954,0.19
11,-1.446,9.529,5.435,0.304,9.151,3.512,-1.597,0.524,1.078,-0.059000000000000004,-0.561,-0.23199999999999998,35.0,11.6,-32.2,12.9,200.8,-70.3,-6.0,3.0,1019.2,58.28,23.02534,72.5373,,,,,3225.8064,,0 / 0,1112,2019-01-03 10:21:02:054,0.19
12,1.01,8.698,4.81,0.429,9.027000000000001,3.807,0.682,-0.44299999999999995,1.08,-0.556,-0.539,-0.031,35.0,11.5,-32.4,14.2,200.0,-67.9,-6.0,3.0,1019.2,60.8,23.02534,72.5373,,,,,3225.8064,,0 / 0,1212,2019-01-03 10:21:02:154,0.19
13,0.74,8.957,5.255,0.5489999999999999,8.882,4.12,0.5539999999999999,-0.16399999999999998,0.684,-0.45399999999999996,-0.76,-0.14,34.0,12.5,-33.4,12.5,203.4,-66.3,-6.5,3.0,1019.2,60.8,23.02534,72.5373,,,,,3225.8064,,0 / 0,1313,2019-01-03 10:21:02:255,0.19
14,1.652,7.742999999999999,3.9339999999999997,0.72,8.772,4.325,-0.013999999999999999,-0.245,1.1440000000000001,0.203,-0.23600000000000002,0.247,41.0,13.0,-34.2,10.0,204.1,-63.1,-7.9,3.0,1019.2,60.8,23.02534,72.5373,,,,,3225.8064,,0 / 0,1412,2019-01-03 10:21:02:354,0.19
0,1.848,9.988999999999999,1.736,1.6030000000000002,9.408,2.255,0.254,0.541,-0.387,0.326,0.096,-0.21899999999999997,28.0,-5.8,-13.9,-40.8,329.0,-73.6,-35.4,3.0,1019.2,46.83,23.02534,72.5373,,,,,3225.8064,,0 / 0,19,2019-01-03 10:21:05:472,0.19
1,2.344,9.199,1.128,1.5219999999999998,9.482000000000001,1.985,0.755,-0.479,-0.172,0.292,-0.09300000000000001,-0.115,28.0,-5.8,-14.3,-40.6,329.1,-74.4,-35.8,3.0,1019.2,46.83,23.02534,72.5373,,,,,3225.8064,,0 / 0,119,2019-01-03 10:21:05:572,0.19
2,1.6780000000000002,9.637,1.202,1.5130000000000001,9.527000000000001,1.767,0.22,0.028999999999999998,-0.515,-0.038,-0.187,0.027000000000000003,28.0,-5.5,-15.8,-40.6,324.9,-76.3,-39.6,3.0,1019.2,46.83,23.02534,72.5373,,,,,3225.8064,,0 / 0,219,2019-01-03 10:21:05:672,0.19
3,1.575,9.766,0.893,1.4809999999999999,9.578,1.496,0.162,0.147,-0.624,0.271,0.055999999999999994,-0.156,28.0,-5.5,-15.8,-41.2,322.8,-76.5,-41.8,3.0,1019.2,47.98,23.02534,72.5373,,,,,3225.8064,,0 / 0,319,2019-01-03 10:21:05:772,0.19
4,1.3119999999999998,10.832,1.305,1.311,9.629,1.319,0.076,1.16,-0.5579999999999999,0.075,0.023,-0.061,29.0,-5.2,-16.5,-40.9,319.2,-78.7,-44.4,3.0,1019.2,47.98,23.02534,72.5373,,,,,3225.8064,,0 / 0,420,2019-01-03 10:21:05:873,0.19
5,0.32299999999999995,9.948,2.303,1.214,9.629,1.405,-0.87,0.358,0.972,0.21100000000000002,0.004,-0.048,30.0,-5.7,-16.1,-39.8,322.1,-79.0,-43.4,3.0,1019.2,47.98,23.02534,72.5373,,,,,3225.8064,,0 / 0,519,2019-01-03 10:21:05:972,0.19
6,1.111,9.005,2.102,1.197,9.634,1.389,-0.109,-0.499,0.775,-0.17800000000000002,0.047,-0.013000000000000001,30.0,-5.6,-15.3,-38.9,324.3,-79.4,-41.7,3.0,1019.2,50.17,23.02534,72.5373,,,,,3225.8064,,0 / 0,619,2019-01-03 10:21:06:072,0.19
7,0.34700000000000003,9.527000000000001,3.2510000000000003,1.232,9.593,1.6219999999999999,-0.885,-0.066,1.629,-0.20600000000000002,0.171,0.257,32.0,-5.7,-15.2,-39.8,327.3,-78.9,-38.5,3.0,1019.2,50.17,23.02534,72.5373,,,,,3225.8064,,0 / 0,719,2019-01-03 10:21:06:172,0.19
8,0.122,9.777999999999999,2.401,1.1520000000000001,9.567,1.8230000000000002,-0.87,0.066,0.799,0.037000000000000005,0.285,-0.055999999999999994,32.0,-5.8,-15.1,-40.4,331.5,-77.3,-34.2,3.0,1019.2,50.17,23.02534,72.5373,,,,,3225.8064,,0 / 0,819,2019-01-03 10:21:06:272,0.19
9,0.773,8.988,1.915,0.9990000000000001,9.529,2.089,-0.17800000000000002,-0.642,-0.084,-0.11800000000000001,-0.016,-0.207,34.0,-3.8,-13.5,-42.3,336.8,-76.6,-27.8,3.0,1019.2,47.13,23.02534,72.5373,,,,,3225.8064,,0 / 0,920,2019-01-03 10:21:06:373,0.19
10,0.6990000000000001,9.982000000000001,2.832,0.7929999999999999,9.516,2.2319999999999998,-0.204,0.511,0.564,-0.198,-0.037000000000000005,-0.077,34.0,-2.8,-13.8,-43.4,341.7,-76.3,-20.4,3.0,1019.2,47.13,23.02534,72.5373,,,,,3225.8064,,0 / 0,1020,2019-01-03 10:21:06:473,0.19
11,0.615,10.006,2.519,0.8140000000000001,9.504,2.276,-0.13699999999999998,0.363,0.34600000000000003,-0.071,-0.19699999999999998,0.10800000000000001,32.0,-3.1,-12.5,-44.3,343.1,-75.9,-19.2,3.0,1019.2,47.13,23.02534,72.5373,,,,,3225.8064,,0 / 0,1120,2019-01-03 10:21:06:573,0.19
12,0.136,9.45,2.093,0.8340000000000001,9.512,2.2359999999999998,-0.654,0.046,-0.021,0.111,-0.21,0.134,32.0,-4.4,-12.3,-44.4,342.4,-75.7,-19.7,3.0,1019.2,58.47,23.02534,72.5373,,,,,3225.8064,,0 / 0,1219,2019-01-03 10:21:06:672,0.19
13,0.986,9.055,2.162,0.953,9.479,2.326,-0.033,-0.272,0.21899999999999997,-0.17,-0.282,0.034,30.0,-5.0,-11.7,-43.7,343.0,-75.6,-21.8,3.0,1019.2,58.47,23.02534,72.5373,,,,,3225.8064,,0 / 0,1319,2019-01-03 10:21:06:772,0.19
14,1.494,9.886000000000001,1.9509999999999998,1.055,9.458,2.367,-0.057999999999999996,0.767,0.008,0.003,-0.35100000000000003,-0.10099999999999999,32.0,-6.5,-11.2,-45.0,344.7,-74.8,-22.6,3.0,1019.2,58.47,23.02534,72.5373,,,,,3225.8064,,0 / 0,1421,2019-01-03 10:21:06:874,0.19
15,1.48,9.362,2.006,1.103,9.445,2.396,0.377,-0.084,-0.39,-0.349,-0.27,0.25,32.0,-7.3,-11.4,-43.2,343.7,-74.7,-23.9,3.0,1019.2,58.47,23.02534,72.5373,,,,,3225.8064,,0 / 0,1519,2019-01-03 10:21:06:972,0.19
0,1.3019999999999998,9.79,1.59,0.78,9.583,1.932,0.575,0.193,-0.39899999999999997,0.073,0.021,-0.05,34.0,3.7,-31.0,18.9,173.9,-77.3,-20.0,3.0,1019.2,38.56,23.02534,72.5373,,,,,3225.8064,,0 / 0,18,2019-01-03 10:21:10:962,0.19
1,1.214,9.644,1.5630000000000002,0.8690000000000001,9.607999999999999,1.761,0.33799999999999997,0.133,-0.152,0.051,-0.022000000000000002,-0.075,33.0,2.4,-30.7,20.1,166.1,-78.0,-23.7,3.0,1019.2,38.56,23.02534,72.5373,,,,,3225.8064,,0 / 0,117,2019-01-03 10:21:11:061,0.19
2,0.639,10.279000000000002,1.69,0.85,9.624,1.6840000000000002,-0.073,0.519,0.04,0.271,0.05,-0.191,33.0,2.9,-30.5,20.9,165.1,-78.9,-26.8,3.0,1019.2,47.69,23.02534,72.5373,,,,,3225.8064,,0 / 0,218,2019-01-03 10:21:11:162,0.19
3,-0.086,10.24,2.725,0.6890000000000001,9.652000000000001,1.589,-0.261,0.705,0.5760000000000001,-0.20800000000000002,-0.052000000000000005,-0.122,32.0,3.2,-30.2,21.1,165.2,-80.0,-26.4,3.0,1019.2,47.69,23.02534,72.5373,,,,,3225.8064,,0 / 0,318,2019-01-03 10:21:11:262,0.19
4,-0.006999999999999999,9.23,1.784,0.632,9.662,1.557,-0.632,-0.434,0.535,0.09,0.069,0.095,32.0,4.0,-30.8,18.9,171.9,-80.1,-22.1,3.0,1019.2,47.69,23.02534,72.5373,,,,,3225.8064,,0 / 0,418,2019-01-03 10:21:11:362,0.19
5,-0.07400000000000001,9.366,2.531,0.633,9.66,1.564,-0.753,-0.295,1.097,0.16399999999999998,0.14800000000000002,0.255,32.0,2.7,-29.9,21.3,169.6,-80.0,-20.9,3.0,1019.2,47.97,23.02534,72.5373,,,,,3225.8064,,0 / 0,517,2019-01-03 10:21:11:461,0.19
6,0.22699999999999998,9.575,3.2319999999999998,0.713,9.593,1.909,-0.455,-0.07,1.341,-0.314,0.24600000000000002,0.023,32.0,2.0,-30.9,21.5,165.2,-79.3,-23.8,3.0,1019.2,47.97,23.02534,72.5373,,,,,3225.8064,,0 / 0,617,2019-01-03 10:21:11:561,0.19
7,0.599,9.048,2.026,0.564,9.54,2.202,0.013999999999999999,-0.43799999999999994,-0.253,0.079,-0.109,-0.182,32.0,1.7,-30.1,20.5,170.6,-76.7,-15.7,3.0,1019.2,47.97,23.02534,72.5373,,,,,3225.8064,,0 / 0,718,2019-01-03 10:21:11:662,0.19
8,0.5,9.457,2.234,0.47700000000000004,9.548,2.186,-0.051,-0.001,-0.027999999999999997,-0.17300000000000001,-0.325,0.062,29.0,2.3,-31.2,19.0,175.3,-76.8,-12.3,3.0,1019.2,47.97,23.02534,72.5373,,,,,3225.8064,,0 / 0,818,2019-01-03 10:21:11:762,0.19
9,0.215,9.795,2.502,0.505,9.55,2.169,-0.63,0.519,0.331,0.145,-0.10400000000000001,0.055,29.0,2.2,-30.5,20.8,177.0,-76.5,-12.5,3.0,1019.2,55.82,23.02534,72.5373,,,,,3225.8064,,0 / 0,917,2019-01-03 10:21:11:861,0.19
10,0.022000000000000002,9.702,1.9080000000000001,0.536,9.565,2.094,-0.325,0.121,-0.385,0.251,-0.265,0.032,30.0,3.1,-30.3,20.0,175.5,-77.3,-14.4,3.0,1019.2,55.82,23.02534,72.5373,,,,,3225.8064,,0 / 0,1017,2019-01-03 10:21:11:961,0.19
11,0.41700000000000004,9.556000000000001,2.387,0.614,9.583,1.99,-0.040999999999999995,-0.17,0.262,0.151,-0.322,-0.075,30.0,3.7,-30.3,21.2,176.1,-77.8,-16.3,3.0,1019.2,55.82,23.02534,72.5373,,,,,3225.8064,,0 / 0,1117,2019-01-03 10:21:12:061,0.19
12,0.912,9.702,2.9760000000000004,0.733,9.583,1.9469999999999998,0.43799999999999994,0.38,0.182,-0.484,-0.7170000000000001,0.015,30.0,4.7,-30.3,20.8,174.4,-78.4,-20.4,3.0,1019.2,56.21,23.02534,72.5373,,,,,3225.8064,,0 / 0,1217,2019-01-03 10:21:12:161,0.19
13,0.32299999999999995,9.105,2.6910000000000003,0.752,9.556000000000001,2.072,-0.369,-0.596,0.6,0.085,-0.36200000000000004,-0.033,30.0,6.7,-30.2,20.5,177.5,-77.0,-20.0,3.0,1019.2,56.21,23.02534,72.5373,,,,,3225.8064,,0 / 0,1319,2019-01-03 10:21:12:263,0.19
14,1.381,9.074,3.409,0.903,9.478,2.352,0.479,-0.40299999999999997,1.058,-0.402,-0.741,0.027999999999999997,30.0,8.1,-30.8,19.4,182.2,-77.0,-20.0,3.0,1019.2,56.21,23.02534,72.5373,,,,,3225.8064,,0 / 0,1417,2019-01-03 10:21:12:361,0.19
15,0.84,9.677999999999999,2.636,1.04,9.447000000000001,2.416,0.583,0.441,-0.35700000000000004,0.038,-0.015,-0.079,29.0,10.1,-31.1,17.2,185.5,-74.3,-22.8,3.0,1019.2,54.2,23.02534,72.5373,,,,,3225.8064,,0 / 0,1517,2019-01-03 10:21:12:461,0.19
16,0.07400000000000001,9.486,2.006,1.08,9.399,2.5810000000000004,-1.087,0.133,-0.397,-0.276,-0.191,0.263,29.0,10.2,-31.3,15.8,182.4,-74.5,-23.2,3.0,1019.2,54.2,23.02534,72.5373,,,,,3225.8064,,0 / 0,1618,2019-01-03 10:21:12:562,0.19
0,0.594,9.481,3.069,0.457,9.408999999999999,2.725,0.20199999999999999,0.08199999999999999,0.222,-0.008,0.073,-0.077,37.0,-3.5,-10.6,-41.3,355.5,-73.6,-9.5,3.0,1019.2,39.43,23.02534,72.5373,,,,,3225.8064,,0 / 0,8,2019-01-03 10:21:17:109,0.19
1,0.40700000000000003,9.833,1.8459999999999999,0.39899999999999997,9.466000000000001,2.531,0.106,0.485,-0.917,0.171,-0.01,-0.052000000000000005,38.0,-3.1,-11.3,-41.8,354.3,-74.1,-9.2,3.0,1019.2,39.43,23.02534,72.5373,,,,,3225.8064,,0 / 0,108,2019-01-03 10:21:17:209,0.19
2,0.43799999999999994,10.164,2.3890000000000002,0.344,9.51,2.367,-0.423,0.986,0.415,0.046,0.042,-0.133,40.0,-3.6,-11.9,-41.3,354.6,-74.9,-9.0,3.0,1019.2,39.43,23.02534,72.5373,,,,,3225.8064,,0 / 0,208,2019-01-03 10:21:17:309,0.19
3,0.158,10.185,3.158,0.249,9.526,2.316,-0.134,0.7120000000000001,1.113,0.331,-0.034,-0.081,40.0,-2.0,-10.9,-41.5,357.2,-76.2,-6.8,3.0,1019.2,55.53,23.02534,72.5373,,,,,3225.8064,,0 / 0,308,2019-01-03 10:21:17:409,0.19
4,0.113,9.386000000000001,4.13,0.28800000000000003,9.546,2.226,0.787,-0.151,0.4,0.083,0.005,-0.02,41.0,-3.7,-12.6,-40.9,358.4,-76.6,-5.5,3.0,1019.2,55.53,23.02534,72.5373,,,,,3225.8064,,0 / 0,409,2019-01-03 10:21:17:510,0.19
5,-0.409,8.927999999999999,3.3139999999999996,0.34299999999999997,9.524,2.31,-0.664,-0.491,0.912,0.235,0.0,0.17800000000000002,41.0,-1.9,-12.5,-44.6,354.0,-75.9,-7.9,3.0,1019.2,55.53,23.02534,72.5373,,,,,3225.8064,,0 / 0,509,2019-01-03 10:21:17:610,0.19
6,-0.065,9.103,3.153,0.40700000000000003,9.529,2.282,-0.524,-0.423,1.005,-0.013000000000000001,0.228,0.10800000000000001,44.0,-2.2,-13.6,-43.2,351.6,-76.5,-10.2,3.0,1019.2,55.54,23.02534,72.5373,,,,,3225.8064,,0 / 0,608,2019-01-03 10:21:17:709,0.19
7,-0.302,9.096,3.4930000000000003,0.349,9.447000000000001,2.608,-0.584,-0.478,1.206,-0.111,-0.055,-0.16899999999999998,44.0,-1.9,-12.4,-45.1,352.6,-75.0,-9.1,3.0,1019.2,55.54,23.02534,72.5373,,,,,3225.8064,,0 / 0,709,2019-01-03 10:21:17:810,0.19
8,0.493,9.141,2.461,0.259,9.421,2.7119999999999997,0.235,-0.27899999999999997,-0.251,-0.15,-0.153,-0.08199999999999999,49.0,-2.1,-12.2,-44.0,356.8,-73.9,-5.4,3.0,1019.2,55.54,23.02534,72.5373,,,,,3225.8064,,0 / 0,808,2019-01-03 10:21:17:909,0.19
9,-0.038,9.575,2.725,0.252,9.387,2.827,-0.295,0.08,0.317,-0.184,-0.126,0.04,49.0,-3.1,-11.3,-42.5,359.2,-73.6,-4.8,3.0,1019.2,55.01,23.02534,72.5373,,,,,3225.8064,,0 / 0,908,2019-01-03 10:21:18:009,0.19
