ACCELEROMETER_X_mean,ACCELEROMETER_X_std_dev,ACCELEROMETER_X_median,ACCELEROMETER_X_variance,ACCELEROMETER_X_fft,ACCELEROMETER_X_spec,ACCELEROMETER_Y_mean,ACCELEROMETER_Y_std_dev,ACCELEROMETER_Y_median,ACCELEROMETER_Y_variance,ACCELEROMETER_Y_fft,ACCELEROMETER_Y_spec,ACCELEROMETER_Z_mean,ACCELEROMETER_Z_std_dev,ACCELEROMETER_Z_median,ACCELEROMETER_Z_variance,ACCELEROMETER_Z_fft,ACCELEROMETER_Z_spec,GRAVITY_X_mean,GRAVITY_X_std_dev,GRAVITY_X_median,GRAVITY_X_variance,GRAVITY_X_fft,GRAVITY_X_spec,GRAVITY_Y_mean,GRAVITY_Y_std_dev,GRAVITY_Y_median,GRAVITY_Y_variance,GRAVITY_Y_fft,GRAVITY_Y_spec,GRAVITY_Z_mean,GRAVITY_Z_std_dev,GRAVITY_Z_median,GRAVITY_Z_variance,GRAVITY_Z_fft,GRAVITY_Z_spec,LINEAR_ACCELERATION_X_mean,LINEAR_ACCELERATION_X_std_dev,LINEAR_ACCELERATION_X_median,LINEAR_ACCELERATION_X_variance,LINEAR_ACCELERATION_X_fft,LINEAR_ACCELERATION_X_spec,LINEAR_ACCELERATION_Y_mean,LINEAR_ACCELERATION_Y_std_dev,LINEAR_ACCELERATION_Y_median,LINEAR_ACCELERATION_Y_variance,LINEAR_ACCELERATION_Y_fft,LINEAR_ACCELERATION_Y_spec,LINEAR_ACCELERATION_Z_mean,LINEAR_ACCELERATION_Z_std_dev,LINEAR_ACCELERATION_Z_median,LINEAR_ACCELERATION_Z_variance,LINEAR_ACCELERATION_Z_fft,LINEAR_ACCELERATION_Z_spec,GYROSCOPE_X_mean,GYROSCOPE_X_std_dev,GYROSCOPE_X_median,GYROSCOPE_X_variance,GYROSCOPE_X_fft,GYROSCOPE_X_spec,GYROSCOPE_Y_mean,GYROSCOPE_Y_std_dev,GYROSCOPE_Y_median,GYROSCOPE_Y_variance,GYROSCOPE_Y_fft,GYROSCOPE_Y_spec,GYROSCOPE_Z_mean,GYROSCOPE_Z_std_dev,GYROSCOPE_Z_median,GYROSCOPE_Z_variance,GYROSCOPE_Z_fft,GYROSCOPE_Z_spec,MAGNETIC_FIELD_X_mean,MAGNETIC_FIELD_X_std_dev,MAGNETIC_FIELD_X_median,MAGNETIC_FIELD_X_variance,MAGNETIC_FIELD_X_fft,MAGNETIC_FIELD_X_spec,MAGNETIC_FIELD_Y_mean,MAGNETIC_FIELD_Y_std_dev,MAGNETIC_FIELD_Y_median,MAGNETIC_FIELD_Y_variance,MAGNETIC_FIELD_Y_fft,MAGNETIC_FIELD_Y_spec,MAGNETIC_FIELD_Z_mean,MAGNETIC_FIELD_Z_std_dev,MAGNETIC_FIELD_Z_median,MAGNETIC_FIELD_Z_variance,MAGNETIC_FIELD_Z_fft,MAGNETIC_FIELD_Z_spec,ORIENTATION_Z_mean,ORIENTATION_Z_std_dev,ORIENTATION_Z_median,ORIENTATION_Z_variance,ORIENTATION_Z_fft,ORIENTATION_Z_spec,ORIENTATION_X_mean,ORIENTATION_X_std_dev,ORIENTATION_X_median,ORIENTATION_X_variance,ORIENTATION_X_fft,ORIENTATION_X_spec,ORIENTATION_Y_mean,ORIENTATION_Y_std_dev,ORIENTATION_Y_median,ORIENTATION_Y_variance,ORIENTATION_Y_fft,ORIENTATION_Y_spec,PRT_X_mean,PRT_X_std_dev,PRT_X_median,PRT_X_variance,PRT_X_fft,PRT_X_spec,PRT_Y_mean,PRT_Y_std_dev,PRT_Y_median,PRT_Y_variance,PRT_Y_fft,PRT_Y_spec,PRT_Z_mean,PRT_Z_std_dev,PRT_Z_median,PRT_Z_variance,PRT_Z_fft,PRT_Z_spec,OUT
0.59308,0.6759445492050365,0.564,0.4569010336,30.378186416960624,0.2072335605077949,9.857619999999999,1.9581241420298152,9.6425,3.8342501556000004,492.88479509519044,2.8269857559213563,1.0476999999999999,1.1435936559810045,0.9650000000000001,1.30780645,52.50220043662491,0.22513848123286725,0.62062,0.34400220289992334,0.67,0.11833751560000001,32.74294725754813,0.02204606673312945,9.70982,0.040571758650568765,9.712499999999999,0.0016460676000000013,485.4918096750795,0.000651887033481115,1.1447,0.2720762576925815,1.1015,0.07402549,57.473927171176925,0.03451519046739599,0.005300000000000018,0.6197770002186269,0.111,0.38412352999999994,4.361111721047486,0.21292439139352531,0.12892,1.9359190255793242,-0.2065,3.7477824736,7.0622582486093375,2.7540093577264937,-0.14122000000000004,1.102860522278316,-0.2165,1.2163013316,9.374221048134986,0.1993046764449829,-0.006119999999999999,0.27491574272856767,0.02,0.0755786656,1.4967308972664795,0.015294734762715395,-0.09194000000000001,0.3220714461109522,-0.1105,0.10373001639999999,5.7283577195872395,0.010533785786785786,-0.025379999999999993,0.20620862154623895,-0.029500000000000002,0.0425219956,1.401954068696711,0.020796803240718552,25.381999999999998,2.1579332705160277,24.700000000000003,4.656675999999999,1270.4709178282642,3.7608480720814312,-23.950000000000003,1.4918780110987626,-24.3,2.2257,1198.2102995089358,0.08978953259306358,-26.494,2.817332781195718,-27.05,7.937364,1326.8819101548727,5.075217438995348,283.20799999999997,15.190494922812752,281.29999999999995,230.751136,14167.692592592166,6.840440913299721,-82.07,1.7313867274528816,-82.05,2.997699999999999,4103.709784721299,0.8307302287164098,-27.976,13.629549662406312,-29.25,185.764624,1451.8418261538566,40.980419158473985,-0.011352220845638144,0.8698794547908597,0.15015256390439966,0.7566902658672433,5.568914504483321,0.19792060629965771,0.13737731075309528,0.924349098821228,0.4161281170416964,0.8544212564916163,8.55395868812312,0.210414275543046,9.935678777505323,1.9680506064234122,9.655727645163779,3.8732231894435607,496.7860148029658,2.8662701800635233,0.0
0.18736,0.7404663330631582,0.2505,0.5482903904,14.62242858105452,0.07912053857098512,9.787719999999998,1.8768757022243108,9.85,3.5226624016,489.4283367734047,0.9160118418928604,0.8984000000000001,1.142168166252238,0.982,1.30454812,45.320040485984954,0.21442768335747558,0.27666,0.24279230712689392,0.2645,0.058948104399999986,15.34804456645685,0.00810621393141797,9.749360000000001,0.03379275662031744,9.753499999999999,0.0011419504000000085,487.4685211446828,0.00042389397040632534,0.9303199999999999,0.3432824166775805,0.966,0.11784281760000001,46.929144067688995,0.03433692115526766,-0.07251999999999999,0.703230182514943,0.104,0.49453268959999996,10.729470029717774,0.0839203845013331,0.07643999999999998,1.886916375041565,0.11299999999999999,3.5604534064,9.936527322444537,0.8879519357881864,-0.042799999999999984,1.1146284403333695,-0.172,1.24239656,5.820724681898801,0.19811035422453754,0.010639999999999993,0.26973348030973093,0.0245,0.0727561504,1.1315225621877367,0.023228287889803974,0.06144000000000002,0.39721395544466964,0.0835,0.15777892640000002,8.099383746799083,0.012058004206640065,-0.0051600000000000005,0.18960742179566706,-0.025500000000000002,0.035950974399999995,0.8992167224043085,0.0032015728135785498,27.334,4.192260011020309,25.85,17.575044000000002,1373.7552246198295,0.6086552815058587,-23.305999999999997,1.3164209053338525,-23.5,1.732964,1165.8581969447487,0.1931842124811936,-23.832000000000004,6.255891303403536,-25.75,39.136176,1210.3905714765338,0.5269200969602571,290.718,12.110403626634415,289.75,146.661876,14538.613052862753,17.751301422859925,-84.11200000000001,2.1081404127808936,-84.1,4.444255999999997,4205.8560031024135,1.3029297621961409,-16.874000000000002,13.647810227285548,-15.6,186.262724,907.4538170983244,19.785041097929483,-0.08801858864407468,0.8575559134248275,-0.004592967359209209,0.7354021446498902,11.332203047164413,0.10167595723274757,0.05055854349901139,0.9827001377553303,0.10931038555354936,0.9656995607443452,4.710905122702315,0.21082443607088353,9.832564396196227,1.9043272541746683,9.83232174186077,3.6264622909924316,491.6734169877945,0.9268829499571771,0.0
0.10747999999999999,0.6923860553188517,0.023000000000000003,0.4793984496,10.768436468430295,0.19560826269092366,9.80322,1.9408489512581857,9.8995,3.7668946515999995,490.2061236948864,2.3529984688208,0.7281400000000001,0.9978335334112599,0.717,0.9956717603999999,37.36585863676181,0.47757810808144424,0.2229,0.19444611078651072,0.20600000000000002,0.03780929,12.715980943333633,0.02659351296964642,9.777120000000002,0.020805422370141925,9.777999999999999,0.00043286560000000204,488.8563030425837,0.00018405167769990966,0.63942,0.2839228127502262,0.6579999999999999,0.0806121636,32.79232549441814,0.020561093785326143,-0.11392,0.7163290260767045,-0.139,0.5131272736,10.719702048790941,0.24108713756827302,0.07433999999999999,1.9723854654706823,0.21550000000000002,3.8903044243999996,7.882734211588286,2.302015813826753,0.07870000000000003,1.0442590148042774,0.15500000000000003,1.09047689,8.671158033260827,0.47128573968944126,0.01512,0.2317292074814912,0.020999999999999998,0.0536984256,1.3350948088477321,0.017597723517768983,0.08148000000000001,0.3804080041218902,0.063,0.1447102496,8.952357995199929,0.05042582297632818,0.010760000000000002,0.16154201434920887,0.0,0.026095822400000003,0.8381648123354031,0.013790387058468025,31.072000000000003,3.7050257758887453,32.8,13.727216,1558.061192681722,10.042263356801179,-24.464000000000002,1.2507213918375268,-24.8,1.5643040000000001,1223.7865714366737,0.25168817085029,-17.168000000000003,6.041007862931482,-14.600000000000001,36.493776,881.1910180877644,15.551795248287043,275.774,19.168816447553564,275.55,367.443524,13794.982275055097,26.270406972138346,-85.88600000000001,1.7308968773442277,-85.55,2.996003999999999,4294.560297698306,0.634910089326443,-20.406,18.629454205638982,-18.35,347.056564,1100.4650034698275,115.69528613142651,-0.11473234959380553,0.8078550095454073,-0.1746232905108394,0.6526297164476103,11.434099566898206,0.37910289525198804,-0.06956595012552817,0.8826644936314227,-0.0687181839556501,0.779096608317616,7.361782270698359,0.2518168072370202,9.828222859283306,1.9603910859916929,10.000400634728331,3.8431332100356888,491.4576117646377,2.4513005281511355,0.0
0.35524,0.950739071670035,0.41300000000000003,0.9039047824,20.221990273753562,0.10522196275962273,9.9641,1.606716082573396,10.008,2.58153657,498.21968117273616,1.5874593766897285,0.41576,0.9414326860694819,0.28049999999999997,0.8862955023999998,22.71523912759984,0.10507616852425725,0.20078000000000004,0.271700002944424,0.265,0.0738208916,12.6363582451823,0.0038750399301542508,9.78962,0.012001483241666387,9.793,0.00014403559999999913,489.4810631363465,7.814393211709775e-05,0.31754,0.34212449254620747,0.3335,0.11704916839999999,19.189128758428147,0.030667785651395135,0.14874,1.0019281173816812,0.13,1.0038599524,13.56697212491648,0.11264130678683269,0.21744,1.6028905909013251,0.21550000000000002,2.5692582463999996,11.7977812782547,1.620665230593538,0.11370000000000001,1.0702960945458038,-0.029,1.14553373,9.472210471986967,0.2165570212562165,0.011339999999999996,0.24965981735153134,0.027,0.06233002439999999,1.8031720866295906,0.02339664722487363,0.07909999999999999,0.5208544614381257,0.04050000000000001,0.27128937000000003,10.527471821994869,0.025982332048943815,-0.024640000000000006,0.1278830340584708,-0.0245,0.016354070399999997,1.7791531583251732,0.004308766142970378,31.875999999999998,1.5228341997735664,32.6,2.3190239999999984,1594.3517022654396,0.024200326451522036,-25.023999999999997,0.9201217310769264,-25.25,0.8466239999999996,1251.3233982667089,0.04552031473849651,-12.798000000000002,6.6323899161614435,-14.600000000000001,43.988596,660.8427849711574,0.3283419407523846,238.45600000000002,61.5925974772943,258.0,3793.648064,11996.271261980792,100.11639807822351,-86.874,1.3008935390722802,-86.95,1.6923240000000022,4343.784265769788,1.1013391405922583,-22.656000000000002,61.66549167889606,-29.35,3802.6328639999997,1700.8078457765935,98.7671046325313,0.1656675377233286,0.8239876388051744,0.197078719714642,0.6789556289037266,11.050316716661268,0.03144758528120634,0.17685520967756962,1.1010216219975093,0.06620385093170915,1.212248612106026,18.36594031000053,0.15727042640741073,9.969722471594356,1.6151729319584824,10.11745032300761,2.6087836001313605,498.5021836866318,1.606327684873616,0.0
0.17287999999999998,1.0747629439090278,0.195,1.1551153856,11.221440111933013,0.2048883816184786,9.95426,1.590730031274949,9.915,2.5304220324000006,497.73443473472656,1.1718112592484646,0.46870000000000006,1.1308347226717086,0.28049999999999997,1.27878717,27.561510462264113,0.2621389164023872,0.1703,0.3231225309383423,0.3055,0.10440817,11.141565900737053,0.005373621582253033,9.78366,0.02335346655209876,9.7955,0.0005453843999999955,489.18351509989446,4.164748039281146e-05,0.30796,0.4700901598629778,0.21750000000000003,0.22098475840000004,21.345226908981775,0.03468868602718154,-0.0028800000000000063,1.150448375895242,0.01,1.3235314656,7.529313145997396,0.2192531651145401,0.20914,1.5754190300996112,-0.0035,2.4819451203999994,11.248385357051296,1.1640057667367436,0.18355999999999997,1.1926600380661707,-0.096,1.4224379664,11.1419730888485,0.3866525291175884,0.01726,0.25512238710077956,0.01,0.0650874324,1.8470347168407089,0.016338170351591227,0.07585999999999998,0.8343456360525894,0.184,0.6961326404,12.811635550382542,0.03295395028594222,-0.01676,0.18234095096823422,-0.044,0.0332482224,1.400182260902172,0.008198873723056494,32.656,3.1315912887859425,32.7,9.806864000000001,1634.7878127339252,0.35337140963918395,-23.674,1.5788362803026792,-23.75,2.492724,1184.5635320847784,0.25135400817706977,-12.258000000000003,8.262519954590125,-14.350000000000001,68.269236,648.2167339168586,1.0741661456421747,223.49200000000002,74.66533289284926,243.25,5574.911935999999,11241.680856497402,316.7188563625821,-86.52199999999999,1.8070185389198414,-87.1,3.2653159999999986,4326.440281516208,0.5760900871439025,-22.432000000000002,74.41745343667708,-31.700000000000003,5537.957376,1567.6278498004833,380.8380740515111,0.1996238639256315,0.9842702059351788,0.22831119550299894,0.9687878382916792,16.25444418673439,0.15079661336986805,0.4098950509340099,1.1976782907867392,0.5868037657979747,1.4344332882218447,25.546507690436105,0.3457175596471296,9.954632606882425,1.6110210475505466,9.86005370415155,2.5953888156508604,497.7564891827357,1.1852933453997776,0.0
0.31678000000000006,1.1344380333892197,0.39549999999999996,1.2869496516,29.608594654638924,0.36241537653656797,9.933679999999999,1.9283825703423068,9.7795,3.7186593376000014,496.71274286856664,1.0072603264831752,1.18446,1.3591953974318778,0.8740000000000001,1.8474121284,61.48130621048324,0.3571871260614137,0.29332,0.3533939127942076,0.402,0.12488725760000001,18.362445620724188,0.03977218309087824,9.714920000000001,0.06937804840149377,9.721,0.004813313600000011,485.7498322524268,9.038850103056391e-05,1.05552,0.6783948478577944,1.2125,0.4602195696,56.445979958966674,0.08136306794021281,0.057760000000000054,1.1118385595040317,0.12,1.2361849824000002,22.037719663585,0.5015127826766299,0.22576000000000002,1.87078918705449,0.0085,3.4998521823999997,12.835960921876262,0.9449459374657992,0.09787999999999997,1.2711886664063679,-0.075,1.6159206255999998,16.130077827473627,0.3523489307323692,-0.00012000000000000232,0.28942837732330257,-0.0475,0.08376878559999999,1.6594745127178938,0.022844769618891834,-0.05832,0.8316938244330061,0.07200000000000001,0.6917146176,21.31922979983606,0.6268315979768063,0.003699999999999999,0.23322549174564944,0.0055,0.05439413,2.5391707240298103,0.02201152932465729,33.112,3.1243328887940223,33.95,9.761456,1657.7413719645783,8.277241055444,-25.236,2.9103099491291307,-25.0,8.469904000000003,1265.4127309611465,0.9139444822423988,-2.8539999999999996,12.336793910899216,-4.8,152.19648399999997,440.6205310332369,32.51082798795871,235.776,51.533156549933935,246.95,2655.666223999999,11824.693954202236,3378.3387652084502,-82.93799999999999,3.3759081741066357,-82.95,11.396755999999998,4148.098154999756,0.54364310205216,-19.648000000000003,45.50713895643189,-20.1,2070.8996960000004,1316.5850847565766,2663.0568132151275,0.1687233173507779,1.21576966402167,0.33104192894454937,1.4780958759553642,23.318770028941888,0.24259363147921537,0.14297945020850847,1.1476275521932566,0.32163592594851115,1.3170489985530858,17.22918286608344,0.4360558082733415,10.017288531553195,1.9606604601777993,9.834532699273216,3.8441894401046195,500.914231601525,1.0326112315080271,0.0
0.84272,1.08112521087985,0.9515,1.1688317216,46.58710985997351,0.6480345385597933,9.75784,2.155465484390785,9.7125,4.6460314544,487.9064311212866,1.5198657732145242,1.47152,1.3293133601976623,1.1875,1.7670740096,73.89838111371736,0.10998848349722534,0.73118,0.44493975727057705,0.8435,0.19797138760000002,39.33951259120764,0.04344279766156216,9.660540000000001,0.047215340727352575,9.6695,0.0022292883999999987,483.0270342530246,0.0014198624289537103,1.4064599999999998,0.36041455076064843,1.3864999999999998,0.1298986484,70.66742434954271,0.05393801543451137,0.13916000000000003,1.0605785658780778,0.3145,1.1248268944,19.929548476955272,0.7551648736262154,0.08469999999999998,2.1000329735506535,0.028,4.4101384900000005,5.732469130378916,1.3301133661008584,0.05797999999999996,1.326293474160225,-0.076,1.7590543795999998,12.005918767367824,0.1546748120059535,-0.006020000000000002,0.2820441447717006,-0.040999999999999995,0.07954889959999999,0.6693732632077428,0.042752772471214125,-0.15742000000000003,0.6128851145198422,-0.22699999999999998,0.37562816360000006,18.11816540132385,0.06400535110252792,-0.0141,0.22087999003984043,-0.0035,0.04878797000000001,3.2059014398569032,0.016338345459539105,28.704,5.303657605841463,30.299999999999997,28.128783999999996,1445.4469230674351,1.7783440368066967,-25.785999999999998,2.3297218718121697,-25.15,5.427604,1291.4912279081357,0.6544958661903875,-9.952000000000002,18.582908706658387,-8.75,345.324496,810.0104899933124,13.559250867233406,253.012,21.292708986880935,256.25,453.3794560000001,12670.65260824612,131.7015743161059,-80.23,1.6620770138594658,-80.35,2.762499999999999,4011.508966367976,1.86867288463998,-27.498,17.987256488970182,-30.55,323.5413959999999,1487.3592605253705,76.57110778554663,0.04464999515606528,1.2933754317636443,0.4258099547081948,1.6728200074897932,17.289693103856898,0.6948841733860003,-0.017925978797579095,1.0643005517597466,0.14832174601275155,1.132735664476101,12.601162248793718,0.20498209403300693,9.902571221137862,2.1918346962175366,9.909190110030114,4.804139335543021,495.15265650652896,1.4354963701796981,0.0
0.68982,0.9997924122536639,0.7275,0.9995848676000001,36.33292761116404,0.2627299790423873,9.67948,2.0761886931586924,9.7915,4.310559489599999,484.03009340906334,2.6085308087224752,1.40452,1.525743913505802,1.1265,2.3278944896000002,72.2590304277434,0.2752655936882099,0.8142,0.4125060484405047,0.94,0.17016124000000002,42.836631030180556,0.014933034623053558,9.6549,0.07547774506435649,9.6735,0.00569688999999999,482.7482810260527,0.0010503624144572892,1.3483999999999998,0.5439951470371771,1.2935,0.29593072,69.11727726210466,0.061169291704605666,-0.12057999999999999,0.8782057182687892,-0.1795,0.7712452836000001,7.684936982082895,0.3195475957306173,0.01807999999999998,2.0475701095689005,0.11499999999999999,4.1925433536,4.936273634550225,2.511980264337795,0.05115999999999999,1.4771265532783575,-0.12200000000000001,2.1819028544,6.945076406701603,0.2966151723778623,-0.004620000000000003,0.2804965518504639,-0.0175,0.07867831559999999,2.694579285761079,0.01857527666894749,-0.0065400000000000015,0.5879600738145405,0.023500000000000004,0.3456970484,13.412339568200107,0.11132696236076584,-0.007440000000000002,0.21573086566367825,-0.042,0.046539806399999994,0.9099441677459088,0.00917258943949659,28.142,5.572471265067232,27.7,31.052435999999997,1420.0906113095696,16.005807694027407,-24.291999999999998,1.3570320556272797,-24.15,1.841536,1215.1511279059011,0.4216526702163902,-22.882,8.076724336016428,-24.55,65.23347600000001,1176.5705491029769,30.44082057604214,268.566,13.989290332250595,269.25,195.700244,13433.08361955739,53.85018208995589,-80.24,2.342818815017499,-80.4,5.488799999999999,4012.3761088923798,0.9803465857345908,-33.934,19.334328123831973,-38.0,373.8162439999999,1800.854321963375,45.49966382826894,-0.12278824645758338,1.1547756201649384,0.29028442137274013,1.333506732927318,8.409872163216997,0.2531697950134279,0.04740572537264553,1.178936356915932,0.3209911400672002,1.3898909336582097,8.864318644282589,0.3022326343121451,9.8228258836627,2.133136122331233,9.99206343669939,4.550269716394329,491.1775903136473,2.6606500777547653,0.0
0.33692000000000005,1.2250689097352851,0.46199999999999997,1.5007938336000002,22.53384600091687,0.17384438792066617,9.803339999999999,2.1995574610361968,9.9,4.8380530244,490.2255037867665,1.333669589728455,1.4724800000000002,1.7496548029825767,1.271,3.0612919295999994,78.08855658397866,0.4709583479355392,0.40926000000000007,0.40961468772493986,0.35350000000000004,0.1677841924,24.076360368806714,0.031044020453712084,9.645280000000001,0.10772781256481534,9.669,0.011605281599999986,482.2750794206735,0.0012209821222867617,1.46906,0.7964420734742735,1.5939999999999999,0.6343199764,77.29014175442923,0.11536383373194957,-0.04379999999999999,1.0722659931192446,-0.0155,1.14975436,4.831850574206122,0.194570599033951,0.16327999999999995,2.176632261453459,0.2885,4.7377280016,10.134428042866437,1.1862567795556394,-0.017639999999999947,1.5323506616959448,-0.15800000000000003,2.3480985504,5.420860586480065,0.3373898966144814,0.013240000000000012,0.38809280127309753,-0.057,0.1506160224,2.8523619740325605,0.03173333752745697,0.10422000000000001,0.5020927918223882,0.107,0.2520971716,9.747014990788648,0.06157265282337342,0.012279999999999998,0.22932597236248667,0.041499999999999995,0.0525904016,1.5181415251542265,0.009803612866174245,33.264,3.7798814796234024,34.7,14.287504000000002,1667.5225582602152,6.590229145102907,-24.595999999999993,1.887745745591816,-24.75,3.5635840000000014,1231.0422960682536,0.37965653464510185,-15.89,5.982382468548797,-14.9,35.7889,812.7551696287597,21.501692775203548,262.55799999999994,38.16048788996284,273.3,1456.2228360000001,13152.315287013018,86.96354237827248,-80.366,3.8089688893452527,-80.0,14.508244000000007,4019.8238285736534,2.013478452119177,-19.985999999999997,40.969007847396064,-11.600000000000001,1678.4596040000001,1238.96656697811,167.70280679746102,0.11994207112833653,1.2390265680793908,0.25096425708634,1.535186836406593,16.05991844481113,0.2776805918712936,0.05629505141174745,1.24714602420732,0.22978166052881205,1.5553732056961254,8.8894511252436,0.289726107117669,9.972730159509121,2.2855774478836737,10.149597871717246,5.223864270274448,498.6689315653103,1.4243582778343598,0.0
0.50634,1.2163531495416946,0.6035,1.4795149844000002,30.059669198258643,0.4727338764480178,9.711500000000001,2.237133569995319,9.777000000000001,5.004766610000001,485.59421962667784,2.3352919835972,1.1116000000000001,1.720364333506133,0.9664999999999999,2.9596534400000007,59.769693441995784,0.9483076446236812,0.43310000000000004,0.3389097962585324,0.476,0.11485984999999996,23.08221172893129,0.022676034574445014,9.68606,0.0983785362769745,9.713000000000001,0.009678336399999989,484.3118713363628,0.003907298299906751,1.2376800000000001,0.7126226614415233,1.091,0.5078310576,65.45771721119726,0.10287432903995886,0.08084000000000005,1.0641672304670915,0.08449999999999999,1.1324518944,9.373655079872263,0.40780824248364145,0.07466,2.233534397406944,0.2315,4.988675904400001,4.55232729123439,2.3071123500611006,-0.06684,1.5865628050600453,-0.253,2.5171815343999997,6.406231285793725,0.6327683047267342,0.023240000000000018,0.41777278800802714,-0.041,0.1745341024,2.9937971950846083,0.05522038640735907,-0.08684000000000001,0.45763371204490605,-0.1295,0.2094286144,6.418331634509955,0.06628760675412237,0.0010800000000000033,0.22827359374224604,0.049,0.052108833599999994,1.4144564918372429,0.011181509831375943,34.300000000000004,1.761476653265663,34.5,3.1028000000000002,1715.6899691362967,0.324891549709716,-25.14,1.84499322491981,-25.4,3.4040000000000004,1258.1407044021498,0.5044451497219578,-17.35,6.6648105749526,-15.8,44.419700000000006,894.3187491524686,2.3314983354704677,261.654,36.955060330082,269.75,1365.6764840000003,13110.217936286648,20.638391185106702,-81.77399999999999,3.6729720935504,-81.95,13.490724000000007,4090.151633855538,3.0535327977851403,-22.541999999999998,38.94707737430371,-22.799999999999997,1516.874836,1249.2630257755923,20.37008338190153,0.32427979082315794,1.2640104010312354,0.3980382074675577,1.5977222939151445,20.776424124401146,0.4357987086185847,0.0455590488632687,1.1313110042355836,0.12008305985722963,1.2798645883045245,6.315650312890877,0.3407545811019179,9.843304369612936,2.3181331357947452,10.051774569173396,5.373741235269579,492.1671655735021,2.6610378230323106,0.0
0.95402,1.2200371877938805,0.752,1.4884907396000002,49.386966525043604,0.2636994580195284,9.656279999999999,2.0212636843321556,9.479,4.0855068816,482.89023241710356,2.0206817499108007,0.90276,1.5492862299781793,0.6295,2.4002878224,45.78838714113659,0.600846844501302,0.9289799999999999,0.4493004558199335,0.7865,0.20187089960000001,48.6304995194752,0.014544508156658968,9.69536,0.05930455631736902,9.6965,0.0035170303999999936,484.77023794537246,0.00039921861564509834,1.00368,0.3085668446220365,1.0205000000000002,0.09521349760000002,50.22876083565209,0.03716037093286002,0.04232000000000002,1.0772336318552256,0.013500000000000002,1.1604322975999999,3.3906782662972454,0.2554152706365421,0.0055400000000000145,2.0384948487548358,0.015,4.155461248400001,6.165738872763423,2.0031999091800516,-0.07878000000000002,1.5429720190593217,-0.357,2.3807626515999996,8.824904346111873,0.6193721009646522,0.02918000000000001,0.3895792443136569,-0.03950000000000001,0.1517719876,2.6648141143667776,0.0428478447018211,-0.06344,0.47651053125822934,-0.134,0.22706228639999998,6.235347293367199,0.05047485314616096,-0.0058000000000000005,0.23879447229783188,0.009000000000000001,0.0570228,1.6926865563012878,0.011963330772274999,31.15,2.836564823867066,31.65,8.046100000000001,1559.8312420940865,1.2452232977740507,-26.107999999999997,1.016236193018139,-26.25,1.032736,1305.5533693978796,0.6064058906594305,-22.311999999999998,5.102612664116296,-24.15,26.036656000000004,1126.8364738499752,14.399450929731486,258.7,12.504639139135527,260.05,156.3660000000001,12939.163221806044,56.44519658607485,-81.73400000000001,2.3999674997799456,-81.2,5.759844000000003,4087.0997632284434,1.0170682137599465,-41.214,15.57933259160995,-42.8,242.71560399999998,2107.4992008373824,83.25800421739741,0.12965383546645354,1.3778944334234604,0.2616898608232764,1.898593069659359,10.365053881026624,0.354541447496051,0.04244544742895593,1.1283167033203187,0.12959263134233434,1.2730985829916321,5.37967141475444,0.2587211109891305,9.770305628868359,2.072192846429525,9.707787083062632,4.2939831927936964,488.5683954587244,2.1269496788368683,0.0
1.2719399999999998,1.2995687347731937,1.4305,1.6888788963999997,65.21144619898035,0.6667972225276403,9.8081,1.8046658887450606,9.9245,3.2568189699999994,490.4548993205574,2.3902496546783683,0.90616,1.3588832968286866,0.6415,1.8465638144000003,45.80205333020958,0.5480960076288801,1.32784,0.31974047976444897,1.37,0.1022339744,66.96167398903872,0.04886107299983247,9.66552,0.052947234110952396,9.654,0.0028034096000000013,483.27763139234463,0.0011635840401472346,0.8845999999999999,0.3114554221714562,0.885,0.09700448000000002,44.51666037594097,0.048968478639388614,-0.04468000000000003,1.1148873923405898,0.051500000000000004,1.2429738976,8.18589611178698,0.5143564404249026,0.13272000000000003,1.7999432662170214,0.201,3.2397957615999995,8.789164156665622,2.5327140811524824,0.002779999999999996,1.2474865015702574,-0.23099999999999998,1.5562225716,4.280478765328536,0.5653381421374251,0.025579999999999988,0.32329355638490537,0.0025000000000000005,0.10451872359999999,2.2980764685428623,0.03296879902963801,0.04053999999999999,0.4302170247677328,0.032,0.18508668840000003,5.61594452273735,0.09275444230922665,0.00902,0.22208029989172837,-0.008499999999999999,0.0493196596,1.6156006210518083,0.0076522781243366774,28.740000000000006,1.9926866286498737,28.25,3.970799999999999,1438.4685668668421,1.1120457107150674,-26.003999999999998,1.4260378676599017,-26.35,2.0335839999999994,1300.8976958961316,0.29749981830466704,-20.291999999999998,4.344414344880102,-19.1,18.873936,1021.7901978113089,6.305328262376894,242.67399999999998,12.717370954721737,245.2,161.73152400000006,12137.298961228411,55.228052179079505,-80.492,1.9426620910492907,-80.1,3.773936000000002,4024.8367896224263,2.046426710720872,-56.272,11.859966947677384,-57.900000000000006,140.658816,2825.744928364297,64.33108391868002,-0.02235315406181477,1.3705929749917116,0.11870547029894843,1.8785251030966306,5.229373698081543,0.6216352020849152,0.08453467100277216,1.0872080002011204,0.15832928754881798,1.1820212357013196,9.28461098059191,0.22153571933039498,9.948407967832615,1.8414753304534186,10.246852787352719,3.3910313926685274,497.4602880305359,2.548209808725257,0.0
1.2676999999999998,1.1044780713078914,1.2690000000000001,1.21987181,65.10645362259842,0.5506723283220152,9.814559999999998,1.7072943057364185,10.075,2.914853846399999,490.746584029388,1.1037033993026537,0.79586,1.2478799943904864,0.5375000000000001,1.5572044804,40.23525189830266,0.4753050466173881,1.44076,0.23304356330952375,1.425,0.0543093024,72.24314428135052,0.012363498461146708,9.66646,0.04861366474562472,9.6705,0.002363288399999996,483.32459858995605,0.00026444394780193844,0.69512,0.33762764341801166,0.653,0.11399242560000002,35.88663541713152,0.017449732407343977,-0.20226,0.9540587153839118,-0.1895,0.9102280324,14.579186694421425,0.395736614199442,0.15014,1.6994303046609471,0.2905,2.8880633603999994,8.137839619719724,1.036132148972269,0.12666,1.219829850593926,-0.0685,1.4879848644,8.097827711346222,0.5298449254631362,0.03101999999999999,0.26576572314728625,0.061,0.07063141960000001,2.4763983060986896,0.0201618853535165,0.06514,0.35649734977977043,0.0715,0.1270903604,5.272247145241805,0.013624364136752921,0.00014000000000000235,0.19217325620387452,-0.028,0.0369305604,1.3418955136140753,0.015061127327218619,28.632,1.4662114445058736,28.35,2.149776,1432.196207300208,0.8005346104489063,-26.034000000000002,1.957100917173154,-26.35,3.830244,1303.244715800375,0.16509878140574955,-17.875999999999998,2.5869333195890456,-18.4,6.6922239999999995,896.4392246086782,2.750117828719308,231.392,9.65206382075875,232.64999999999998,93.162336,11571.707877339575,33.77540191639253,-80.44800000000001,1.6821700270781195,-80.30000000000001,2.829696000000001,4022.617828028332,0.39425444561550466,-65.05000000000001,10.463388552471901,-64.9,109.48250000000002,3261.9413624974804,32.217742199982034,-0.1407019452529142,1.2591440274934682,0.1509420755254538,1.585443681972472,10.606869523304368,0.542882125658541,0.2102903074913528,0.9296883027158045,0.28286244142174755,0.8643203402065934,14.725031964914136,0.4044227441215782,9.931877860264967,1.7612477553645745,10.246852787352719,3.1019936557767522,496.6010249910127,1.2057029797731984,0.0
1.2862799999999999,0.995096056468922,1.3745,0.9902161616,64.52945797882118,0.25193436639667166,9.73692,1.7314615310771417,9.5315,2.9979590336,486.87983826272335,1.7343116154753184,0.43152000000000007,1.141965818052362,-0.011,1.3040859296000002,24.980166692063158,0.6255649783666692,1.4414000000000002,0.20686633365533408,1.4455,0.04279368000000001,72.1699153621556,0.007539460459095143,9.68078,0.0402448953284761,9.6885,0.0016196515999999975,484.03958192640744,0.0008004678079093485,0.43232,0.37701174729708353,0.3425,0.14213785759999997,23.535362524160988,0.06331758322197016,-0.17857999999999996,0.9391476580389262,-0.0335,0.8819983235999999,10.152840677963615,0.26166445373996444,0.06636000000000002,1.7530354561160477,-0.0745,3.0731333104,6.476679048607632,1.8852974329402734,0.03160000000000003,1.1378976052351988,-0.2185,1.2948109600000002,7.472404633159874,0.661694566389049,0.016379999999999995,0.28601754421713366,0.061,0.0818060356,2.245326442256459,0.03338491712363754,0.058779999999999964,0.37301545758855625,0.11,0.1391405316,7.172574342973916,0.043720346421986356,-0.0060999999999999995,0.16904736022783673,-0.015,0.02857701,1.3840917837471023,0.009527081497272055,29.342,1.5375421945429661,29.45,2.364036,1467.827442812544,0.8319929698521601,-27.852000000000004,2.1155840801064842,-28.65,4.475695999999999,1393.9169625107322,1.4673197096321293,-16.236,3.168265140419911,-17.1,10.037904,816.9731651865043,0.6077331928681653,220.18400000000003,13.514190467800875,218.55,182.63334400000002,11014.267659542962,25.073893637977797,-80.932,1.429606938987077,-81.15,2.043776,4046.687709070521,0.874827197916379,-74.214,12.98791761599988,-77.3,168.68600400000003,3723.222778616404,50.21661310972417,-0.04117639251178231,1.0909573452368473,0.3070395853604176,1.1901879291262298,8.8548271791118,0.4526340883104202,0.18501751608653522,0.9152348645128523,0.2992741236896192,0.8376548572198591,10.091780319214918,0.21916106046047334,9.836656351318378,1.7655084319148977,9.833856906738095,3.117020023162601,491.8596565541951,1.9195270807994387,0.0
1.4653600000000002,1.215730262188122,1.4735,1.4780000704,74.17648705788226,0.42915839960808383,9.746479999999998,1.8906229263393588,9.9805,3.5744550496000005,487.38327239940196,1.1795475311637347,0.52394,1.5101074055841193,-0.0335,2.2804243763999996,33.4832726708423,0.27749585412323985,1.5053000000000003,0.2512426914359898,1.4905,0.06312289,75.5787424859255,0.014427995345050248,9.64614,0.09276896248207153,9.682,0.008606080399999995,482.31447107349715,0.0001887986951730959,0.65134,0.5985852858198236,0.5640000000000001,0.3583043444,36.31786938339638,0.02902672890098994,-0.07944,1.1247471210898918,-0.0335,1.2650560864,6.175640156264078,0.3687869192903733,0.11093999999999998,1.8488933058454184,0.29550000000000004,3.4184064564,6.887149008456127,1.1739382186479679,-0.08911999999999999,1.3246718482703557,-0.4335,1.7547555056000002,7.863744205093834,0.385520536610199,-0.0008600000000000041,0.4310346162432897,0.0135,0.18579084040000002,2.7176305161148644,0.020432404621175945,0.016339999999999993,0.4956544606880886,0.103,0.24567334439999997,6.3764087000625675,0.036595510006870446,-0.006019999999999993,0.19187417648031743,-0.0555,0.0368156996,1.6712136484988798,0.006228186529184708,30.224,1.391338923483419,30.3,1.9358239999999995,1511.804586358932,0.8899620224387588,-29.79,0.9853425800197614,-29.7,0.9708999999999998,1489.7465793204462,0.20223412173500996,-11.796,3.842965521573151,-10.95,14.768384000000001,601.2301806415993,2.5329513298915143,216.51000000000005,11.981740274267342,217.2,143.56210000000002,10827.342922071257,41.950330988536585,-80.00399999999999,2.467627200368808,-80.80000000000001,6.089184,4000.8825504147653,0.28916398211335004,-69.34400000000001,16.223478788471972,-68.35,263.20126400000004,3489.280938310815,62.89460715423288,0.1597747170348662,1.235345307639479,0.46758147485924173,1.526078029106879,8.569226294681354,0.3212548170570948,0.11777113181704521,1.148861461699782,0.08714953217394891,1.3198826581789598,8.156793118419506,0.44172928247346843,9.899991844684488,1.9629945818065206,10.232952389100557,3.853347728201757,495.01641414134406,1.1574275174864859,0.0
1.4142000000000001,1.388301192104941,1.119,1.9273802000000004,72.13828266463484,1.2390835292766211,9.83698,2.139566016649171,10.2715,4.5777427396,492.0947775063166,1.3994663071075293,0.8258800000000001,1.7503639923170264,0.3305,3.0637741055999994,45.0634939654841,1.3871637996496764,1.3791400000000003,0.35643366900448675,1.3760000000000001,0.12704496040000002,69.73190916064088,0.044748537661674984,9.64184,0.1056742844782967,9.666,0.01116705439999998,482.1012607982184,0.006932470804107442,0.9377999999999999,0.5333992875885756,0.8375,0.2845148,48.434640574893535,0.20771500932709247,0.03553999999999999,1.238141239277652,-0.07400000000000001,1.5329937284000001,6.208333022746601,0.9492576269991966,0.25966,2.076623158977093,0.7925,4.3123637444,17.014468687594395,1.2717008595262844,-0.0851,1.5204067120346452,-0.21350000000000002,2.31163657,6.687559928769698,0.9285247025673284,-0.013419999999999996,0.4686630384401996,0.011500000000000002,0.2196450436,3.237879133621991,0.14683156549360904,-0.06446,0.5163359840259053,-0.041,0.2666028484,4.906949795169704,0.11899258707936528,-0.012859999999999996,0.2389341340202358,-0.069,0.05708952040000001,1.8980713639966853,0.010328915903529842,30.786000000000005,1.0652717963036478,30.8,1.1348040000000004,1539.5513723189815,0.4524350914059541,-29.662000000000003,1.2664738449727257,-29.9,1.6039559999999997,1483.500097811067,0.7664891683557131,-12.466,4.572247149925297,-11.7,20.905444,638.7690340613223,1.3049012313168131,226.80800000000002,13.921247645236399,227.7,193.80113599999996,11345.507193561732,86.02003171575885,-80.006,3.115600102708946,-80.4,9.706963999999996,4001.262213456147,4.1662926900060855,-58.38400000000001,13.087801343235617,-59.5,171.290544,2927.1349588376365,106.00519874185804,0.18519445664791825,1.4521898575779486,0.4549909885519795,2.1088553824522625,9.416081279479643,0.9778358532151004,0.05137536269113126,1.2720491585246814,0.28401389619290074,1.6181090617033498,6.594955204706965,0.8133812994511023,10.013550736641164,2.2320422858657554,10.693136339562516,4.982012765892827,500.8145483951367,1.6309010168029623,0.0
0.9829000000000001,1.1229297618284058,0.8225,1.26097125,50.15977986412409,1.1370628922335975,9.85036,2.019400086758441,9.938500000000001,4.0779767104,492.54118523497414,2.5882744029780085,0.65408,1.5373281216448231,0.3315,2.3633777536,33.961353899428495,1.0378315062609467,0.9395,0.3141567284016053,0.921,0.09869445,47.776360968073305,0.034434350965815895,9.7163,0.06692600391477134,9.738,0.0044790899999999885,485.8181740974327,0.0034540539081062494,0.7888600000000001,0.393564988788383,0.69,0.15489340040000002,40.864601195608756,0.1003397939053253,0.07391999999999997,0.9522852690239412,0.0555,0.9068472336000001,5.400539249792304,0.8173094389590481,0.16898,2.0155304561330745,0.1855,4.062363019599999,9.113668441928786,2.6176173002878933,-0.14333999999999997,1.331891911680524,-0.07150000000000001,1.7739360644000002,7.357572446551223,0.8363343165693351,-0.02380000000000001,0.3106089502895884,-0.061,0.09647792,3.0693820228339073,0.04813613024198017,-0.024260000000000007,0.38706112230499207,-0.0035000000000000005,0.1498163124,4.301719577819195,0.09714362044696141,-0.011619999999999997,0.2016216149126874,-0.0025,0.040651275600000016,1.2761466629270344,0.03004920043470099,31.985999999999994,1.5222365125038881,31.95,2.317204,1599.9747308863164,0.3638918504344175,-29.489999999999995,1.1747765745025731,-29.65,1.3800999999999999,1474.7898865674208,0.5789019515405944,-15.192,2.929357608759982,-15.149999999999999,8.581135999999999,764.3214480799197,4.049431857486094,238.234,13.112674936869288,238.55,171.942244,11916.544985832254,56.367047667163135,-82.63799999999999,2.539440095769144,-83.05,6.4487559999999995,4132.487364110648,3.861725692814413,-51.903999999999996,13.612949129413508,-50.55,185.31238399999998,2622.992653811596,46.957711770278266,0.12533500171537318,1.3135187874273981,0.24737178960227227,1.7253316049247425,7.097537711932838,0.7709562464807094,0.01950747152567667,1.0576933852027632,0.18436820383375382,1.118715297101681,6.6329546362732,0.7760788244901906,9.947673378375498,2.0759308637410485,9.969113398970219,4.309488951032655,497.3968553342666,2.7918902653175297,0.0
0.68332,0.6471567797682414,0.6775,0.41881189760000004,34.37314904495224,0.26394540935826877,9.83832,1.590591266667839,9.5445,2.5299805776000004,491.9300640399684,2.1207726596191327,0.711,1.1998091848289876,0.7144999999999999,1.4395420799999996,35.698592634449454,0.7321569367339688,0.6755199999999999,0.1552424220372769,0.624,0.0241002096,34.076048700945506,0.010105152098093107,9.749360000000001,0.026424049651785075,9.755,0.000698230400000003,487.46829781955876,0.0004370875820633192,0.7615999999999999,0.24484550230706711,0.772,0.059949320000000014,38.25899106730009,0.03861575938879633,-0.009059999999999988,0.5872758946185345,0.0315,0.34489297640000005,3.303639701311976,0.21004730216728057,0.07314,1.6045437732888437,-0.16149999999999998,2.5745607204000005,6.0558594365709135,2.1871663393824106,-0.04988000000000001,1.1105123617501969,-0.0805,1.2332377056,4.832568206582656,0.6022767257537882,0.006920000000000002,0.21550775763299101,-0.027000000000000003,0.0464435936,1.2722652364240243,0.016866532269569766,0.012099999999999994,0.2437508769214995,0.0,0.05941448999999999,2.010153303603619,0.020561764715042175,0.00222,0.12750047686185334,0.0065,0.0162563716,1.0410811365951775,0.004371884826763866,33.593999999999994,1.0412319626288853,33.9,1.0841640000000003,1679.98996304961,0.4445747284041984,-30.012000000000004,0.8474998525073617,-30.1,0.7182559999999998,1500.6804813638892,0.23928270356649256,-14.208,1.8905914418509355,-14.25,3.5743359999999997,711.6085166232114,1.1288860093593969,245.92399999999998,9.192661420937899,246.65,84.505024,12297.489777879435,29.095030949431106,-83.978,1.332710020972304,-84.0,1.7761159999999987,4198.987681922877,0.7652789887796172,-42.72599999999999,9.639664102031771,-42.2,92.923124,2144.6066629954216,51.31453961470305,0.03013585759224239,1.0479189949776242,0.19010830712900595,1.0981342200349138,2.880511099371976,0.4927742926360851,0.01647004257830893,0.7453596291680512,0.03666626422326075,0.5555609767935349,4.800944582111397,0.24760653123414272,9.8929767971871,1.6209434478950482,9.555200321920033,2.6274576612738865,494.66155056355024,2.268490575894583,0.0
0.6951400000000001,0.5991779037981958,0.735,0.35901416039999995,35.217558621081764,0.04517274923508262,9.79448,1.1628274203853297,9.475000000000001,1.3521676096000002,489.7344513605011,0.5703940421412809,1.05214,1.0075868599778384,1.0065,1.0152312804,53.74816204261258,0.14668977845837816,0.6736999999999999,0.15797585258513405,0.6575,0.024956370000000002,34.06675639110642,0.0016059403947834526,9.728919999999999,0.034822314684696085,9.7355,0.0012125936000000007,486.44706241748094,0.0001174501452181261,0.9661000000000002,0.32645264587685613,0.927,0.10657133000000002,49.265251565783544,0.01671105033178942,-0.01829999999999999,0.53107107810537,-0.035,0.28203649000000003,1.6047880428166978,0.0455364305485778,0.05984000000000001,1.147275579100331,-0.16149999999999998,1.3162412544,3.5647505105847963,0.5559436926109472,0.10406000000000004,0.9988603387861589,-0.069,0.9977219764,6.9760390165446635,0.24541413767145978,-0.018679999999999995,0.21590131449345096,-0.0495,0.04661337760000001,1.6259491633627419,0.005787971293608859,-0.043219999999999995,0.19573168266788082,-0.025,0.0383108916,2.461300639212323,0.0047193154328436125,-0.0017999999999999986,0.12854991248538444,0.0055,0.01652508,1.1014758421220667,0.00512454924248488,33.75,0.9128526715741154,34.05,0.8332999999999998,1687.6293874580088,0.09821930732122326,-28.714000000000002,2.028892308625571,-29.4,4.116403999999999,1436.9557114402594,0.19724164141471057,-16.772,4.418825183235924,-14.7,19.526016,852.1093584442373,0.07078702874792361,254.51800000000003,14.777492209437971,253.55,218.37427599999995,12734.655294907512,17.455788044954247,-82.978,1.6344161036896323,-82.95,2.671315999999999,4149.166475531622,0.4437293331072908,-36.714,11.018130694450852,-36.9,121.39920400000003,1864.1590799487637,21.002658551192138,-0.06633025366069745,0.8892374952495955,0.10886471333675514,0.7907433229577744,4.029192737077249,0.0631838212919359,-0.08397777046025506,0.682614386265309,-0.0425497823540012,0.46596240033636444,5.044411327169949,0.1601676612368751,9.878618460654257,1.1803428896065058,9.535907062167656,1.393209337044636,493.9358491299322,0.5883406391178359,0.0
0.62778,0.670941883921402,0.728,0.4501630116,32.03010657386027,0.06669040116994797,9.707620000000002,1.1185778987625314,9.5905,1.2512165156000001,485.4065167337861,0.5482135825748933,1.24604,1.2949118264963062,1.063,1.6767966384,63.21704945571029,0.2334083404477991,0.61024,0.19787890842634037,0.579,0.039156062400000004,31.142423964235856,0.006535467321976742,9.72508,0.037187008484146626,9.724,0.001382873599999993,486.2552022142645,0.00019123807801304921,1.0389,0.3194761493445168,1.0945,0.10206501000000001,52.775884921323346,0.020903683983748686,-0.010719999999999997,0.626808265420934,-0.07899999999999999,0.3928886016000001,1.685545150757986,0.05875714203451156,-0.013899999999999989,1.0910718262332686,-0.0695,1.19043773,5.463593302545396,0.5235050637203512,0.2028,1.3192951906226296,-0.0985,1.7405398000000003,11.694197670199411,0.3566280686894231,-0.009039999999999998,0.23217889309754233,-0.025,0.053907038399999996,2.2241098248227034,0.014671699062695383,-0.01366,0.20234076307061807,0.006,0.0409417844,2.4167887906217924,0.010130914686192437,0.0006199999999999997,0.1253599441608044,0.004,0.0157151156,1.5166821931864234,0.0018757533988329614,32.22,1.5203946855997623,32.1,2.3116000000000003,1611.6170499036784,0.3043565619361382,-26.298,1.851970842103083,-25.4,3.429796000000002,1316.2461984279225,0.3732223075851774,-21.009999999999994,3.25123053627392,-22.0,10.570500000000003,1055.5983620287827,7.632602811830642,266.632,13.301359930473271,272.15,176.9261759999999,13338.03396100427,61.86425290029766,-82.84,1.8215378118501957,-82.6,3.317999999999999,4142.348886728342,0.36342776733797455,-31.360000000000003,10.14727549640789,-29.5,102.96719999999999,1593.9494678474514,29.016653455188255,-0.10152415191475078,1.0347292635788916,0.21508854894846866,1.0706646489065152,5.834230228763062,0.1983055700347876,-0.2027828394466634,0.9913558333513336,-0.03461991465295289,0.9827863883197171,10.830210598902145,0.11909207877465203,9.806032027523768,1.1400186158812609,9.615551339070791,1.2996424445558257,490.33200609704164,0.5831496349472661,0.0
0.46812,0.7973812548586781,0.669,0.6358168656000001,24.16720954418565,0.06565869398852044,9.83796,1.4097691862145376,9.5905,1.9874491583999996,491.9108842322546,0.5083181605277836,1.1146,1.365171051553614,0.966,1.8636920000000001,56.13573797187037,0.25978438858135583,0.5206000000000001,0.16943116596423458,0.51,0.02870692,26.24912041382245,0.010414123887642426,9.746599999999999,0.02789838705015041,9.7515,0.0007783200000000001,487.33046874270775,0.0004913999393340991,0.90396,0.23992348446952833,0.8909999999999999,0.057563278399999994,45.61439862872842,0.04054025250345084,-0.03468,0.737827281685897,0.023500000000000004,0.5443890976,3.980639750617442,0.04175107299851855,0.06576000000000003,1.3800309063205796,-0.108,1.9044853024000004,4.352440704417141,0.4707862770519585,0.192,1.4153751587476728,-0.052000000000000005,2.00328684,10.76083569392271,0.3387619775853449,-0.0037400000000000046,0.23519097006475395,-0.0105,0.05531479239999999,1.8461734322307908,0.011524618838900998,0.03474,0.21868990008685815,0.047,0.0478252724,2.9778701926205655,0.004150130755259371,-0.00017999999999999906,0.13606244007807594,-0.029,0.018512987600000003,1.3122004857264347,0.003290028876691381,32.308,1.573510724462976,32.45,2.475936,1615.9582801891504,0.23295684003785694,-25.703999999999997,0.9044246790087058,-25.5,0.8179840000000005,1285.3552926430493,0.05851822396303196,-21.24,1.5778466338652815,-21.1,2.4895999999999994,1062.5864510037752,0.29457631247811866,268.77400000000006,8.37834852461987,271.65,70.19672399999996,13440.029796168637,13.70546423981247,-83.84200000000001,1.5153996172627207,-83.8,2.2964360000000004,4192.261581449837,1.3577992077759566,-30.34,7.899721514078834,-29.7,62.40559999999999,1526.6493116208003,18.7634611638424,-0.16398519445676032,1.165025337790278,0.10188947788382466,1.357284037693351,9.692691509665023,0.055179672521773124,-0.16652810733879345,1.0247795293076378,0.09161799771482071,1.050173083687984,9.257169973554749,0.30022105027534274,9.910660656696363,1.43199509492687,9.615551339070791,2.0506099518946157,495.54333409944286,0.5109943203998187,0.0
0.30518,0.938760005326175,0.6165,0.8812703476000001,16.122299995695492,0.2753130100932906,9.90336,1.5925951872337174,9.5985,2.5363594303999992,495.1767439285498,1.214723772446478,1.2846199999999999,1.4529656278109264,1.1185,2.1111091155999997,64.61176791978288,0.3435827860958244,0.45524000000000003,0.22656244702068346,0.49300000000000005,0.0513305424,23.151786928463977,0.009841513603022899,9.72234,0.040548543746970735,9.725999999999999,0.0016441843999999992,486.11794177064087,0.0003016626886551815,1.13172,0.32462674196683183,1.1275,0.1053825216,57.226751446366684,0.02168193274506983,-0.11512000000000003,0.8531036429414658,0.1335,0.7277858255999999,6.220720710886743,0.22952833336593054,0.13112000000000001,1.5576626803001992,-0.10400000000000001,2.4263130256000003,6.936361549653427,1.1935465606418414,0.10487999999999997,1.4728859513214185,-0.05450000000000001,2.1693930256000002,6.75624903635345,0.4059060831815192,-0.01618,0.2503644295821593,-0.036,0.06268234760000001,1.4175675975520363,0.018325648080937035,0.050140000000000004,0.26823400306448847,0.0375,0.0719494804,2.9897064335238475,0.01097458229059885,-0.003080000000000003,0.19851557520758917,-0.024,0.039408433599999994,0.6941788659436536,0.009183016678142647,34.518,1.3680190057159292,34.55,1.8714759999999993,1726.2719490055706,0.34248993794301774,-26.122000000000003,0.9579749474803607,-26.4,0.917716,1306.1199498977562,0.3078156024779177,-18.904000000000003,2.212054248882699,-19.4,4.8931840000000015,947.3477353052159,0.6852177121312538,270.74199999999996,10.235625823563504,271.15,104.76803600000007,13538.841380818147,19.892573274256204,-82.73200000000001,1.7500217141509988,-82.7,3.0625760000000004,4136.811567122531,0.9091643507851738,-23.08,12.39796757537299,-22.1,153.7096,1201.1142309965978,13.481153755146362,-0.23970251709344828,1.1699862543203439,0.05107641535762332,1.3688678352985486,12.235782273334594,0.4516076742140662,-0.0714700542523651,1.1970812080626831,0.12410549906202067,1.4330034186968128,4.694513790135832,0.0869948771692135,9.992882857492386,1.6206533364923157,9.862476082693519,2.626517237083675,499.6504637666138,1.2755448685892792,0.0
0.48594000000000004,0.8958674547052148,0.45699999999999996,0.8025784964,26.033689662564267,0.33113526282429306,9.86654,1.5297031634928389,9.678999999999998,2.339991768399999,493.3380591771421,1.2996232713650337,1.2412599999999998,1.3882077050643393,1.0835,1.9271206323999999,63.066983546797964,0.6025993197215243,0.52094,0.26670278663711033,0.528,0.07113037639999999,27.025454197264015,0.005082110015260486,9.71488,0.03912372170435735,9.719000000000001,0.0015306656000000022,485.74474789293265,0.00030207886171312783,1.1453000000000002,0.3677496023111378,1.1965,0.13523976999999998,58.18074558067319,0.009812964555927287,-0.03122000000000001,0.8194400597969324,-0.026500000000000003,0.6714820116000001,4.8181886767558675,0.3228205685398538,0.14742,1.5244361067621035,-0.0625,2.3239054435999997,7.995608115001694,1.2008274043827383,0.08188,1.3470734299213238,-0.0475,1.8146068255999999,6.02692884688605,0.6610453160948773,0.031479999999999994,0.25603696920562075,0.008,0.06555492959999999,1.8151924984033347,0.006210464909960852,-0.039080000000000004,0.31567786365217315,-0.018500000000000003,0.09965251360000002,4.7051390975850484,0.022200723881012917,0.006979999999999999,0.19361967771897567,-0.0075,0.0374885796,0.7748992374210671,0.006504341037587846,33.534000000000006,2.998506961806158,34.6,8.991043999999997,1679.5165902331432,0.1739927669887543,-26.035999999999998,0.8721834669380061,-26.2,0.7607039999999999,1301.857951824845,0.24098189051996616,-19.292,3.757224507532122,-18.2,14.116735999999998,972.1649927363703,1.472043680442352,269.194,12.102816366449591,270.85,146.4781640000001,13463.21604200268,7.446210165781915,-82.318,1.5921921994533204,-82.35,2.535076000000002,4116.0572823000175,0.3671606467717615,-25.72,16.708716288213168,-21.1,279.1812,1383.8316414034714,2.8309080597699006,-0.06708879199163698,0.9612907671961977,0.08849021623958073,0.9240799390966542,5.233259339185047,0.24397004510302492,-0.03246997995629146,1.259209890180131,0.17579360360568055,1.5856095475274574,4.2461753103682796,0.6946192495775104,9.962426216558637,1.5588411488640446,9.862476082693519,2.4299857273917747,498.1330682467227,1.358686218359833,0.0
0.6508400000000001,0.7154182933081876,0.5315,0.5118233344,32.91138653274404,0.24759042582170604,9.93042,1.4729673735694215,9.712499999999999,2.1696328836,496.5666474547158,0.7545525330755797,0.6070199999999999,0.9976100338308551,0.6499999999999999,0.9952257795999999,33.293258028267104,0.3742688083261768,0.62674,0.17944779853762485,0.648,0.0322015124,31.65645545009351,0.027452845391688553,9.757779999999999,0.03445709796253872,9.763000000000002,0.00118729159999999,487.88994397635145,0.0004991596119362033,0.56356,0.46049026743243987,0.4805,0.21205128639999998,31.032469855348644,0.06568892616088105,0.01765999999999999,0.6774143077910297,-0.1285,0.4588901444,3.6489222294142696,0.23299570199014216,0.17606000000000002,1.4742120798582543,-0.1195,2.1733012564000003,10.774138421240265,0.8225211178850177,0.04577999999999999,0.9506210872897781,0.027,0.9036804516,2.9664297806371556,0.3148431156051415,0.029200000000000004,0.25334940299909925,0.0275,0.06418592000000001,2.150817289966386,0.023884932813058913,-0.03882000000000001,0.29009423917065297,0.0135,0.08415466760000001,5.2017640734468875,0.02321772517740165,0.00832,0.1552542997794264,-0.0055,0.0241038976,0.8965126463575247,0.007030321986474363,31.244,2.456270343427205,31.3,6.033263999999999,1564.241717658887,3.311830382080137,-26.28,0.7362064927722384,-26.25,0.5419999999999999,1314.0783252662613,0.11480114280673917,-20.322,3.6858806274756106,-18.950000000000003,13.585716000000001,1023.6916192455458,5.35415114553493,245.78400000000002,24.096384459084312,250.45,580.6357439999999,12304.323722827494,69.17814025026456,-84.558,1.9581715961580084,-84.7,3.834436000000002,4228.2790313540345,1.0653816140167955,-54.025999999999996,25.228197002560446,-50.25,636.461924,2777.625983726481,147.2064109348575,0.04178222429996304,0.7247225619346701,-0.06847967178707873,0.5252227917771518,5.844346968246242,0.28024377976492443,0.04614851628993613,0.8753880256306633,0.15509095120747796,0.7663041954175509,3.330850809803833,0.4038104167142954,9.977416053905044,1.4959130390032727,9.76984777866468,2.2377558202600065,498.9173380096658,0.7955268312440867,0.0
0.8751199999999999,0.9075921030947768,0.789,0.8237234255999999,47.019222938243324,0.23750884060038077,9.8749,1.3707803069784743,9.846499999999999,1.87903865,493.76463687314003,0.987759536166364,0.5741399999999999,1.1033485579815654,0.529,1.2173780403999999,31.84801177294521,0.26519301850943455,0.8748599999999999,0.5487224438639264,0.685,0.30109632039999995,46.52347280684139,0.006275212758870958,9.7296,0.10400249996995274,9.768,0.01081652000000002,486.48864465651513,5.3552441274108445e-05,0.4932000000000001,0.4291842494780068,0.46149999999999997,0.18419912,26.88473891620457,0.021904503916414478,0.01899999999999998,0.7734231959283352,-0.10300000000000001,0.59818344,3.1375183286856614,0.18716939450695333,0.14794000000000002,1.3733627548466574,0.008000000000000007,1.8861252564,7.783465691366335,0.8991963443847951,0.016760000000000018,0.9898173277933662,-0.18,0.9797383424,6.3399505714146125,0.37641305072666537,-0.03764,0.24124864849362368,0.003,0.0582009104,2.8049911227200233,0.01528874478708153,-0.0023799999999999954,0.3061138278484002,0.032,0.0937056756,5.318859946288973,0.016936269836437312,0.024300000000000002,0.19957477295490028,0.026000000000000002,0.03983009,2.465644815998287,0.006669809773371347,29.920000000000005,2.500319979522621,31.0,6.251600000000001,1498.1206071808238,0.9186892571006621,-25.238000000000003,1.8224039069317206,-25.5,3.3211559999999998,1262.8915477341068,0.09421330223625696,-19.794,3.25892068022528,-18.55,10.620564000000002,995.6227207069826,3.0325683162353823,237.49400000000003,18.577969856795445,243.89999999999998,345.1409640000001,11880.176980689284,166.17090619366866,-83.86800000000001,3.7012127742133383,-84.9,13.698975999999995,4194.763938405781,0.30518024411066225,-62.748000000000005,18.99475969840103,-59.150000000000006,360.8008959999999,3159.589062897039,133.7465881838923,-0.04848059747114877,0.9707533898341333,-0.12588125689266383,0.9423621438744608,6.407462374282118,0.1584669953790847,0.014430198748993721,0.8181195412552605,0.04718727710852244,0.669319583783718,4.6143262616825105,0.2797762025091491,9.949644108108574,1.3854976273365,9.872427339477944,1.919603675355071,497.4880638750291,1.0072877871916928,0.0
1.3220599999999998,0.9500951828106488,1.524,0.9026808564000001,67.4973416752846,0.3326448632794622,9.648880000000002,1.194803659853785,9.703,1.4275557855999994,482.48653879441247,0.7376652913091628,1.43128,1.4733975164903734,1.087,2.1709002416,76.66473330105235,0.3443794213703061,1.25566,0.5106451452819267,1.1684999999999999,0.26075846440000006,64.54963310270129,0.006839341449770052,9.588379999999999,0.16304084028242746,9.598500000000001,0.02658231560000002,479.4447900386663,5.369259717355424e-05,1.34248,0.7526994417428513,1.2475,0.5665564496000001,71.31932561111978,0.007451432370970323,0.07812,0.8554916864587289,0.061,0.7318660256,5.979613258629315,0.3785889380619055,0.07370000000000002,1.1916530073809237,0.021000000000000005,1.42003689,5.034135466311295,0.7587842865555239,0.04342000000000001,1.157063992871613,-0.28500000000000003,1.3387970836000003,6.302109650791324,0.3551668431935461,-0.022319999999999993,0.3014951701105674,0.044000000000000004,0.0908993376,2.6611271282564575,0.00773241641002287,-0.035460000000000005,0.4044605399788711,-0.032,0.16358832839999998,8.743326700015745,0.022502189999846697,0.018979999999999997,0.23645274284727594,0.026,0.0559098996,2.7485787700168025,0.0011995637291248506,30.118,2.6295771523193614,30.7,6.914676000000002,1508.0894409443983,0.14178507092774645,-23.610000000000003,1.5205591076969023,-23.9,2.3120999999999996,1181.2212924675957,0.3718749107506327,-21.436000000000003,3.299439952476784,-21.950000000000003,10.886304000000003,1077.0550919092,0.47330858073158616,254.03199999999998,10.780750252185605,255.95,116.22457599999998,12703.968562646853,31.524120098265154,-78.834,4.691976555781155,-78.15,22.014643999999986,3944.591467560103,0.17224996993435465,-45.052,13.36649901806752,-43.45,178.66329599999997,2279.9022681073275,32.429488195420795,-0.023565486745479234,1.0849312542426566,0.16877776972106048,1.177075826432544,6.974838634331287,0.3775044841497469,-0.06446442390320498,1.0299434616855663,0.0037760691876567616,1.0607835342688476,6.80386584665863,0.3567453902300559,9.882768956683238,1.2193172737241018,9.801568878153317,1.4867346140019762,494.1448479544315,0.7812986801163843,0.0
1.37656,0.8348520146708637,1.4055,0.6969778864,69.57138130628402,0.47411886517910207,9.557220000000001,1.5270215622577175,9.067,2.3317948515999998,477.9089399487102,0.4339731657375124,1.7423600000000001,1.3443135312865075,1.4425,1.8071788704,88.77584998412875,1.028262793254377,1.30436,0.4201697637860201,1.346,0.17654263039999996,66.14722062937167,0.03203009917790587,9.53018,0.13247002528874227,9.5735,0.017548307600000014,476.51944436937276,0.00881816934875218,1.78864,0.5012661073721223,1.7405,0.25126771040000007,89.98092973538577,0.17109030922711005,0.08077999999999999,0.7784306080826987,0.11000000000000001,0.6059542116000001,5.6467006997882105,0.3918680799716744,0.011720000000000001,1.4987512674223167,-0.38,2.2462553616000003,6.069448777113745,0.41953147004487384,-0.00920000000000002,1.223936665028056,-0.1385,1.49802096,6.429065840004121,0.6565795296689201,0.036520000000000004,0.33476638062983566,0.059,0.11206852960000001,2.5352033560159617,0.04345208342076963,0.004919999999999999,0.44155397586252126,-0.037500000000000006,0.1949699136,6.510580999926499,0.11320356007762612,-0.014760000000000006,0.23594470199603976,0.0055,0.055669902400000006,2.762229190922412,0.015039545913054213,30.556000000000004,3.4166158695410873,30.4,11.673264,1531.4446719100345,1.6326812880072084,-23.854,1.3520665664086218,-24.1,1.8280839999999998,1193.074853265346,0.8883552818730842,-25.404,4.002247368666759,-24.5,16.017984,1276.1532301230561,3.4777571370730667,265.76800000000003,7.323399210749061,265.85,53.632175999999966,13289.50295765655,16.036373046159284,-76.68,3.1094694081145082,-77.4,9.66879999999999,3834.7056259560213,3.9073678500039897,-36.168,10.225232320099138,-35.65,104.55537600000001,1820.6174176767854,48.330232171782875,0.0970114391720054,0.9312364331563806,0.21571305063466256,0.8672012944378181,7.1525432017988555,0.398717473014696,0.01869511350640207,1.0629588284138296,0.331533801989509,1.1298814709029015,8.388337835887203,0.6231746426592868,9.835896911975848,1.5347410156257701,9.596874682899351,2.35542998504402,491.8211859999333,0.5987899283971819,0.0
1.05186,0.9630819904867912,1.1625,0.9275269203999998,53.635741168415755,0.2038961842209144,9.669500000000001,1.7205402552686757,9.1795,2.96025877,483.4867891727423,1.4238104254549504,1.56304,1.3653948434061116,1.4554999999999998,1.8643030784,79.17901921214435,0.4550822945670515,1.08292,0.4654646212119671,0.99,0.21665731359999998,55.4282889032383,0.056620920869338995,9.57728,0.10554563752235338,9.585,0.01113988160000001,478.86811346763113,0.00649930627409188,1.6789200000000002,0.4764796675620063,1.7425000000000002,0.22703287360000005,84.27768597458922,0.074883268431612,-0.026420000000000013,0.8573890153250158,-0.0955,0.7351159236000001,6.491268946082831,0.16849039086351847,0.0828,1.7079958430862763,-0.365,2.9172497999999996,5.887785773178223,1.339120444140549,-0.04129999999999998,1.355687401283939,-0.14750000000000002,1.8378883300000002,5.114169558787072,0.38477380567411507,0.020739999999999995,0.4636993340517107,0.07,0.2150170724,2.784459358837877,0.03222662147818822,0.006580000000000003,0.47774587763789234,-0.045000000000000005,0.22824112359999998,7.649170945429421,0.023824459759628356,-0.004719999999999999,0.2598373368090121,0.008,0.06751544159999999,1.7788181213168763,0.025581222469206116,30.178,3.2895160738321367,30.200000000000003,10.820915999999997,1512.7026688874926,1.8948831513620736,-23.872000000000003,2.0720077219933324,-24.5,4.293215999999999,1194.6400402284119,0.7558637943530404,-26.148000000000003,4.059519183351644,-26.2,16.479695999999997,1313.03141062958,1.0242408354736119,270.89000000000004,12.6814234216826,271.25,160.81850000000003,13546.50959755455,17.72545786018911,-77.854,2.8473995153472935,-78.1,8.107684,3893.060122906677,3.4588170459472796,-33.01599999999999,12.713431637445494,-31.7,161.631344,1672.5213904025436,19.779232361164695,0.038763935482189066,0.9692797619876763,0.09329899892750755,0.9395032569988864,8.574082245729938,0.18151814058855845,0.14525928503254595,1.1078106560099057,0.34918922698317156,1.2272444495690977,8.202630883158905,0.3133043957255445,9.876225393905536,1.7526105898416966,9.485098526462302,3.0716438796252596,493.82444792306154,1.3907700348857663,0.0
0.64744,1.0362219870278762,0.6114999999999999,1.0737560063999998,33.04880349750649,0.24857926989077156,9.82806,1.6792088066705702,9.4705,2.8197422164,491.4348617754836,0.7464421771376302,1.3908600000000002,1.5468392160790339,1.367,2.3927115604,71.8568821307455,0.9838232577409322,0.66322,0.3804495388353099,0.6245,0.14474185159999997,34.420877557796906,0.016361561091197067,9.63888,0.096828640391157,9.675,0.0093757856,481.949869311617,0.0042396296262377725,1.5481400000000003,0.5210275620348697,1.384,0.2714697204,78.35257900556198,0.1484115476694748,-0.01066000000000002,0.9014105970089323,0.044,0.8125410643999998,4.518843640972211,0.20609203231300438,0.18576,1.6867148965963397,-0.17099999999999999,2.845007142400001,9.73520289662171,0.6965915678384433,-0.17381999999999997,1.4426519842290446,-0.2985,2.0812447475999996,11.62085152215804,1.033986681496852,-0.005060000000000002,0.5021614644713391,0.0955,0.2521661364,2.908451433593699,0.08312733392977287,-0.0007799999999999951,0.46621558489608644,-0.04,0.2173569716,4.051953511918239,0.07458551263867658,0.03638,0.2523169348260239,0.034,0.0636638356,2.726864662470803,0.020998286478354965,32.356,2.2048274308888662,32.45,4.8612639999999985,1619.20900700225,0.42476648846309195,-23.623999999999995,2.116842932293277,-24.0,4.481024,1182.5335163761786,2.8625133191033276,-20.906,4.561903550054517,-20.05,20.810964,1056.2095503943406,3.159453924893633,273.116,14.573583773389442,274.9,212.38934400000005,13661.14198010341,88.72012839856296,-79.79799999999999,3.0335121559011435,-80.5,9.202196000000004,3990.5792511624454,3.442789561699975,-23.642,13.111065402933509,-21.7,171.900036,1219.4271212975991,66.68640937185033,0.04624557179099852,1.0108808987469287,0.10447372035229531,1.0218801914513984,5.657547177416978,0.3335910374652374,0.17311091253438918,1.2387799555430687,0.19215541781605816,1.5345757782552871,10.496299921095192,0.502834150966806,9.977812538716414,1.7565130718494686,9.798467668873425,3.085338171578057,498.9052298784229,0.8692027530670499,0.0
0.6616600000000001,0.8948597568334381,0.7815000000000001,0.8007739843999999,34.06169164708218,0.15909770493037623,9.799579999999999,1.8149162525031286,9.4645,3.2939210036000004,489.9879613863407,1.3339730328599306,1.4138200000000003,1.4014643583052693,1.391,1.9641023476,71.19638505561362,0.573116676359767,0.64998,0.32873043607186725,0.6415,0.1080636996,33.562155728401294,0.021275976137897095,9.64674,0.06977042639972884,9.664,0.0048679123999999805,482.3390192132964,0.0015647172482078137,1.5598799999999997,0.37790303729925223,1.5394999999999999,0.1428107056,78.30068728878429,0.0575080528909078,0.029919999999999992,0.7398311385714986,0.044,0.5473501136,4.452881154257815,0.12614781823307808,0.17216,1.781544401467446,-0.33499999999999996,3.1739004544,8.985551322587542,1.4500948185326832,-0.18147999999999997,1.3469811467129005,-0.366,1.8143582096000004,10.080094802288192,0.4951515532020898,-0.026760000000000003,0.36023312229721466,0.022,0.12976790240000002,2.080299824372282,0.04955237888839916,-0.038220000000000004,0.39521398204010955,-0.033,0.15619409160000003,2.802212275985325,0.03233876331791987,0.015539999999999998,0.1999327096800321,-0.028,0.0399730884,1.9882086170272886,0.01790418000810434,33.524,1.270206282459664,33.7,1.6134239999999997,1676.4795472967214,0.4985699315218806,-24.300000000000004,1.4452681412111734,-24.4,2.0888000000000004,1215.5504486540067,0.5868226859417467,-18.130000000000003,2.518590875866901,-18.85,6.343300000000002,909.8043592065072,0.2594689867727244,269.274,11.836279989929269,269.2,140.09752400000002,13468.01477261508,24.872417951270677,-79.902,2.3221102471674326,-80.25,5.392195999999996,3995.3852596699576,1.821869743684636,-22.614,10.296659846765843,-24.0,106.02120400000001,1158.15664227461,33.90737250630283,0.0611244587451508,1.0640040707938248,0.26720398136839485,1.1321046626658304,6.010713876011304,0.18387412614340687,0.13907395959645175,1.0456253747435027,0.19441482323293197,1.0933324243074902,7.620141674556463,0.34175856667022203,9.94132603614251,1.857085956666259,9.629252450655184,3.448768250447034,497.0744370737286,1.4629366447792291,0.0
0.80332,0.778747210332082,0.6955,0.6064472176,40.3308944195043,0.17418405202934106,9.716660000000001,1.7782158880181,9.6525,3.1620517444000003,485.8354121001883,1.2428005848028576,1.5256200000000002,1.3257249170171013,1.391,1.7575465556,76.45228704833819,0.5084784603790332,0.8244600000000001,0.20523832098319256,0.815,0.04212276839999998,41.43615645074769,0.022980592845134463,9.627080000000001,0.06210534276533693,9.6305,0.003857073599999988,481.3556695792545,0.0012930332906340735,1.6326000000000003,0.31743389863088034,1.6775,0.10076428000000001,81.94462645813863,0.044373402217018444,-0.008820000000000003,0.6747981828665516,-0.07900000000000001,0.45535258759999997,2.5267892306177413,0.14830630909160128,0.12119999999999999,1.7447215594472374,-0.036500000000000005,3.0440533199999997,6.124888913636792,0.9657179301930408,-0.12882000000000002,1.2878719764013813,-0.41700000000000004,1.6586142275999998,10.484601873303115,0.5080886668920223,-0.05866,0.3219103359632927,0.0165,0.10362626439999997,3.1585227885805427,0.031380091365994026,-0.059899999999999995,0.3379299483620829,-0.022000000000000002,0.11419665000000002,3.5471645968905223,0.052159684757146337,0.00578,0.18887819249452809,-0.0165,0.0356749716,0.9841564724897931,0.010751966895857192,31.142,2.368551456059167,31.4,5.610035999999999,1558.3917099658354,0.3173047318859184,-24.007999999999996,1.2743374749256964,-23.7,1.6239359999999996,1200.785843340784,1.0950900268247568,-21.288,3.308633554807785,-22.0,10.947056,1068.0964531177976,2.0997139805249767,270.19199999999995,9.23256930653651,271.4,85.24033600000004,13511.41049103615,54.069760341617965,-79.206,1.8681980623049583,-79.1,3.490164000000001,3960.5126902098536,1.1427895849740528,-27.162,6.546995952343334,-27.1,42.863156,1368.3662101856416,31.893029708904002,-0.005088802566753343,1.0829502019024706,0.08011349700133466,1.172781139800602,5.503842607710316,0.44370478370091876,0.11985943253852614,0.9565128652899539,0.3312583930860848,0.9149168614651976,8.434182499007688,0.14970999062205015,9.873885892042889,1.821168221271887,9.788826278335932,3.3166536901706083,493.69489017391663,1.271161892236831,0.0
0.6989,0.9153282962959246,0.624,0.8378258899999999,35.191986289020456,0.12173396790556065,9.81524,1.7214070007990558,9.780999999999999,2.9632420624000004,490.77597716684227,1.4861759266165282,0.97528,1.321262533185589,0.925,1.7457346815999997,51.5113829827508,0.24834701117441702,0.74062,0.27016675517169025,0.78,0.07299007560000001,37.37439058194935,0.014259564711470806,9.6891,0.07532097981306403,9.702,0.005673249999999999,484.45800032940144,0.002324014889726125,1.10436,0.6676575697166924,1.1865,0.4457666304,57.92795013845061,0.04340786848349476,-0.03703999999999999,0.7851769471908864,-0.0895,0.6165028384,3.4815204239664017,0.12206261440073961,0.11704,1.712479359992406,0.025500000000000002,2.9325855584000005,6.23041639302463,1.5893128364549114,-0.13834000000000002,1.1847162801278626,-0.30200000000000005,1.4035526644,10.177146930946604,0.2022583897867855,-0.03042,0.3769193064834966,0.0125,0.14206816360000002,4.295113047492719,0.04638752999102974,-0.019899999999999984,0.4077710754823103,0.0115,0.16627725,2.989538780697791,0.0200822714640252,0.014379999999999997,0.23565694473110696,0.002,0.0555341956,0.9777044471070195,0.015781322928758522,27.272,4.134345897478826,28.4,17.092816,1370.8996830661843,0.26120034821380694,-24.581999999999997,1.607319507751959,-23.95,2.583476,1230.099378654543,0.1347931230768097,-21.028,4.291947809561528,-22.6,18.420816,1060.9194330000175,0.5989522739226952,263.19,32.32116489237354,271.7,1044.6577,13177.617472966747,11.086328090436016,-81.672,3.1357959117263996,-81.55,9.833216000000002,4084.2627190009684,1.843713412969676,-38.986000000000004,31.32097706011101,-32.8,981.003604,2036.2087844459877,4.660395248345898,0.03874360923221054,0.963556849485888,0.1344364590239164,0.9284418021911703,7.443537997450935,0.07825982299268655,0.12396631447920012,1.0633508462496655,0.19174746887151406,1.1307150222198799,8.881253318103473,0.0886817397998006,9.904725428676125,1.7736289983374849,9.831469049005857,3.1457598237436297,495.2430989625539,1.6171633457476604,0.0
0.5925,1.1494744929749419,0.6485000000000001,1.3212916099999998,29.959032671301266,0.17942328355345893,9.82262,1.7460786338535845,9.4345,3.0487905956,491.1795988906899,1.1074826196034417,0.8513199999999999,1.5343207414357662,0.716,2.3541401375999995,44.824128645350825,0.2754309297099886,0.73978,0.3092160597381708,0.8294999999999999,0.09561457160000002,37.718895758287104,0.010137898617078683,9.714500000000001,0.05464512787065276,9.7075,0.0029860899999999907,485.7266709428714,0.0006131317971183081,0.9177600000000001,0.5568588532114759,1.0739999999999998,0.3100917824,47.815735876418906,0.06000718874156483,-0.11826000000000005,1.0936142795336936,0.04100000000000001,1.1959921923999999,9.459033794284295,0.13825488894974233,0.1,1.6986219708928765,-0.31,2.8853166000000003,7.601794243612727,1.034503697426639,-0.05106,1.4334705634926723,-0.256,2.0548378564,3.953720815313276,0.35004655902491216,0.04823999999999999,0.423329449011051,0.035500000000000004,0.17920782240000002,2.6421764523207116,0.019273104313903226,0.09280000000000001,0.6210728459689733,0.0635,0.38573147999999996,7.713114949566034,0.0361255554661285,0.02212,0.33090999622253786,-0.0005,0.10950142560000004,1.6963224644076196,0.008433018839627632,27.651999999999997,4.1450809401023765,29.45,17.181696,1389.0146741189233,2.597659038510739,-25.914,1.3741921263054888,-25.75,1.8884040000000004,1295.8630246739117,0.5277784205261263,-18.972,3.8176977355469095,-19.9,14.574816,953.584293199101,4.8362367751305975,257.742,31.684533072147364,264.9,1003.909636,12899.253819603315,89.54746303672172,-82.66,2.794709287206811,-82.1,7.8104000000000005,4133.560653434728,1.1023887133498877,-41.85999999999999,30.97016628951159,-36.6,959.1511999999999,2148.2334073241996,98.84532224657646,-0.0804926916146006,1.4289165713540688,0.2545245136226477,2.041802567890268,9.34770884953602,0.285691859510816,0.11705709687405007,1.1237160337588759,0.22806242319757786,1.2627377245267788,8.543102426796363,0.15858170157606186,9.891929782253833,1.7632048812349246,9.562111882907612,3.1088914532106644,494.64783886100145,1.1520119805167488,0.0
0.86142,1.4691305468201252,0.827,2.1583445636000005,43.947652262256184,0.5076781537607675,9.76454,1.6832912310114376,9.564,2.8334693684000007,488.242896958615,1.4280515751713114,1.18006,1.5740742982464329,0.857,2.4777098964,60.9092563181179,0.7956620671548112,0.8330999999999998,0.30559033034440075,0.8395,0.09338545,41.98275247622221,0.021150138480039743,9.691659999999999,0.04560509182097969,9.692,0.0020798243999999885,484.5835423378887,0.0013185501152738785,1.17198,0.27985456866022396,1.2185000000000001,0.0783185796,58.71550236297349,0.06789436731618648,0.06045999999999996,1.4479554027662593,0.093,2.0965748484000004,8.131821734615727,0.4546402042410199,0.12358000000000001,1.6488579573753466,-0.041,2.7187325636,7.35725707774777,1.296551485918201,-0.05061999999999999,1.5234507526008183,-0.4705,2.3209021956,13.730015954049568,0.5372089362907637,0.02734,0.38984348705602356,0.034,0.1519779444,2.252238930695838,0.020429791942165997,-0.03175999999999999,0.8763903824209847,0.11649999999999999,0.7680601023999998,11.586603072891865,0.03564289788959393,0.007140000000000002,0.3121535525987171,-0.0165,0.09743984040000003,1.4286637778313978,0.034057357540045935,27.599999999999994,3.782591704109763,29.45,14.308,1385.3474665633978,0.15014933706119762,-25.436,2.407302224482834,-25.1,5.795104000000001,1273.6279507430202,0.25928322951106436,-22.034000000000002,8.256624249655545,-21.45,68.17184399999998,1124.955961344154,0.5864285989836052,267.788,21.08971920154463,270.05,444.77625600000016,13397.935008686081,49.72975275645108,-81.48,2.0051932575190845,-81.2,4.020799999999997,4074.1468248121632,2.9787297629033667,-34.494,11.435145998193464,-34.45,130.762564,1728.7152057203543,49.81943970634775,-0.04555826858218404,1.6269819423973422,0.382438651875324,2.647070240887029,9.958617939081549,0.7029181012198813,0.004867470543656189,1.302972555230032,0.3391541291200927,1.6977374796826787,9.53868931387504,0.4270658732816857,9.883611550421454,1.7081179735897145,9.75552303584703,2.917667011700233,494.1900373197112,1.3758797069527797,0.0
0.76018,1.353114417778482,0.4895,1.8309186276,40.40004024533883,1.742284074752823,9.79604,1.6665783985159537,9.7005,2.777483558400001,489.803418769234,0.9099131170113078,1.2055799999999999,1.2127814492314763,0.9,1.4708388436000002,62.01382860419263,0.6183789496221844,0.6891800000000002,0.339524237131902,0.646,0.1152767076,35.02097796394335,0.06412400993361947,9.698,0.040197014814535616,9.706,0.0016157999999999956,484.9005695601943,0.0006551114710925871,1.2039000000000002,0.27636571784503233,1.1915,0.07637801000000001,60.50814701642952,0.017747398331614685,0.05705999999999993,1.2495805121719847,-0.0515,1.5614514563999997,11.598292956667393,1.6734800359637803,0.13512,1.6631705341305203,-0.0205,2.7661362256,7.24147770445053,0.9497066737045702,0.005199999999999989,1.2790191554468604,-0.3945,1.63589,11.700872459929498,0.7371352631179421,-0.010140000000000005,0.29535179092059016,-0.0205,0.08723268040000001,1.5099975734726394,0.030472748288399756,0.019060000000000018,0.769750307827155,0.259,0.5925155364,15.220048815725615,0.6361770545625164,0.004920000000000001,0.19398524067567616,0.0035,0.0376302736,1.5994654086308187,0.018758180863109063,24.833999999999996,4.134760452553449,24.7,17.096244000000002,1248.9874350871635,9.538089857060552,-21.386,4.312262051406431,-21.6,18.595604,1077.7285249980712,4.23155847723166,-21.518,10.193580136536918,-26.5,103.909076,1126.8016914049228,80.47682093172065,275.108,21.18560681217321,274.95000000000005,448.8299359999999,13765.46269942183,536.1254224367024,-81.6,1.62726764854464,-81.85,2.648000000000002,4080.1180363997223,0.9565903308642005,-29.644000000000002,13.75655712742109,-31.25,189.242864,1509.8751674619448,93.70324889708624,-0.010103957380144708,1.2476173940191677,0.18661427162140737,1.5565491618591794,9.320175376079902,1.086817765043124,-0.016876436896600695,1.170113795619711,0.2347841132114435,1.3691662946995666,12.91159788483518,1.068048463529079,9.909461870377866,1.7173818908126888,9.860456807446162,2.949400558891366,495.4763131393411,1.049636827805155,0.0
0.41118000000000005,0.8066867716778304,0.43699999999999994,0.6507435476000001,21.215375184988037,0.21365742485700512,9.839319999999999,1.6518895052635933,9.6475,2.7287389375999993,491.969008877483,1.334695664707009,1.3038399999999999,1.0295320560332255,1.0465,1.0599362544000004,65.32784310573442,0.31582538926842896,0.49652,0.15713042226125404,0.508,0.0246899696,25.02162128043119,0.008104662653603677,9.695260000000001,0.039778793345198384,9.699,0.0015823523999999995,484.7632954072801,0.0008581895935102645,1.3429399999999998,0.3081659559393283,1.3359999999999999,0.09496625640000002,67.35110069634865,0.05605052418706544,-0.10007999999999999,0.751785949323343,-0.08099999999999999,0.5651821136,7.0743807199346085,0.16533521160722112,0.15026,1.6494296566995514,0.036500000000000005,2.7206181924,7.57290561386524,1.2514883241631662,0.019839999999999983,1.0810680341218124,-0.3575,1.1687080944000001,2.286360754386502,0.3761213348315371,-0.007439999999999995,0.24360181936923211,-0.019,0.059341846399999995,0.7352039197492715,0.022893703353658194,0.23468,0.3125512719538988,0.299,0.09768829760000002,12.770013001076013,0.04025317171464474,0.03734000000000001,0.12948785425668308,0.028999999999999998,0.0167671044,1.9788465577662215,0.005019887567664313,28.195999999999998,4.790739400134388,30.45,22.951183999999994,1419.1992623865592,5.206640919146856,-22.421999999999997,4.916840042140887,-22.700000000000003,24.175316,1133.312036689326,1.8213434172854612,-9.096,11.719384966797532,-4.15,137.343984,587.6343797356935,10.834372431587292,260.996,20.7908822323633,259.1,432.2607839999999,13067.71370157558,69.73033198494144,-81.548,1.5546369351073575,-81.75,2.416895999999998,4077.474937280775,1.580463746505441,-21.605999999999998,9.32985337505365,-21.049999999999997,87.046164,1098.1787797597349,46.04242787610544,-0.10129343660059634,0.9791814765425686,-0.02408170383199154,0.9587963640040847,6.7507843219720725,0.24115545744943867,0.09243245024290161,0.7548735007557382,0.2969132756754741,0.5698340021432236,5.492964939272301,0.19793548948979728,9.933506082320955,1.7025648205542792,9.804751867495042,2.8987269681890244,496.67790939542647,1.4374522919207344,0.0
0.57382,0.7449256523976067,0.6705,0.5549142276,29.37360516270653,0.19102619201439636,9.79278,1.4349195139797908,9.5075,2.058994011599999,489.6684034780307,1.0835344077601674,1.7143799999999998,1.1752309711711992,1.5635,1.3811678356000001,86.82839821183423,0.204653904362016,0.5059,0.09034782786542242,0.4895,0.00816273,25.35254727511505,0.001680153380729433,9.65568,0.060174227041151135,9.666,0.0036209376000000044,482.7869913305603,0.00033132753721917905,1.5949200000000001,0.3559277926771103,1.575,0.12668459359999998,80.39277009692003,0.016603688146426033,0.054040000000000005,0.7529749254789299,0.10700000000000001,0.5669712384,7.122041336746466,0.17567047022904356,0.16488,1.4267508772031647,0.08,2.0356180656,9.061569923170069,1.0914997270382767,0.17012,1.4018519841980466,-0.2855,1.9651889856,12.365424526656792,0.2334110951069096,0.0057199999999999985,0.26549350575861547,-0.0415,0.0704868016,0.8223037944482006,0.007666649424688541,0.10600000000000001,0.2718783551517112,0.081,0.07391784000000001,6.737592409569591,0.019083656192085945,0.02258,0.10979910564298782,0.0205,0.0120558436,1.4965240363663255,0.005231962883727856,30.578000000000003,1.462640078761689,30.45,2.139316,1529.5884309291089,0.320439447136984,-29.143999999999995,2.551482706192617,-30.3,6.510063999999999,1459.232705505934,1.1065060500764623,5.97,5.946940389813908,9.149999999999999,35.366099999999996,352.2070415908969,0.9667632143934658,233.85799999999995,10.075596061772226,232.2,101.51763599999998,11696.560895450973,7.892694646946515,-80.12799999999999,1.966625536293068,-80.4,3.8676159999999977,4006.7675634969514,0.49386948461669034,-18.534000000000002,5.693210342153186,-18.0,32.412644,939.6185537042579,7.595162698764033,0.024021078966439822,0.9447395722384395,0.013322411921152189,0.8925328593532698,5.694608425199256,0.2587733492489004,-0.09915907286044678,0.9715416893548227,0.22404666870011672,0.9438932541544227,8.346099181911605,0.13014759612809637,9.958817666484812,1.4618821492299143,9.647491468177337,2.1370994182370735,497.95921751078197,1.138553742906412,0.0
0.61348,0.6262156893595049,0.6535,0.39214608959999997,30.932433185054276,0.1882635118977256,9.71988,1.3563722444815807,9.383,1.8397456656000006,485.9997455469171,0.74792737105008,1.7641,1.3791142991064955,1.5085,1.9019562500000005,88.87787169092483,0.5041465500254181,0.528,0.09838231548403402,0.5275000000000001,0.00967908,26.45924875178785,0.0008344904812056856,9.66278,0.060407380343795725,9.6845,0.003649051599999998,483.14210316310056,0.001295586944906225,1.54316,0.3578870972806927,1.4409999999999998,0.12808317439999997,77.85558179648136,0.031326062156319,0.06442,0.6300903138439758,0.07450000000000001,0.3970138036,5.597389288651001,0.186124724285493,0.08796,1.3651004206284607,-0.1385,1.8634991584000002,5.143351293698811,0.7335555381426098,0.26538000000000006,1.5490747159514289,-0.22,2.3996324756,15.26899433563576,1.10776418236851,0.02408,0.2627852994366313,-0.0155,0.0690561136,1.673862520382281,0.023137369629161086,0.07746,0.25483431558563696,0.027000000000000003,0.06494052840000002,4.557904957364395,0.022410192647884748,0.0228,0.10517300033753911,0.0175,0.011061360000000003,1.2284914782008003,0.0033859291802005335,27.011999999999997,3.224694714232651,28.4,10.398655999999999,1354.3547587067121,0.20808478051502244,-31.508000000000003,0.6659849848157241,-31.4,0.4435360000000002,1575.478164940888,0.10092115105228053,15.512,4.564587166436851,14.1,20.835456,788.4439935342584,0.07396270999881267,215.24,12.27320658996662,217.64999999999998,150.63160000000005,10768.85871010151,1.028087309168096,-80.30199999999999,1.9356125645386784,-80.7,3.7465959999999994,4015.4615115101547,1.0906257310785654,-19.692,6.125711060766742,-19.45,37.524336000000005,997.7227616533966,2.060674680228947,-0.0071336288402994216,0.9216164416869644,0.09512639935574897,0.8493768655877418,5.262184814517957,0.2648285304006388,-0.2028385049804973,1.1729220346916869,0.0916070566951424,1.3757460994652868,11.625115216579113,0.5250470324024805,9.899345213919897,1.354610188513666,9.574145870510849,1.83496876282503,494.9771496866674,0.7460536160679856,0.0
0.4820999999999999,0.6969687295711336,0.5275,0.48576541,24.168608602555516,0.03601061201632741,9.729640000000002,1.735477349434443,9.382,3.0118816304,486.48666113933416,0.8230984545338484,1.6302,1.6124922077331103,1.1145,2.6001311200000004,81.84330608481905,0.3680421218504887,0.5704600000000001,0.14776023957749934,0.5555,0.0218330884,28.673232357052918,0.006414068273602254,9.67776,0.04572419928221813,9.687,0.002090702399999997,483.8896510848773,0.00023352104883556048,1.44382,0.28024201612177996,1.3945,0.07853558759999998,72.59051762946206,0.011270812341530446,-0.10750000000000001,0.6553188918381645,-0.040999999999999995,0.42944285,6.129812009822105,0.027923060224488767,0.05813999999999998,1.7650289517172233,-0.2025,3.1153272004000003,3.9147156819930187,0.8135714603668014,0.16558000000000003,1.5833099771049257,-0.47850000000000004,2.5068704836,8.802561245333141,0.36928231889468577,0.020019999999999996,0.24481401022000354,0.0075,0.0599338996,2.497695719825198,0.006031843119295664,0.09604000000000001,0.2726330104737869,0.081,0.0743287584,5.620152407487952,0.023860484460249357,0.031039999999999998,0.17344681720919528,0.0335,0.0300837984,1.710316635021186,0.002283482532563109,20.928,4.296186215703411,20.25,18.457215999999995,1055.075823239355,0.5604741638349537,-31.166,1.101201162367712,-31.35,1.2126440000000003,1558.5008100458842,0.1145521816394314,22.108,3.2046116769430895,22.9,10.269536,1109.0549700757801,0.5605244221571648,198.446,10.876345158186181,197.25,118.29488399999997,9926.271446897574,14.159840471490568,-80.766,1.5453944480293689,-81.0,2.3882439999999976,4038.523825836685,0.32024444932869583,-22.104,6.6295085790728105,-21.65,43.95038399999999,1115.2227244143485,12.596966647495556,-0.17797080780201974,1.0304567819327934,-0.062324791308462996,1.0618411794312888,9.358158170895093,0.09540965692118553,-0.11355534546150865,1.3649665498452646,0.3798680497767172,1.8631336821964848,6.3617752511874,0.3118208747367506,9.876407481598669,1.7721955622564627,9.460559845454629,3.1406771108815,493.8241942578269,0.8327123242213625,0.0
0.60312,0.8542002725356626,0.7424999999999999,0.7296581056000001,30.982784892544746,0.28681723455273667,9.66364,1.822526397723775,9.5495,3.3216024703999993,483.2027519605893,1.597657426771063,1.8828799999999999,1.5611922449205287,1.554,2.4373212256,94.57061352882502,1.0049968667244955,0.7270600000000002,0.2878471406840791,0.685,0.0828559764,37.33377533876317,0.00717068351302928,9.61774,0.09154754174744408,9.6565,0.008380952400000015,480.8938353178715,0.0015030243576574986,1.6992600000000002,0.4032401671460818,1.6015000000000001,0.16260263239999997,85.5973889970736,0.04483407296329352,-0.12666,0.803231662971524,-0.1225,0.6451811044,7.39194187599698,0.29857418441384376,0.0438,1.8299895955988383,-0.1285,3.34886192,3.476909462637053,1.667868876344147,0.13812,1.5173833746288379,-0.109,2.3024523056,7.464798242866726,0.9214732330147966,0.016079999999999987,0.31384281670925657,0.02,0.0984973136,3.0953292129557433,0.017362469984574375,0.05808000000000001,0.2754395643330856,0.024,0.0758669536,4.424677573605436,0.03497393535161893,0.018940000000000002,0.18994277138127685,-0.021,0.0360782564,1.3141350642668828,0.00893538457900412,12.021999999999998,5.821075158422196,14.0,33.884916,629.7814023763434,0.7786251914107067,-28.999999999999996,2.586580754587028,-29.9,6.6903999999999995,1452.622534588713,0.2242289378630347,25.390000000000004,1.789776522362499,25.1,3.203300000000001,1270.7017159417885,0.4658449441166322,181.572,12.839595632261945,179.7,164.855216,9087.57393114942,11.345287879911274,-79.01599999999999,2.637146943194481,-79.85,6.954543999999996,3951.398052840095,1.657388133750078,-23.022000000000006,6.9307803312469805,-23.05,48.035716,1167.1647548076596,10.556816763274238,-0.20808392326893219,1.0727211550296563,-0.09491850693795978,1.15073067644816,11.35015937866616,0.5425102972290361,-0.096011223417181,1.2882781693644616,0.29558965170119555,1.6596606416610482,5.539873265417333,0.5342089729692046,9.864736149354682,1.8993638385945748,9.657659622477269,3.607582991360718,493.24314600272317,1.7962999692124688,0.0
0.8137800000000002,0.8243987455109328,0.9204999999999999,0.6796332915999999,41.61288869899183,0.07554839477242392,9.59844,1.5155833353530912,9.542,2.2969928464000002,479.9582063937923,1.5464615362744476,1.8892800000000003,1.1217237813294323,1.871,1.2582642415999998,94.77762991608168,0.5718818957881646,0.97104,0.2750071242713541,0.9775,0.0756289184,49.339528237175784,0.01347232490026099,9.583680000000001,0.07827424608388134,9.59,0.006126857600000013,479.1904601135903,0.0015597909128767823,1.7864999999999998,0.3269916359786592,1.7235,0.10692352999999997,89.80878487048157,0.040506248911129916,-0.13121999999999998,0.7840553880944892,-0.12,0.6147428516,9.370150252327951,0.09207202432433963,0.026899999999999993,1.500765328090971,-0.0715,2.25229657,6.726547792745278,1.5029164092227565,0.10647999999999999,1.1257788635429251,0.063,1.2673780496,6.878821880019376,0.5437442405065017,0.009539999999999995,0.3216246389815307,0.008999999999999998,0.10344240839999998,2.2051320530836165,0.032833665888391345,-0.03386,0.2817517353983823,-0.037500000000000006,0.07938404040000001,4.230733947071326,0.018070933307480098,-0.008759999999999997,0.1522217540300991,-0.054,0.023171462399999995,1.3899131353778023,0.005759947911154092,9.928,4.3500822980720715,10.55,18.923215999999996,517.3809054190335,2.715210568312859,-29.892,3.161824789579587,-31.25,9.997135999999998,1498.5201013071885,1.5132547057587362,25.605999999999995,1.5701477637470937,25.6,2.4653639999999992,1280.779784086759,0.5544827365756146,174.002,8.006259800930769,174.45,64.10019599999998,8702.88732338098,12.398062058738953,-77.898,2.2121925775121842,-77.9,4.893796000000002,3895.502882066336,1.5022437695660065,-28.077999999999996,6.259977316252831,-28.1,39.187316,1413.2550801920627,9.0809854224132,-0.2009136195545992,0.9994213240655537,-0.05320548522995561,0.9988429829969445,12.406059322842609,0.06564110851020179,0.013603502018196907,0.8319780519467685,0.0858888026584324,0.6921874789211399,6.022020613494624,0.41979642340456386,9.815534086313974,1.5875346990540806,9.865600786123991,2.52026642070073,490.8074401078925,1.754400399169576,0.0
0.78778,0.7765617371465066,0.8594999999999999,0.6030481315999999,39.70221736080033,0.2440648411926748,9.754280000000001,1.3188292086544033,9.436,1.7393104815999998,487.74638007081967,0.7316370243876298,1.6198,0.9313202027229948,1.562,0.86735732,81.28377038471972,0.21133737128959992,0.93848,0.23119656052804935,0.9155,0.05345184959999999,47.218570506402585,0.01213713661000207,9.6397,0.06360919744816798,9.628499999999999,0.004046130000000019,481.9889000458696,0.0003151463492824599,1.48356,0.3262978492114222,1.5425,0.1064702864,74.82528212410098,0.008619583305722378,-0.12431999999999997,0.7298588751258698,-0.0335,0.5326939776,8.872358050989797,0.2162295308711777,0.11107999999999997,1.3063195296710526,-0.0865,1.7064707136,8.073437925075032,0.720893588723715,0.14812,0.9646227167136383,0.025,0.9304969856,8.7243620792033,0.20193112893759496,0.017419999999999988,0.2840526070994597,0.02,0.0806858836,1.6016172274664744,0.015137016452347064,-0.03786,0.25787043335752935,-0.011000000000000003,0.06649716039999999,3.495501438509084,0.017592198239005787,-0.00776,0.18499195225738876,-0.0285,0.0342220224,1.123936834385991,0.00833169000910714,15.642000000000001,3.3489156453992686,16.0,11.215235999999999,788.4408855495009,2.5651735468209207,-31.792,0.9820061099606253,-31.9,0.9643359999999997,1589.7941278022918,0.08787333389113024,24.56,1.459726001686618,24.75,2.1308000000000002,1228.676583611541,0.502644379064193,180.24800000000002,8.669884428295454,181.95,75.166896,9014.17233183705,30.84317643723085,-79.556,2.1776280674164727,-79.05000000000001,4.742064000000003,3978.354616906354,0.3025473333992361,-32.09799999999999,5.981955867440013,-31.4,35.783796,1606.550041874423,11.121684384624679,-0.209661848520024,0.954585789287451,-0.04866746226050478,0.9112340291095457,11.30737632915536,0.30408070949724064,0.01838707949754691,0.7160911292611039,-0.06618718426185016,0.5127865054064429,6.7990700570192075,0.12469186282477472,9.913382003152648,1.3625652900451968,9.644673016147078,1.856584169635951,495.69102694337784,0.7723316630136214,0.0
0.85488,0.8125552938723616,0.9555,0.6602461056,43.53619232686746,0.09334489135089316,9.85828,1.4693192442760696,9.68,2.1588990416000002,492.9396327192252,0.6798515766782168,1.30582,0.9345951998592759,1.274,0.8734681875999999,65.55381485265826,0.18699736978092646,0.92444,0.27891949806350935,0.9045000000000001,0.0777960864,46.786691690181414,0.015047650231201375,9.68882,0.04066334467305925,9.690000000000001,0.001653507600000016,484.4412823183259,0.0007225409147461412,1.1371,0.2626365739953215,1.0895,0.06897796999999999,56.89704321829664,0.0346997413213959,-0.056839999999999974,0.7508756850504615,0.09100000000000001,0.5638142944,3.8301024359759914,0.13471807941937383,0.17187999999999998,1.4567087373939924,0.1565,2.1220003455999996,10.932904115111546,0.6544236471999595,0.1655,0.9547335177943636,-0.0235,0.9115160900000002,9.667819158739912,0.17607610797126116,0.04298,0.3055128468657251,0.023,0.09333809959999999,2.7004239811577824,0.026869551624625454,0.04331999999999999,0.2415412544473511,0.0585,0.05834217760000002,3.368665972116164,0.01607861245977058,0.01378,0.19281061070387182,0.009,0.0371759316,1.0986166423457426,0.020038690752062112,15.209999999999997,3.6403433903960214,15.649999999999999,13.252099999999999,769.0679050016522,0.392387079533851,-30.018,1.366409894577758,-29.95,1.8670760000000002,1501.3577891169498,0.2896772002842556,25.082000000000004,2.184279286171986,24.7,4.771076000000001,1255.7339105339445,0.8266822759579331,173.658,13.881845554536326,176.05,192.70563599999997,8690.931433797621,31.141879214182868,-81.208,1.5643324454859335,-80.75,2.4471360000000013,4060.467346083175,1.2251285904808906,-38.428000000000004,10.821590271304862,-36.5,117.10681600000002,1939.5882174353048,25.41757369087999,-0.1743710940194842,0.8977008749407335,-0.004650461092726265,0.8058668608693584,9.08401091353807,0.09549005781620878,-0.03276471807491829,0.8094624437288725,-0.11238448427012188,0.6552294478075181,4.832216659529407,0.22989356426826155,9.97747647449744,1.507206577411738,9.917039314554376,2.2716716669932056,498.90116541625474,0.7393786748581678,0.0
0.8394999999999999,0.9916345949995896,1.0070000000000001,0.9833391700000002,43.145643488149894,0.28105089069532585,9.761679999999998,1.6017595255218555,9.668,2.5656335776,488.0874960732311,1.1202889374366276,1.33314,1.1824628029667572,1.075,1.3982182804,67.6748900702722,0.4509667577673244,0.9244600000000002,0.30768030226194204,0.9775,0.0946671684,46.89431977109414,0.053046954712616876,9.680019999999999,0.05187773703622787,9.6765,0.0026912996000000083,484.0030542819781,0.0010192277268900546,1.17736,0.35820071245043605,1.1400000000000001,0.12830775039999998,59.86644969293607,0.010219687190901208,-0.07995999999999998,0.8574474201955476,0.045000000000000005,0.7352160784,6.887355136212748,0.19806591289048908,0.08608,1.5732461452678026,0.0435,2.4751034336,4.6200678684801035,1.0742474602674603,0.18472000000000002,1.1839712334343264,0.14400000000000002,1.4017878816,10.876573539922783,0.5236613858244523,-0.0015999999999999931,0.3316337136058395,0.014,0.10998091999999998,1.8803002760028606,0.00678776125302998,0.0031,0.2398511413356209,-0.018000000000000002,0.057528569999999994,3.493461619149326,0.025751077453576455,-0.00902,0.23675349965734402,0.014499999999999999,0.056052219599999994,1.518781740189529,0.012273450963103755,12.550000000000002,2.1675100922487074,12.9,4.6981,630.3403667003905,4.572288513668535,-29.053999999999995,1.1916727738771244,-29.15,1.4200840000000001,1453.0269844305135,0.14131226886426096,26.288,1.901119670089182,26.5,3.6142559999999997,1315.621463153724,1.9572032166288869,168.76000000000005,12.672679274723242,169.85000000000002,160.59679999999997,8444.87125980917,53.82772273210926,-81.038,1.9895617607905518,-80.65,3.958356000000001,4052.2834171335057,1.4661729137174868,-38.332,12.990634164658783,-36.05,168.756576,1950.9326010260472,34.46661440640232,-0.1690861988418743,1.067534414495695,0.01891323597036329,1.1396297261326667,9.76085025027171,0.36430934125734193,-0.06907320035219179,0.9279699684514394,-0.11699037787117292,0.8611282623477655,8.45595554587317,0.2817170815245458,9.89885874091361,1.6425852639397793,9.90376782486317,2.6980863493121148,494.9478700067061,1.172116922975287,0.0
0.6812600000000001,1.0509665229682628,0.7589999999999999,1.1045306324000002,34.3221141487965,0.40042300162993477,9.604819999999998,1.7294507994158148,9.567499999999999,2.991000067600001,480.2924620978467,1.0719931919644154,1.79332,1.3581778004370417,1.6855000000000002,1.8446469376000005,90.6977174373261,0.5995145043366994,0.7731399999999999,0.22977336747325616,0.792,0.05279580040000001,38.70683285421326,0.03393922935817114,9.62154,0.07725728703494586,9.628,0.005968688400000013,481.08275908976987,0.0012089498476250383,1.6474599999999997,0.4736535953626869,1.7395,0.22434772839999997,83.59036316685192,0.06175620556451706,-0.10978000000000002,0.9167005681246193,-0.0055,0.8403399315999998,6.250657716957911,0.27987309256868087,-0.04338000000000001,1.6869869340335746,0.025,2.8459249156,8.753646056248597,1.0853138903390402,0.17968,1.2829606297934477,0.15,1.6459879776,10.880202513174543,0.6063870030733773,-0.030059999999999993,0.29385740827823276,-0.0565,0.08635217639999998,1.92902458465586,0.019849719974717198,0.01016,0.2847949690566882,0.0445,0.08110817440000001,4.152824974966027,0.012445991379399802,-0.02016,0.2625585923179815,-0.018,0.06893701440000001,2.099878089355368,0.021154764538490738,12.497999999999998,2.892299431248432,13.0,8.365396000000002,630.8239188651644,0.9536125922851794,-30.078000000000003,1.5942760112351941,-30.1,2.541716000000001,1504.5209217941435,0.9745102875696696,26.195999999999998,1.2569741445232672,26.15,1.5799839999999992,1310.3421347972806,0.44286695567407064,178.872,11.019619594160226,180.05,121.43201599999996,8947.079875916737,65.26017238217986,-79.226,2.600677604010155,-79.05,6.763524,3962.0797535002266,2.1799841399992754,-26.622,10.937628444960087,-24.85,119.63171600000001,1346.8814216819576,77.21350308892515,-0.1708622546945807,1.1346031714806961,0.002328187860170916,1.2873243567340538,8.819688905518262,0.3802758489429534,-0.10906097456158072,0.9746646983167473,0.03884838691338116,0.949971274144876,8.399234169778309,0.37847555976810654,9.811123014852104,1.8265645431543909,9.782610534837922,3.336338030308809,490.6238326958023,1.1751093310489094,0.0
0.7643599999999999,0.9694936360801962,0.7985,0.9399179104000001,38.41813104962602,0.16816881283915364,9.61488,1.7127805421594444,9.582999999999998,2.9336171856000006,480.8070360325509,1.235078011524256,1.81698,1.274813358731387,1.5935000000000001,1.6251490996000002,91.6405841970761,0.5139175984787452,0.77,0.23997108159109506,0.736,0.057586120000000005,38.732302872696444,0.017289088002386467,9.60374,0.06740142728459102,9.620000000000001,0.004542952400000011,480.19030203702164,0.0011804257286696796,1.7769599999999999,0.35300962933041924,1.8025,0.12461579839999999,89.40272623802656,0.025792035779982216,-0.007479999999999998,0.8994918174169235,0.0115,0.8090855296000001,3.8103738454246714,0.1348979042833937,-0.011300000000000011,1.6988231485354797,-0.0485,2.8860000900000005,6.6899718460219955,1.1621177600367876,0.011319999999999981,1.151053994215736,-0.037,1.3249252975999999,5.4143948984056935,0.43128403889550593,0.0001800000000000032,0.24922878565687392,-0.0005000000000000004,0.062114987600000005,1.3033094602610305,0.007395853733860134,-0.02864,0.3172555915976896,0.006,0.10065111040000002,5.414890726204302,0.019880196039127714,0.009780000000000002,0.21107972806501338,0.0165,0.044554651599999995,0.8497156248039637,0.02500662387798851,11.524000000000001,2.9934301394888108,11.5,8.960624000000001,583.6312848718995,2.9843537649017824,-30.690000000000005,1.0833743581975719,-30.7,1.1737000000000009,1534.6827639622488,0.44418460273328936,26.493999999999996,1.3676856363945622,26.6,1.8705639999999988,1325.3547218479066,0.42001822264858496,179.76600000000002,8.767225558864103,180.35000000000002,76.86424399999999,8990.892264091744,19.656335940544245,-78.524,1.9695238003131617,-78.8,3.8790239999999985,3926.55762561415,0.8850507144628528,-23.630000000000006,8.027658438174857,-23.25,64.4433,1195.4605346021965,11.937507464220129,-0.05759608410843426,1.075260839728651,0.06441707273556115,1.1561858734539634,5.806842063739256,0.1661671060175344,-0.03432582913816769,0.9265375850269733,0.04279899852362956,0.8584718964676157,4.9244443742015855,0.2944279942014111,9.826485510241294,1.8031343032746165,9.710857562522248,3.251293315645637,491.3792896473177,1.4319845250295595,0.0
0.833,0.9960221282682429,0.6910000000000001,0.99206008,42.1199628188046,0.18854112840908788,9.617259999999998,1.3248227777329316,9.461,1.7551553924000007,480.9830529497496,1.2019294227715065,1.85506,1.1348795955518807,1.7455000000000003,1.2879516964000002,94.16767509057576,0.17838422348210084,0.7608799999999999,0.3106659067229618,0.7805,0.0965133056,38.75006996918195,0.019246012027911198,9.56782,0.149255980114701,9.620000000000001,0.022277347600000025,478.406656624791,0.0007013017091458762,1.8877000000000002,0.6047294353675865,1.7254999999999998,0.36569769,95.93236518350417,0.03272913314495149,0.0332,0.9599426857891048,0.0465,0.9214899599999999,3.6624325659952546,0.1718034728581449,0.15645999999999996,1.321172664113211,-0.0595,1.7454972084,8.344219719954902,1.2569889508322967,-0.09312,0.98314535324132,-0.196,0.9665747855999999,10.108061664549394,0.1823275346944172,-0.03694,0.5578166512394552,0.0335,0.3111594164,2.5331857261725568,0.02230776983109412,0.02716000000000001,0.5591907495658346,-0.035,0.31269429439999996,8.501400418174816,0.011256141962750797,0.04003999999999999,0.3540966512126315,0.0455,0.12538443840000002,4.1285975935424135,0.009596345262263706,15.254000000000001,5.795522754678822,12.75,33.588084,785.6552531335689,0.9928884837719261,-28.676,2.672493966316856,-29.85,7.1422240000000015,1436.3851404383367,0.2847127020523023,24.811999999999998,2.7672831441686627,24.35,7.657856000000001,1243.6559416039638,0.22586494627221382,186.708,15.407645374942922,184.2,237.39553600000002,9347.346449715016,31.31091042773127,-77.832,3.3665079830590026,-78.8,11.333375999999994,3892.6749087461912,0.8525447155346246,-23.114000000000004,10.412127736442729,-24.85,108.41240399999998,1190.5136232756035,33.053497872715354,0.06209551265853169,1.0826773593548311,0.034461180473895306,1.1721902644595503,6.106665805116497,0.1545463101711319,0.0027140561006690576,0.9143438986065618,0.0012560786618284188,0.8360247649190466,9.184520594406967,0.0934948373956972,9.843676688115615,1.3236104758114324,9.675523625329859,1.7519446916777666,492.2454044983782,1.2792751147971024,0.0
0.41468000000000005,1.4627621602981122,0.3175,2.1396731376,25.16185552937361,0.1897207040722863,9.56654,1.2495500663838965,9.261,1.5613753684000005,478.4868205998435,0.49974364773366264,2.30538,1.5832147787334476,1.828,2.5065690355999997,116.12356708944368,0.2619187421922001,0.4517999999999999,0.47621587541786126,0.4635,0.22678155999999997,24.60002491417872,0.04248868985036865,9.500119999999999,0.1426744041515507,9.5465,0.020355985600000025,475.0215242019246,0.0008639381954457535,2.27468,0.5409270353753822,2.219,0.2926020576,114.87031477087122,0.028351322829830043,-0.10385999999999998,1.2516725451970256,-0.262,1.5666841604000001,5.846694250515466,0.14620481947131664,0.16874000000000003,1.203131361240326,-0.178,1.4475250723999997,10.347024392607548,0.467500658394888,-0.013760000000000012,1.4829673436728132,-0.2375,2.1991921424,6.396470909419515,0.23921655885448545,0.002519999999999998,0.64501144920071,0.098,0.4160397696,2.4362451775150578,0.009207319697457264,-0.006779999999999981,0.6232622655030545,-0.038500000000000006,0.3884558516,6.331326448948089,0.028655374004891085,0.012919999999999992,0.397898823320703,0.024,0.1583234736,3.0922346773164433,0.023791060509168443,19.416,4.122492449962765,20.4,16.994944,973.9274214688663,1.596014072306149,-28.39,2.862953020920881,-28.75,8.1965,1422.3113999989264,2.751058380909293,20.576,2.772981067371359,21.1,7.689424,1031.7053644113805,0.0942988630514732,205.28199999999998,14.927835610027334,205.55,222.84027600000013,10267.61318058135,46.02989474553298,-76.00399999999999,3.0990295255127847,-76.65,9.603983999999995,3801.1536733508037,0.4999785908320179,-12.495999999999999,12.516228825009552,-12.1,156.655984,701.4313365540096,38.39156568408319,-0.06126627446489316,1.266292844620802,-0.17077560439652134,1.6034975683378425,5.496003572500026,0.18452960001834984,-0.06572924938909418,1.6998228030281355,0.2508336029404711,2.8893975616944276,8.729814443038212,0.14126254643555322,9.860935072558535,1.2140972095102898,9.42610752143427,1.4740320341406723,493.15309855815417,0.5721978873572805,0.0
0.37252,1.583218737130154,0.1855,2.5065815696,23.949893459849214,0.6391991905567842,9.57154,1.2881244848227986,9.311499999999999,1.6592646884000006,478.5918487135239,0.5880228140256849,2.05946,1.8787985119219146,1.6389999999999998,3.5298838484000004,103.65567434544262,1.298471131429066,0.40797999999999995,0.4574550683947004,0.404,0.2092651396,23.393193960676026,0.12483281506339257,9.554799999999998,0.09483164028951517,9.574,0.008993039999999997,477.7468753551078,0.0033348904252171324,2.0789,0.41061238412887646,2.013,0.16860253,104.64170666392931,0.04231937166447604,-0.08574,1.363158579329639,-0.31899999999999995,1.8582013123999999,9.28485651628497,0.4023876537653333,0.042519999999999995,1.2509795560279953,-0.20400000000000001,1.5649498496,4.454428031065507,0.5224767158352358,-0.08393999999999999,1.7144145170873935,-0.449,2.939217136400001,7.606049876156326,1.3749736111005786,0.02678000000000001,0.4597516412151239,0.064,0.2113715716,2.749321317413121,0.04010319438986698,-0.06571999999999999,0.42865921382842104,-0.07400000000000001,0.1837487216,6.5661497113586105,0.11018210410687124,-0.020839999999999997,0.288480180255074,-0.0095,0.0832208144,2.3358184244046782,0.04104868458329475,20.886,2.714333067256117,21.45,7.367604,1046.1356293071035,4.397031383358236,-30.62,1.8451016232175397,-31.200000000000003,3.4043999999999994,1531.8680678945245,2.4198607580848797,19.496000000000002,2.114612021151871,19.85,4.471584000000001,976.4676794092727,2.5493535198817496,208.834,11.185912747737666,207.25,125.12464400000003,10444.535899683888,110.57732459528476,-77.19,2.411907958442859,-77.4,5.817300000000001,3860.036783124497,1.4305197190930428,-12.224000000000004,11.775339655398481,-11.9,138.65862400000003,691.7259712326171,59.862105077750975,-0.04923806783260352,1.242786149166706,-0.03741057313675347,1.54451741256061,7.920571027580033,0.3958939805015071,-0.04242047875846225,2.02333180705575,0.5528651034618136,4.093871601443487,9.575885731578246,1.4575513512875595,9.819366831722755,1.2758043916356905,9.543965502503706,1.6276768457169144,490.9747288968584,0.5616092241479741,0.0
0.6682999999999999,1.6378348054672667,0.2525,2.682502849999999,34.32688139904428,0.29235243681580825,9.451540000000001,1.1577667677041001,9.192,1.3404238884,472.6172339762221,0.5651909018432744,2.06514,2.055220873872198,1.6019999999999999,4.223932840400001,103.79052282173802,0.6561612697594037,0.5824999999999999,0.3101245072547476,0.5525,0.09617721,29.624971422034054,0.04061154947827642,9.552,0.08609645753455829,9.558,0.007412599999999998,477.6036176118553,0.001294036345806118,2.0831,0.38350943925801884,2.021,0.14707949000000003,104.5752072009451,0.014105389347136735,0.0803,1.5859832943634686,-0.31899999999999995,2.5153430100000005,10.165396656587465,0.1889299065804561,-0.08933999999999999,1.1355751953965882,-0.238,1.2895310243999998,7.550405083321008,0.4919412884628207,-0.015319999999999999,1.9575455288702739,-0.4845,3.8319844976,6.552775326330624,0.5392666860919277,-0.013099999999999994,0.34669463508972853,-0.021,0.12019717000000002,1.4230308015179332,0.021217768517294563,0.035300000000000005,0.383648654370115,0.08449999999999999,0.14718629,4.212292393288776,0.02500288139778752,-0.01544,0.2539589069121223,-0.037000000000000005,0.0644951264,1.5572481214365548,0.020729936541044755,22.302,1.6297840347727055,22.25,2.6561959999999996,1115.4211449415473,0.8414802992768886,-31.615999999999996,0.8998577665386902,-31.6,0.8097439999999998,1580.855442877993,0.2012793535299039,20.105999999999998,1.502851955450037,20.0,2.2585640000000002,1005.6371812988675,0.49385536704071387,206.59199999999998,7.4200226414748895,206.15,55.056735999999994,10330.32848019545,28.550595901025396,-77.12599999999999,2.159612002189283,-77.1,4.663924000000003,3856.592026542955,0.8728017526328145,-15.946000000000002,8.273698326625162,-15.350000000000001,68.45408400000001,818.1426500869563,22.02429347568116,0.08330096863993486,1.1354795425424076,-0.03741057313675347,1.2893137915323152,9.59306621089611,0.07863756750463934,-0.08764138815189174,2.2268682108624063,0.6417881699045905,4.958942028549534,8.323210751388654,0.7437623919048338,9.733268631510786,1.1360026067191702,9.63789086463655,1.2905019224727496,486.69091445467683,0.5859782452615172,0.0
0.1704799999999999,1.7268015663648213,-0.0585,2.9818436496000005,16.124963683544728,0.4048553932997761,9.5196,1.3722784848564813,9.084,1.88314824,476.0517115109236,0.5419691256236817,2.3952799999999996,1.9653099606932234,1.767,3.8624432415999994,120.19915964465045,0.8590720647081503,0.25282,0.4475132932103805,0.376,0.20026814760000003,17.019546181314254,0.024065299433964515,9.45584,0.12348819538725143,9.457,0.015249334399999986,472.8014721496127,0.0011552283409567961,2.5082999999999998,0.43392041897103667,2.577,0.18828693000000002,125.90851141901832,0.024504699985723244,0.005599999999999961,1.648000485436822,-0.47950000000000004,2.7159056000000006,5.2376889928342845,0.38742386390438066,0.010759999999999987,1.329255168280342,-0.4,1.7669193024000003,8.419107338342076,0.49754272483162887,0.026840000000000044,1.8857938525724387,-0.602,3.5562184544000006,5.726477319624749,0.841983198469704,-0.0028999999999999994,0.4093706999774166,0.026000000000000002,0.16758437,1.1385985886247105,0.019219272461328117,-0.013900000000000013,0.4627469827022106,-0.0105,0.21413477,4.31122797682905,0.04789011376079766,-0.0051599999999999945,0.2870170977485487,-0.019000000000000003,0.08237881439999999,1.9781078337043236,0.011961936639054952,23.399999999999995,2.329120005495638,23.35,5.4248,1170.7723817333506,0.4895246432374938,-31.407999999999998,1.0314727335223168,-31.45,1.0639360000000002,1570.510012024966,0.06194010820285813,18.942,2.0274210218896322,19.25,4.110436,947.8055244625759,1.0306418512490412,215.72199999999998,10.184091319307775,215.8,103.71571599999997,10789.225417455948,17.567356308001955,-74.832,2.567367523359288,-74.95,6.591376000000004,3742.188832141283,0.6936318982878911,-6.758000000000001,9.885000556398568,-8.9,97.71323599999998,422.59025725623104,16.755249069150537,-0.0622316615396072,1.32369011956996,-0.3210705364514398,1.752155532647135,8.019987384901771,0.11989719325084369,0.08369132035739986,2.116836469960762,0.8485123929418917,4.48099664055594,10.101493111404,1.0467089231004667,9.861907709955105,1.2709823485492837,9.771228887743174,1.6153961303238529,493.13212607014253,0.5523297928774482,0.0
0.3742599999999999,1.6480855658611901,0.19149999999999998,2.7161860323999996,31.462700922830884,0.34985487425942,9.5403,1.5054038959694505,9.2635,2.26624089,477.10143293937836,0.8260640545014897,2.36544,1.4806048650467145,1.9405,2.1921907663999995,119.01775338467574,0.7770533382810365,0.5706,0.8019386759597021,0.4195000000000001,0.6431056400000001,38.006349353512,0.08250556596975885,9.39794,0.15684991679946794,9.4,0.024601896400000017,469.9159722507083,0.006499437553014645,2.5810199999999996,0.44286681925834087,2.6485000000000003,0.19613101959999996,129.60317109915644,0.047355134762069026,-0.10019999999999996,1.4421490214260106,-0.309,2.0797938,11.658365480164397,0.46201344087170937,0.08434000000000003,1.4224007959784049,-0.138,2.0232240243999997,11.368729516560517,0.7315950013712358,-0.1121,1.3748084993918244,-0.589,1.89009841,9.925437090608916,0.47752164459641594,-0.014600000000000007,0.4679130688493323,0.0495,0.21894264,1.9746181487651804,0.06297637604105588,0.017799999999999996,0.44801254446722805,0.025500000000000002,0.20071524,5.077451894513586,0.12213808530526829,0.010319999999999989,0.2995610415257632,0.0575,0.0897368176,3.263537505741487,0.054964851381862585,24.900000000000006,2.0668817092422103,25.4,4.272,1245.8938393816097,1.697988618564505,-31.623999999999995,1.693228868168742,-31.55,2.867023999999999,1582.0530535470987,0.3484984704717257,16.164,2.803552032689959,16.55,7.859904,811.6532291667226,1.4175144222125304,215.88800000000003,11.65754073550678,218.25,135.89825599999998,10799.323867442907,28.8027920548538,-73.722,3.0606724751269945,-73.30000000000001,9.367716000000001,3687.0852059109843,1.81021475204988,-12.276,15.173405155073134,-12.45,230.23222399999997,774.8524361624421,30.997853383407218,-0.12780040678679033,1.1517682402688783,-0.1259647952935679,1.3265700792920683,11.47832178510185,0.3634654296018044,0.24066528870882536,1.750668442695329,0.7236308463893789,3.0648399962492885,15.87509968102753,0.6433061246131319,9.882414540853128,1.3414688822440577,9.722746396913848,1.7995387620291214,494.15980815236867,0.678629148081553,0.0
0.91802,1.4509835076940054,0.6465,2.1053531395999996,47.490140589364955,0.36536945716820035,9.311219999999999,1.469488445548314,8.7905,2.1593962916000002,465.59747426260276,0.590259842188327,2.755,1.4774679285859302,2.607,2.1829114799999996,138.16573720303407,0.507276314662048,1.03478,0.5639988400697292,1.0385,0.3180946916,53.53111829861902,0.08868684934061884,9.312080000000002,0.15247712484172837,9.334,0.023249273600000023,465.62091668648463,0.0056744090067788735,2.8007000000000004,0.447382576772945,2.785,0.20015117000000004,140.54018388093755,0.05452702700274389,-0.06972000000000002,1.2857774308176357,-0.309,1.6532236016,5.059251966514855,0.36931257398550854,-0.018699999999999984,1.3783904127641053,-0.41800000000000004,1.8999601300000004,8.039016954518926,0.5145644615951445,-0.011219999999999966,1.390682153333392,-0.33699999999999997,1.9339968516000001,2.4214750769291222,0.4921072568212612,0.006920000000000004,0.40504566853627755,0.064,0.1640619936,2.842111366444687,0.03853571785392699,0.04597999999999999,0.427145946486678,0.007000000000000003,0.18245365959999998,3.7785085464716217,0.056349128604301746,0.015699999999999995,0.28213395754499315,0.07100000000000001,0.07959957,3.3666060479879802,0.01516194703278521,24.814,2.0880622596081757,25.35,4.360004,1241.8999405965358,1.0687036688063507,-32.38,1.4641038214552953,-32.349999999999994,2.143599999999999,1619.5230706416194,1.1337866402202295,13.798000000000002,2.586927907770141,14.25,6.692196,690.8302914127332,2.7637921586398098,211.532,9.677653434588365,211.39999999999998,93.65697599999996,10579.485783198548,29.711368685779796,-72.006,2.9504853837970457,-72.35,8.705364000000001,3601.1700385854247,2.5205646713439767,-19.882,10.145436215363045,-20.95,102.92987600000001,1025.3700601074727,34.315596923393095,-0.057769198660975025,0.9226006768518975,-0.09335659202664014,0.8511920089275794,3.6030749860478632,0.17312095073963374,0.04580542315066109,1.8587980529892376,0.5558875777744535,3.4551302017965804,6.643638069890777,0.5621248637414812,9.778641347996551,1.282840706956278,9.659784926824923,1.6456802794240832,488.9868978704696,0.6028266993025797,0.0
0.8543200000000002,1.4632074144153315,0.5865,2.1409759376,44.69967350037173,0.757176274373409,9.35582,1.5462811217886612,8.8565,2.3909853076000003,467.81491082196953,0.6584698423016399,2.9440799999999996,1.5955846557296796,2.788,2.5458903935999997,147.65871292101227,0.680208830383181,0.93088,0.41414044187932186,0.9964999999999999,0.17151230559999997,46.82812388074234,0.13004774963376822,9.30704,0.12531080719554882,9.315999999999999,0.015702798400000013,465.35879823574237,0.005040745165994589,2.88404,0.42097776473348325,2.918,0.1772222784,144.4448552750846,0.04497041436303703,-0.08416,1.267142176079701,-0.37350000000000005,1.6056492944,8.48012342595155,0.39021849232688033,0.06472000000000001,1.4914051232311092,-0.424,2.2242892416,5.330139975159798,0.6407905085207243,0.08876000000000003,1.47020412950039,-0.126,2.1615001823999993,9.80508456075177,0.5630314379121413,0.010420000000000002,0.4462476034669542,0.035,0.1991369236,3.0511532848343106,0.053502223249077586,-0.0017800000000000094,0.45327983806915567,-0.07749999999999999,0.2054626116,2.0453527547016463,0.06850332813021488,0.029559999999999996,0.30389387358089337,0.0055,0.09235148639999999,2.754486789888301,0.03411394720143903,23.303999999999995,2.163974121841571,23.3,4.682784,1166.4322204474383,1.4573483954729451,-32.622,0.8355333625894297,-32.75,0.6981159999999994,1631.2029283471036,0.20115295988012338,15.09,3.352327549628765,14.850000000000001,11.238100000000001,757.4219320910181,3.8603237415963028,209.864,8.826749345030706,209.75,77.91150399999998,10494.64233418179,35.249442934259946,-71.808,2.5248239542589888,-71.85,6.374735999999996,3590.7429453728373,1.526594782306527,-17.774,7.86289539546343,-20.299999999999997,61.825124,895.1669277325251,43.276105166843394,-0.05344461768066816,1.0537909999817983,-0.10935198261037976,1.1104754716426382,5.939965117125911,0.2423317811399345,-0.06361196807618272,1.8087436232924468,0.38673206894841394,3.2715534948010885,12.10026254164892,0.9471552588362503,9.875351924841755,1.447474284551875,9.84214609143709,2.0951818044389627,493.77662156288426,0.5723776445983695,0.0
1.41492,1.6542263429168331,1.2269999999999999,2.7364647936,74.24531991015968,0.5447023465327232,9.328080000000002,1.6445798836176977,8.957999999999998,2.7046429936,466.43617265769905,0.9448563253106905,2.66434,1.6807740670298312,2.4684999999999997,2.8250014643999997,133.6497282944798,0.6253529361964273,1.36656,0.5967501708420367,1.3255,0.3561107664,69.9377582581156,0.06606420348535803,9.31646,0.16635458635096323,9.327,0.027673848400000086,465.8327580727171,0.005554129979565974,2.6286799999999992,0.46047711951844034,2.6799999999999997,0.21203917759999996,131.55259198647724,0.06524655159345381,0.07558000000000002,1.4334439241212054,-0.11850000000000001,2.0547614836,11.322998302239359,0.34700758375254437,0.015359999999999974,1.6408569195392997,-0.383,2.6924114303999995,4.227493557303443,0.8536060710847995,0.09094,1.5679451700872709,-0.14550000000000002,2.4584520564000005,9.53212352946683,0.4475786346942326,0.011120000000000017,0.4731764846228097,0.056,0.22389598560000004,1.6253136494736402,0.0489923273113355,0.018300000000000007,0.46137075113188525,-0.051000000000000004,0.21286297,2.633772559935967,0.07126536892407531,0.006759999999999981,0.29032613110087074,-0.030500000000000003,0.0842892624,3.2639919115626457,0.011461916063948058,22.642000000000003,1.67285265340376,22.65,2.7984360000000006,1132.6858316858866,0.943370271696475,-32.846000000000004,2.1121751821286034,-32.95,4.461283999999999,1643.3247090077434,0.33132100411962895,16.435999999999996,3.300470269522209,16.45,10.893104000000001,822.2198182179196,3.75197528986966,200.57199999999997,8.90478612881859,199.25,79.29521599999997,10030.074857976595,21.630526191611214,-72.102,3.2130664481146356,-72.1,10.323796,3605.557667527318,2.5610845034570833,-26.9,10.203254382793757,-27.75,104.1064,1368.2173538472011,23.10874328374547,0.04238706473881308,1.0142803564963283,-0.021609880665361014,1.0287646415743188,8.080786939826437,0.2596124013902269,-0.10795324353549715,1.9207569403448213,0.2980282929349955,3.6893072238827993,10.966870239995984,0.8000758363429332,9.845305936701408,1.6487330169702812,9.917097186398458,2.7183205612479253,492.27021369381373,0.8153247604147246,0.0
