sep=;
ACCELEROMETER X (m/s²);ACCELEROMETER Y (m/s²);ACCELEROMETER Z (m/s²);GRAVITY X (m/s²);GRAVITY Y (m/s²);GRAVITY Z (m/s²);LINEAR ACCELERATION X (m/s²);LINEAR ACCELERATION Y (m/s²);LINEAR ACCELERATION Z (m/s²);GYROSCOPE X (rad/s);GYROSCOPE Y (rad/s);GYROSCOPE Z (rad/s);LIGHT (lux);MAGNETIC FIELD X (μT);MAGNETIC FIELD Y (μT);MAGNETIC FIELD Z (μT);ORIENTATION Z (azimuth °);ORIENTATION X (pitch °);ORIENTATION Y (roll °);PROXIMITY (i);SOUND LEVEL (dB);LOCATION Latitude : ;LOCATION Longitude : ;LOCATION Altitude ( m);LOCATION Altitude-google ( m);LOCATION Speed ( Kmh);LOCATION Accuracy ( m);LOCATION ORIENTATION (°);Satellites in range;Time since start in ms ;YYYY-MO-DD HH-MI-SS_SSS
3.0424;-0.4124;11.5409;2.6615;1.2697;9.3528;0.0053;-0.4485;0.4001;-0.9635;-0.7114;-0.157;1157.0;-41.83;11.19;-11.88;67.77;-14.77;-8.63;2.0;62.814;19.300049;72.86193;-135.48;NaN;0.0;14.680644;;12 / 22;23;2018-06-13 18:54:18:481
2.4172;0.583;10.9357;3.0373;0.7702;9.2926;-0.3442;-0.4148;1.713;0.2022;-0.3982;0.3391;1157.0;-43.64;10.82;-13.56;69.74;-7.44;-15.88;2.0;62.814;19.300049;72.86193;-135.48;NaN;0.0;14.680644;;12 / 22;123;2018-06-13 18:54:18:581
3.0836;1.0285;10.0565;2.995;1.0492;9.279;-0.3098;-0.6936;1.7033;0.6361;0.0849;0.329;1199.0;-42.58;11.94;-10.25;69.22;-6.14;-17.89;2.0;57.862;19.300049;72.86193;-135.48;NaN;0.0;14.680644;;12 / 22;223;2018-06-13 18:54:18:681
3.6069;1.5794;8.3017;3.729;1.1933;8.9912;-0.6604;0.0663;1.2249;0.5882;-0.7999;0.3377;1199.0;-41.45;14.13;-6.5;64.75;-6.99;-22.53;2.0;57.862;19.300049;72.86193;-135.48;NaN;0.0;14.680644;;12 / 22;323;2018-06-13 18:54:18:781
4.5835;0.2922;10.3707;3.5398;1.201;9.0663;-0.2677;0.7369;0.1473;-0.6014;0.5262;1.2533;1266.0;-40.7;18.88;-6.13;59.32;-7.03;-21.33;2.0;57.862;19.300049;72.86193;-135.48;NaN;0.0;14.680644;;13 / 23;423;2018-06-13 18:54:18:881
3.9126;-0.7152;9.7908;3.422;0.2317;9.1873;0.7857;-0.1621;0.6258;0.2239;-0.0944;0.8116;1266.0;-37.76;22.57;-9.44;59.32;-7.03;-21.33;2.0;63.747;19.300049;72.86193;-135.48;NaN;0.0;14.680644;;13 / 23;523;2018-06-13 18:54:18:981
4.1535;-0.9146;9.0054;3.1785;-0.0172;9.2772;0.2334;0.0928;-0.3725;-0.2434;0.4584;0.5795;1220.0;-37.08;24.07;-9.44;53.24;0.1;-18.91;2.0;63.747;19.300049;72.86193;-135.48;NaN;0.0;14.680644;;13 / 23;622;2018-06-13 18:54:19:080
3.6295;-1.5447;10.2431;3.2576;-0.6797;9.2248;0.0123;-0.6469;0.2231;-0.4791;-0.1926;-0.0463;1220.0;-35.95;26.63;-7.31;50.95;3.97;-19.45;2.0;63.747;19.300049;72.86193;-135.48;NaN;0.0;14.680644;;13 / 23;723;2018-06-13 18:54:19:181
3.4771;-1.6362;9.8013;3.8501;-1.1112;8.9505;0.006;-0.4363;1.0838;-0.5402;-0.5907;-0.3664;1202.0;-37.76;24.76;-5.25;55.52;6.51;-23.28;2.0;60.927;19.300049;72.86193;-135.48;NaN;0.0;14.680644;;13 / 23;824;2018-06-13 18:54:19:282
6.0108;-0.3082;7.1964;4.4001;-1.0132;8.7053;0.006;-0.4363;1.0838;-0.5402;-0.5907;-0.3664;1202.0;-36.7;24.07;-0.69;55.9;5.93;-26.81;2.0;60.927;19.300049;72.86193;-135.48;NaN;0.0;14.680644;;13 / 23;923;2018-06-13 18:54:19:381
4.5635;-0.2487;8.2833;5.1009;-0.5216;8.3594;0.7738;0.0838;-0.9196;0.4685;-1.086;-0.2723;1350.0;-36.7;24.07;-0.69;55.9;5.93;-26.81;2.0;60.927;19.300049;72.86193;-135.48;NaN;0.0;14.680644;;13 / 23;1026;2018-06-13 18:54:19:484
6.5699;-0.3575;6.5347;5.3824;-0.4533;8.185;-0.5935;0.0585;-0.0806;-0.2598;-0.5445;-0.629;1423.0;-39.26;20.38;1.37;60.75;3.05;-31.39;2.0;60.927;19.300049;72.86193;-135.48;NaN;0.0;14.680644;;13 / 23;1122;2018-06-13 18:54:19:580
6.5699;-0.3575;6.5347;5.3824;-0.4533;8.185;-0.5935;0.0585;-0.0806;-0.2598;-0.5445;-0.629;1423.0;-39.26;20.38;1.37;60.75;3.05;-31.39;2.0;60.927;19.300049;72.86193;-135.48;NaN;0.0;14.680644;;13 / 23;1223;2018-06-13 18:54:19:681
5.9876;0.4503;8.2287;5.5754;-0.3267;8.0609;0.8792;-0.0518;-1.5677;-0.3333;-0.3077;-0.8834;1456.0;-42.95;14.88;4.31;69.22;1.91;-34.67;2.0;60.927;19.300049;72.86193;-135.48;NaN;0.0;14.680644;;13 / 23;1323;2018-06-13 18:54:19:781
6.0076;1.9105;4.3965;6.0182;0.0461;7.7427;-0.0253;1.8761;-2.9167;-1.4446;-0.4742;-1.3603;1456.0;-45.51;3.13;8.0;85.7;-0.27;-37.86;2.0;62.998;19.300058;72.86192;-129.03;NaN;1.58;14.680644;351.7;13 / 23;1422;2018-06-13 18:54:19:880
4.7157;4.4331;6.3715;5.6404;0.4012;8.0122;-2.2454;4.4822;-1.0138;-0.594;0.5189;-1.8497;1242.0;-45.14;-2.43;7.19;92.73;-0.27;-37.86;2.0;62.998;19.300058;72.86192;-129.03;NaN;1.58;14.680644;351.7;13 / 23;1523;2018-06-13 18:54:19:981
4.8306;4.1133;6.9433;5.8192;0.7275;7.8599;-2.4044;4.161;-0.8383;0.1421;-0.4576;-0.5477;1242.0;-41.83;-9.37;7.62;101.16;-4.25;-36.51;2.0;62.998;19.300058;72.86192;-129.03;NaN;1.58;14.680644;351.7;13 / 23;1623;2018-06-13 18:54:20:081
-0.0956;3.4814;8.885;5.0178;2.3111;8.1025;-1.1817;1.4628;-0.2615;0.4807;1.6233;-1.4837;978.0;-39.64;-14.93;4.31;106.09;-13.63;-31.77;2.0;62.979;19.300058;72.86192;-129.03;NaN;1.58;14.680644;351.7;13 / 23;1723;2018-06-13 18:54:20:181
1.5077;3.4087;10.8995;2.3543;3.273;8.9395;-1.3635;-3.2447;2.0453;0.2201;1.9197;-1.5279;1001.0;-39.26;-20.43;1.81;112.95;-19.5;-14.75;2.0;62.979;19.300058;72.86192;-129.03;NaN;1.58;14.680644;351.7;13 / 23;1823;2018-06-13 18:54:20:281
0.8075;2.8387;13.1838;0.074;4.0618;8.9256;0.916;-1.6283;4.1571;0.9984;2.1525;1.3589;1001.0;-39.64;-21.49;-7.75;110.66;-19.5;-14.75;2.0;62.979;19.300058;72.86192;-129.03;NaN;1.58;14.680644;351.7;13 / 23;1923;2018-06-13 18:54:20:381
0.6104;4.2153;10.8682;-0.2056;4.3813;8.7711;1.1346;-2.0543;2.7565;-0.5029;0.5261;1.0021;835.0;-42.58;-18.56;-10.69;106.35;-24.47;-0.48;2.0;53.782;19.300058;72.86192;-129.03;NaN;1.58;14.680644;351.7;13 / 23;2023;2018-06-13 18:54:20:481
0.776;1.5049;8.4761;0.0414;3.9156;8.9909;0.887;-1.5989;2.5104;-0.8224;0.3285;1.627;730.0;-48.08;-7.93;-18.13;90.07;-23.53;-0.26;2.0;53.782;19.300058;72.86192;-129.03;NaN;1.58;14.680644;351.7;13 / 23;2123;2018-06-13 18:54:20:581
-1.145;2.3875;9.6146;-0.0244;4.0561;8.9285;-0.4699;-1.9713;-1.0296;0.1545;0.9172;1.3715;730.0;-46.26;-0.93;-31.81;75.09;-24.43;0.16;2.0;53.782;19.300058;72.86192;-129.03;NaN;1.58;14.680644;351.7;13 / 23;2223;2018-06-13 18:54:20:681
-0.9362;5.3444;10.2793;0.2175;3.2468;9.251;-0.4405;1.3068;0.519;-1.145;0.105;0.4444;730.0;-47.7;3.44;-33.5;70.72;-23.19;-1.18;2.0;59.596;19.300055;72.86193;-125.81;NaN;3.2;14.680644;91.5;11 / 23;2323;2018-06-13 18:54:20:781
-2.7207;4.1276;9.8361;0.1346;3.3658;9.21;-1.4661;1.367;0.4993;0.2168;0.6761;1.6313;558.0;-47.33;8.63;-34.31;66.36;-20.07;-0.84;2.0;59.596;19.300055;72.86193;-125.81;NaN;3.2;14.680644;91.5;11 / 23;2423;2018-06-13 18:54:20:881
-0.6015;1.1977;9.6974;0.1359;4.3917;8.7672;-1.1168;-1.0442;-1.1566;0.5893;0.5585;1.6161;558.0;-43.33;12.32;-36.0;57.39;-26.6;-0.89;2.0;59.596;19.300055;72.86193;-125.81;NaN;3.2;14.680644;91.5;11 / 23;2523;2018-06-13 18:54:20:981
-0.6015;1.1977;9.6974;0.1359;4.3917;8.7672;-1.1168;-1.0442;-1.1566;0.5893;0.5585;1.6161;522.0;-43.33;12.32;-36.0;57.39;-26.6;-0.89;2.0;59.596;19.300055;72.86193;-125.81;NaN;3.2;14.680644;91.5;11 / 23;2622;2018-06-13 18:54:21:080
1.8178;4.0056;9.6275;0.787;4.5927;8.6289;-0.8866;-2.7924;1.474;0.8866;-0.4954;1.5171;522.0;-41.08;19.26;-41.81;44.16;-27.93;-5.21;2.0;60.072;19.300055;72.86193;-125.81;NaN;3.2;14.680644;91.5;11 / 23;2723;2018-06-13 18:54:21:181
2.7717;4.2172;8.2536;1.5218;5.1288;8.2189;0.3921;-1.2802;1.8888;0.1398;1.2539;0.6507;418.0;-32.26;25.51;-43.06;26.54;-31.53;-10.49;2.0;60.072;19.300055;72.86193;-125.81;NaN;3.2;14.680644;91.5;11 / 23;2823;2018-06-13 18:54:21:281
1.7082;4.1093;7.1425;-0.0058;5.324;8.2356;0.6979;-0.7246;-1.3056;0.2272;1.4766;0.6283;418.0;-27.51;24.44;-45.5;22.27;-31.53;-10.49;2.0;60.072;19.300055;72.86193;-125.81;NaN;3.2;14.680644;91.5;11 / 23;2923;2018-06-13 18:54:21:381
-0.6832;6.0701;7.5083;-0.0854;5.3601;8.2117;-0.5823;0.8697;-0.4219;0.0334;0.9554;1.2523;247.0;-16.83;27.38;-51.75;18.51;-32.88;0.04;2.0;63.941;19.300055;72.86193;-125.81;NaN;3.2;14.680644;91.5;11 / 23;3023;2018-06-13 18:54:21:481
-2.8297;6.6008;10.0302;0.2113;5.4064;8.1791;-1.0711;1.3825;-0.7264;-0.2325;1.0424;1.6324;247.0;-13.51;27.01;-50.5;14.0;-33.46;-1.48;2.0;63.941;19.300055;72.86193;-125.81;NaN;3.2;14.680644;91.5;11 / 23;3123;2018-06-13 18:54:21:581
-2.6329;4.8122;7.1957;1.3521;5.1934;8.208;-3.5119;1.0985;0.764;0.0206;-0.98;2.3848;221.0;-4.33;29.57;-50.94;355.27;-31.98;-9.35;2.0;63.941;19.300055;72.86193;-125.81;NaN;3.2;14.680644;91.5;11 / 23;3223;2018-06-13 18:54:21:681
3.8062;1.6309;5.7759;5.3183;3.7254;7.349;0.8039;-2.1094;1.0713;-0.0465;-1.8074;3.9716;221.0;0.8;29.94;-49.25;325.27;-22.33;-35.89;2.0;63.941;19.300056;72.86194;-125.81;NaN;1.73;14.680644;87.3;10 / 21;3323;2018-06-13 18:54:21:781
7.118;0.0988;6.4898;6.2997;2.3111;7.1515;2.8113;-1.5512;0.7196;1.1147;0.0205;1.9437;128.0;5.92;27.38;-50.06;318.79;-22.33;-35.89;2.0;63.37;19.300056;72.86194;-125.81;NaN;1.73;14.680644;87.3;10 / 21;3423;2018-06-13 18:54:21:881
7.7023;-0.6974;7.4585;6.6978;2.0206;6.8721;0.6375;-1.9837;-0.425;0.4103;-0.5662;1.116;128.0;7.8;22.57;-51.75;304.64;-11.89;-44.26;2.0;63.37;19.300056;72.86194;-125.81;NaN;1.73;14.680644;87.3;10 / 21;3524;2018-06-13 18:54:21:982
7.7023;-0.6974;7.4585;6.6978;2.0206;6.8721;0.6375;-1.9837;-0.425;0.4103;-0.5662;1.116;128.0;7.8;22.57;-51.75;304.64;-11.89;-44.26;2.0;63.37;19.300056;72.86194;-125.81;NaN;1.73;14.680644;87.3;10 / 21;3623;2018-06-13 18:54:22:081
9.3329;-1.0461;4.4552;8.5589;1.3112;4.6039;0.6549;-2.2716;0.4022;-0.1302;-2.6555;0.5126;100.0;-2.51;20.01;-45.5;300.57;-7.68;-61.72;2.0;63.37;19.300056;72.86194;-125.81;NaN;1.73;14.680644;87.3;10 / 21;3722;2018-06-13 18:54:22:180
8.4451;-0.3103;3.4;9.0603;1.4378;3.4661;-0.5779;-1.9665;-0.8779;-1.7467;-0.675;-0.9418;101.0;-11.33;22.19;-37.19;309.46;-8.43;-69.07;2.0;63.37;19.300056;72.86194;-125.81;NaN;1.73;14.680644;87.3;10 / 21;3823;2018-06-13 18:54:22:281
7.7246;5.3805;7.4207;8.6507;2.7124;3.7388;-0.899;-0.3596;-0.2635;-0.8748;-0.0129;-1.4283;101.0;-19.08;27.01;-32.19;327.5;-16.06;-66.63;2.0;59.888;19.300056;72.86194;-125.81;NaN;1.73;14.680644;87.3;10 / 21;3923;2018-06-13 18:54:22:381
10.1705;5.1383;7.2277;8.8471;2.8195;3.1544;-1.5156;2.4445;3.9582;-0.1286;-1.5134;0.0905;101.0;-22.01;27.69;-29.69;329.67;-16.71;-70.38;2.0;59.888;19.300056;72.86194;-125.81;NaN;1.73;14.680644;87.3;10 / 21;4024;2018-06-13 18:54:22:482
7.4791;3.7962;2.1137;9.1297;2.881;2.1259;-1.2472;1.0826;0.0592;1.539;-0.1329;0.2095;200.0;-21.64;25.88;-36.75;317.27;-17.08;-76.89;2.0;59.888;19.300056;72.86194;-125.81;NaN;1.73;14.680644;87.3;10 / 21;4123;2018-06-13 18:54:22:581
8.6188;4.0628;2.5506;9.2077;2.8383;1.8258;-1.6593;1.1329;0.38;1.5577;-0.1705;0.2498;200.0;-21.64;18.51;-34.25;312.18;-16.82;-78.78;2.0;61.939;19.300056;72.86194;-125.81;NaN;1.73;14.680644;87.3;10 / 21;4222;2018-06-13 18:54:22:680
7.9503;2.6972;1.2977;9.2057;3.1968;1.0981;-0.9698;-0.5081;-0.1685;1.5577;-0.1705;0.2498;107.0;-22.33;14.51;-34.69;312.18;-16.82;-78.78;2.0;61.939;19.300064;72.86194;-125.81;NaN;2.52;19.574192;27.7;12 / 22;4323;2018-06-13 18:54:22:781
8.9315;1.8918;0.1219;8.9854;3.7094;1.294;-0.9698;-0.5081;-0.1685;0.7545;0.638;-0.8952;107.0;-22.33;14.51;-34.69;312.18;-16.82;-78.78;2.0;61.939;19.300064;72.86194;-125.81;NaN;2.52;19.574192;27.7;12 / 22;4423;2018-06-13 18:54:22:881
10.9966;2.8649;2.9746;8.3673;4.8024;1.7596;2.4828;-2.459;-0.7423;0.4096;0.9214;-0.8511;137.0;-19.39;10.44;-36.38;302.04;-25.12;-79.08;2.0;55.203;19.300064;72.86194;-125.81;NaN;2.52;19.574192;27.7;12 / 22;4523;2018-06-13 18:54:22:981
7.3583;3.6145;2.4059;7.283;5.9881;2.6965;2.1324;-2.755;0.5503;-1.397;0.3909;-1.8678;137.0;-20.51;9.69;-35.94;305.95;-29.32;-78.12;2.0;55.203;19.300064;72.86194;-125.81;NaN;2.52;19.574192;27.7;12 / 22;4623;2018-06-13 18:54:23:081
7.2132;3.8576;1.5454;7.0565;6.1876;2.8443;0.1103;-2.4655;-0.9865;-0.7151;-0.2498;-0.7977;192.0;-21.26;11.19;-33.88;320.61;-39.12;-68.05;2.0;55.203;19.300064;72.86194;-125.81;NaN;2.52;19.574192;27.7;12 / 22;4723;2018-06-13 18:54:23:181
4.9344;6.8517;4.5235;6.4388;6.5778;3.3831;-0.5401;-1.1347;-0.4032;-1.2048;-0.4837;-1.3216;192.0;-23.45;11.88;-32.19;325.19;-39.12;-68.05;2.0;58.377;19.300064;72.86194;-125.81;NaN;2.52;19.574192;27.7;12 / 22;4823;2018-06-13 18:54:23:281
3.8216;8.1734;7.178;5.68;7.3366;3.1752;-0.792;0.6033;0.933;-0.0935;-1.3428;-1.2787;122.0;-26.76;8.26;-32.19;336.91;-48.43;-60.79;2.0;58.377;19.300064;72.86194;-125.81;NaN;2.52;19.574192;27.7;12 / 22;4922;2018-06-13 18:54:23:380
2.7979;8.7099;3.2596;5.3298;7.7754;2.7033;-0.4469;0.1642;1.4002;0.4252;-0.9087;-1.1073;122.0;-30.08;5.32;-28.88;340.47;-52.45;-63.11;2.0;58.377;19.300064;72.86194;-125.81;NaN;2.52;19.574192;27.7;12 / 22;5023;2018-06-13 18:54:23:481
3.1518;9.1144;4.1185;4.8049;8.3391;1.8823;-1.8298;1.2504;1.6355;0.3212;-0.2113;-0.4477;92.0;-34.14;-0.93;-33.0;333.42;-58.25;-68.61;2.0;55.351;19.300064;72.86194;-125.81;NaN;2.52;19.574192;27.7;12 / 22;5122;2018-06-13 18:54:23:580
1.439;8.3782;0.8308;4.6008;8.6069;0.9615;-2.3939;-0.2341;0.2576;1.308;0.3939;-0.0733;92.0;-31.2;-2.43;-25.13;339.04;-58.25;-68.61;2.0;55.351;19.300064;72.86194;-125.81;NaN;2.52;19.574192;27.7;12 / 22;5223;2018-06-13 18:54:23:681
3.6467;7.6728;0.7689;4.6435;8.6268;0.4329;-1.5659;-0.7237;0.694;1.1264;0.9571;0.4463;79.0;-30.45;-8.31;-28.88;320.66;-61.36;-78.2;2.0;55.351;19.300072;72.86194;-125.81;NaN;3.96;19.574192;25.9;13 / 24;5323;2018-06-13 18:54:23:781
5.3947;9.1421;-0.8691;4.6435;8.6268;0.4329;-1.5659;-0.7237;0.694;1.1264;0.9571;0.4463;79.0;-30.45;-8.31;-28.88;320.66;-61.36;-78.2;2.0;55.351;19.300072;72.86194;-125.81;NaN;3.96;19.574192;25.9;13 / 24;5422;2018-06-13 18:54:23:880
5.3947;9.1421;-0.8691;4.6435;8.6268;0.4329;-1.5659;-0.7237;0.694;1.1264;0.9571;0.4463;79.0;-30.45;-8.31;-28.88;320.66;-61.36;-78.2;2.0;55.351;19.300072;72.86194;-125.81;NaN;3.96;19.574192;25.9;13 / 24;5523;2018-06-13 18:54:23:981
6.7374;6.5103;-0.3864;5.0989;8.1971;1.7261;0.6974;0.2627;0.0551;1.0493;0.8213;-0.0231;90.0;-22.7;-3.49;-36.38;303.3;-61.85;-88.51;2.0;53.116;19.300072;72.86194;-125.81;NaN;3.96;19.574192;25.9;13 / 24;5624;2018-06-13 18:54:24:082
5.2717;5.97;6.247;5.2971;7.543;3.3488;1.2737;-0.828;-2.8779;-2.7087;1.2407;0.7547;94.0;-22.7;-3.49;-36.38;303.3;-61.85;-88.51;2.0;53.116;19.300072;72.86194;-125.81;NaN;3.96;19.574192;25.9;13 / 24;5723;2018-06-13 18:54:24:181
4.2978;6.5589;6.1409;4.7819;6.8642;5.1173;0.8376;-1.1705;0.8222;-0.6764;0.1818;-0.6723;94.0;-18.92;8.07;-38.02;326.42;-50.28;-57.7;2.0;53.116;19.300072;72.86194;-125.81;NaN;3.96;19.574192;25.9;13 / 24;5822;2018-06-13 18:54:24:280
4.083;8.0597;3.7668;3.7662;6.8308;5.9435;0.3495;-1.9804;0.5103;-0.9398;-0.3764;-1.537;172.0;-17.5;11.94;-37.64;339.48;-44.42;-43.06;2.0;59.954;19.300072;72.86194;-125.81;NaN;3.96;19.574192;25.9;13 / 24;5923;2018-06-13 18:54:24:381
2.0614;6.342;5.5795;3.7662;6.8308;5.9435;0.3495;-1.9804;0.5103;-0.9398;-0.3764;-1.537;172.0;-20.75;11.31;-37.16;339.48;-44.42;-43.06;2.0;59.954;19.300072;72.86194;-125.81;NaN;3.96;19.574192;25.9;13 / 24;6023;2018-06-13 18:54:24:481
0.8903;7.7146;7.1602;3.7093;7.1887;5.5438;-0.3443;1.5232;-2.0992;-0.1371;0.0773;0.2894;153.0;-21.29;9.63;-37.23;355.29;-47.14;-33.79;2.0;59.954;19.300072;72.86194;-125.81;NaN;3.96;19.574192;25.9;13 / 24;6123;2018-06-13 18:54:24:581
0.7256;7.49;8.0263;3.2591;6.88;6.1818;-2.4397;0.7228;1.3711;-0.1679;-0.0719;-0.6707;153.0;-21.33;12.1;-36.94;355.24;-47.14;-33.79;2.0;59.954;19.300072;72.86194;-125.81;NaN;3.96;19.574192;25.9;13 / 24;6223;2018-06-13 18:54:24:681
1.4691;7.2876;7.1071;3.3304;6.6441;6.398;-2.553;0.7464;1.8653;-0.1628;0.6423;0.8946;214.0;-20.21;13.76;-37.41;0.63;-44.55;-27.8;2.0;61.085;19.300076;72.86194;-125.81;NaN;1.91;19.574192;11.7;13 / 24;6322;2018-06-13 18:54:24:780
1.2368;7.8606;5.6876;3.1504;6.392;6.737;-1.6944;0.4602;0.5184;-0.4188;0.8577;0.4768;214.0;-17.7;15.11;-38.53;359.69;-40.68;-25.06;2.0;61.085;19.300076;72.86194;-125.81;NaN;1.91;19.574192;11.7;13 / 24;6423;2018-06-13 18:54:24:881
1.6679;5.2984;7.3747;2.5093;6.1548;7.2106;-1.3011;1.0342;-0.9079;-0.1263;1.2719;0.6843;307.0;-11.64;17.39;-40.19;357.37;-38.87;-19.19;2.0;61.085;19.300076;72.86194;-125.81;NaN;1.91;19.574192;11.7;13 / 24;6523;2018-06-13 18:54:24:981
2.3171;5.5116;7.2771;2.1703;6.7068;6.8175;0.174;-1.0053;0.1397;0.799;0.2917;0.3065;307.0;-8.63;14.0;-42.24;351.98;-38.87;-19.19;2.0;56.176;19.300076;72.86194;-125.81;NaN;1.91;19.574192;11.7;13 / 24;6623;2018-06-13 18:54:25:081
3.9247;6.6395;7.0819;2.4645;7.0483;6.3575;1.6962;-0.5022;1.1057;1.0432;-0.2851;0.3806;281.0;-7.0;10.44;-42.37;351.98;-38.87;-19.19;2.0;56.176;19.300076;72.86194;-125.81;NaN;1.91;19.574192;11.7;13 / 24;6723;2018-06-13 18:54:25:181
4.3019;6.5496;5.7121;2.5379;7.1145;6.254;2.0303;-0.9012;0.4029;-0.0892;-0.0013;-0.5354;281.0;-8.28;9.36;-42.85;347.73;-45.95;-21.19;2.0;56.176;19.300076;72.86194;-125.81;NaN;1.91;19.574192;11.7;13 / 24;6823;2018-06-13 18:54:25:281
3.2899;7.3184;3.8828;2.279;7.3158;6.1201;2.2865;-1.1009;0.535;0.3935;0.196;-0.5217;339.0;-9.15;7.83;-43.33;350.12;-48.24;-20.42;2.0;58.966;19.300076;72.86194;-125.81;NaN;1.91;19.574192;11.7;13 / 24;6923;2018-06-13 18:54:25:381
1.2913;7.0765;6.2072;1.3417;7.164;6.5611;0.6959;-0.8718;-1.7235;-0.93;-0.5708;-1.4809;339.0;-10.95;9.09;-42.94;3.21;-46.93;-11.56;2.0;58.966;19.300076;72.86194;-125.81;NaN;1.91;19.574192;11.7;13 / 24;7023;2018-06-13 18:54:25:481
1.1306;6.6503;7.469;0.9978;6.844;6.9523;0.6223;0.1359;-0.5178;-0.4471;-0.7161;-0.7293;339.0;-10.95;9.09;-42.94;3.21;-46.93;-11.56;2.0;58.966;19.300076;72.86194;-125.81;NaN;1.91;19.574192;11.7;13 / 24;7123;2018-06-13 18:54:25:581
1.0586;5.9878;4.7059;0.9978;6.844;6.9523;0.6223;0.1359;-0.5178;-0.4471;-0.7161;-0.7293;376.0;-16.58;9.79;-43.18;15.54;-44.26;-8.17;2.0;58.966;19.300076;72.86194;-125.81;NaN;1.91;19.574192;11.7;13 / 24;7223;2018-06-13 18:54:25:681
-1.937;6.982;11.017;1.3135;6.8459;6.8978;0.0575;-0.2062;-2.1057;-0.0745;-1.0062;-0.2636;376.0;-17.81;11.6;-40.02;14.89;-44.27;-10.78;2.0;55.928;19.30008;72.861946;-125.81;NaN;1.69;19.574192;13.7;13 / 24;7322;2018-06-13 18:54:25:780
-0.5935;4.9691;7.9495;0.5895;5.8728;7.8315;-1.8858;0.4361;2.2375;-0.1777;-0.0407;-0.1091;505.0;-15.9;14.19;-39.85;19.88;-36.79;-4.3;2.0;55.928;19.30008;72.861946;-125.81;NaN;1.69;19.574192;13.7;13 / 24;7423;2018-06-13 18:54:25:881
-0.332;6.7787;8.7018;1.0762;5.6271;7.9591;-1.4775;-1.4171;-0.014;0.045;0.1774;0.8533;505.0;-12.83;15.37;-40.88;14.93;-36.79;-4.3;2.0;55.928;19.30008;72.861946;-125.81;NaN;1.69;19.574192;13.7;13 / 24;7522;2018-06-13 18:54:25:980
-0.9716;6.5167;7.9152;0.761;6.2933;7.4823;-1.3797;0.8583;0.4417;0.6364;0.5814;0.4097;539.0;-8.82;12.8;-42.18;7.18;-39.92;-5.81;2.0;58.224;19.30008;72.861946;-125.81;NaN;1.69;19.574192;13.7;13 / 24;7623;2018-06-13 18:54:26:081
0.3167;6.2341;5.7157;1.091;6.7541;7.0258;-0.8837;-0.3922;-0.967;0.6659;0.5393;0.8305;539.0;-8.82;12.8;-42.18;7.18;-39.92;-5.81;2.0;58.224;19.30008;72.861946;-125.81;NaN;1.69;19.574192;13.7;13 / 24;7723;2018-06-13 18:54:26:181
-1.3298;6.3704;4.3691;0.8137;6.6712;7.1417;-0.9602;-0.0284;0.0928;-0.1039;1.2302;0.6428;368.0;-1.95;8.91;-40.47;359.41;-43.53;-8.83;2.0;58.224;19.30008;72.861946;-125.81;NaN;1.69;19.574192;13.7;13 / 24;7823;2018-06-13 18:54:26:281
-1.081;5.1494;6.4221;0.6081;6.7906;7.049;-1.7091;-0.3163;-1.5609;-0.3691;1.479;0.995;368.0;-1.95;8.91;-40.47;359.41;-43.53;-8.83;2.0;59.7;19.30008;72.861946;-125.81;NaN;1.69;19.574192;13.7;13 / 24;7922;2018-06-13 18:54:26:380
-0.1823;4.2073;9.2629;0.3275;6.37;7.4489;-1.5065;-0.8274;-1.387;-0.4797;1.1945;1.3548;324.0;8.0;10.84;-37.93;343.59;-40.51;-2.52;2.0;59.7;19.30008;72.861946;-125.81;NaN;1.69;19.574192;13.7;13 / 24;8023;2018-06-13 18:54:26:481
4.5029;8.4435;9.1837;2.0765;6.7341;6.8198;3.8186;-0.036;2.341;0.8692;-1.1008;1.1105;324.0;6.0;5.97;-38.84;345.45;-40.51;-2.52;2.0;59.7;19.30008;72.861946;-125.81;NaN;1.69;19.574192;13.7;13 / 24;8123;2018-06-13 18:54:26:581
4.355;5.5537;9.1877;2.1936;6.9471;6.5648;2.3716;1.3017;2.9905;-0.0589;-0.0384;0.0108;221.0;4.91;4.4;-39.32;329.61;-43.37;-16.93;0.0;59.7;19.30008;72.861946;-125.81;NaN;1.69;19.574192;13.7;13 / 24;8224;2018-06-13 18:54:26:682
2.9668;5.5313;7.0538;2.0884;6.7153;6.8347;2.2272;-0.9653;2.253;-0.6895;-0.2757;-0.6064;221.0;3.73;6.47;-37.97;332.32;-43.22;-16.99;0.0;54.171;19.300083;72.86195;-122.58;NaN;4.75;19.574192;63.6;13 / 24;8323;2018-06-13 18:54:26:781
1.6062;4.0331;7.4694;1.3888;6.4119;7.289;1.4967;-0.8952;-0.6978;-0.834;-0.0551;-1.4061;236.0;2.48;9.12;-37.04;343.66;-40.83;-10.79;0.0;54.171;19.300083;72.86195;-122.58;NaN;4.75;19.574192;63.6;13 / 24;8423;2018-06-13 18:54:26:881
0.7907;5.5518;6.3899;0.7853;7.0459;6.7757;0.1103;-1.3827;-0.4123;0.5679;-0.5311;-1.0085;236.0;0.46;7.27;-38.45;352.21;-45.93;-6.61;0.0;54.171;19.300083;72.86195;-122.58;0.0;4.75;19.574192;63.6;13 / 24;8523;2018-06-13 18:54:26:981
0.0203;7.7135;5.7583;0.3687;7.1192;6.7344;-0.3464;0.953;-0.5847;0.1719;-0.5449;-0.8936;236.0;-1.56;7.31;-38.44;355.75;-45.93;-6.61;0.0;56.621;19.300083;72.86195;-122.58;0.0;4.75;19.574192;63.6;13 / 24;8623;2018-06-13 18:54:27:081
-0.7987;8.1125;8.5636;0.2686;7.1392;6.7179;-0.2994;0.7837;0.5808;-0.116;0.1576;-0.1257;197.0;-2.21;6.73;-38.19;355.75;-45.93;-6.61;0.0;56.621;19.300083;72.86195;-122.58;0.0;4.75;19.574192;63.6;13 / 24;8723;2018-06-13 18:54:27:181
-0.5926;6.0247;7.8231;0.2671;7.0608;6.8003;-1.6471;0.2727;2.6253;-0.1462;-0.0945;-0.0246;197.0;-2.15;7.35;-38.82;0.76;-46.72;-2.29;0.0;56.621;19.300083;72.86195;-122.58;0.0;4.75;19.574192;63.6;13 / 24;8823;2018-06-13 18:54:27:281
-1.1506;6.8616;6.7992;0.5578;7.2748;6.5525;-1.0599;-0.9994;1.0584;0.6225;-0.2093;0.0884;197.0;-3.38;7.23;-38.94;2.55;-46.05;-2.25;0.0;56.026;19.300083;72.86195;-122.58;0.0;4.75;19.574192;63.6;13 / 24;8923;2018-06-13 18:54:27:381
-1.7923;6.7979;7.3784;0.5316;7.4515;6.3531;-1.7197;-0.5637;0.5035;0.4828;0.0829;0.0788;277.0;-3.34;4.32;-38.29;2.55;-46.05;-2.25;0.0;56.026;19.300083;72.86195;-122.58;0.0;4.75;19.574192;63.6;13 / 24;9023;2018-06-13 18:54:27:481
-0.6352;6.8992;5.4767;0.3214;7.4823;6.3311;-2.1651;-0.5717;0.9821;0.2433;0.4986;0.5517;277.0;-1.56;4.55;-40.86;357.63;-49.45;-4.78;0.0;56.026;19.300083;72.86195;-122.58;0.0;4.75;19.574192;63.6;13 / 24;9122;2018-06-13 18:54:27:580
-0.6579;7.0408;4.4519;0.3124;7.6794;6.091;-1.1026;-0.4919;-0.535;0.2649;1.1537;0.8749;179.0;3.72;2.95;-37.71;349.29;-51.54;-2.94;0.0;52.751;19.300083;72.86195;-122.58;0.0;4.75;19.574192;63.6;13 / 24;9223;2018-06-13 18:54:27:681
-0.0606;6.3866;6.387;0.3124;7.6794;6.091;-1.1026;-0.4919;-0.535;0.2649;1.1537;0.8749;179.0;3.72;2.95;-37.71;349.29;-51.54;-2.94;0.0;52.751;19.300093;72.86197;-122.58;0.0;2.16;19.574192;68.8;13 / 24;9323;2018-06-13 18:54:27:781
0.9096;7.9667;4.9548;0.398;7.5167;6.2858;-0.5229;-0.8253;-0.0411;-0.101;1.3887;1.2244;230.0;13.36;1.8;-33.78;336.63;-50.04;-3.62;2.0;52.751;19.300093;72.86197;-122.58;0.0;2.16;19.574192;68.8;13 / 24;9423;2018-06-13 18:54:27:881
2.046;8.8079;4.9457;1.7331;7.6023;5.9474;-0.6576;0.6462;-0.9728;0.1763;1.0734;1.816;230.0;13.36;1.8;-33.78;336.63;-50.04;-3.62;2.0;54.978;19.300093;72.86197;-122.58;0.0;2.16;19.574192;68.8;13 / 24;9522;2018-06-13 18:54:27:980
5.759;8.0966;5.7236;3.0864;7.7637;5.1351;0.053;-1.5231;1.7724;1.6559;-0.5405;2.5468;241.0;14.16;-4.65;-33.38;309.01;-50.82;-16.25;2.0;54.978;19.300093;72.86197;-122.58;0.0;2.16;19.574192;68.8;13 / 24;9623;2018-06-13 18:54:28:081
4.2898;6.2738;5.7973;5.0167;7.3789;4.0688;-0.1914;-0.1491;1.8316;0.7248;0.5019;1.7333;241.0;11.56;-14.27;-31.91;287.16;-52.34;-31.01;2.0;54.978;19.300093;72.86197;-122.58;0.0;2.16;19.574192;68.8;13 / 24;9723;2018-06-13 18:54:28:181
7.8976;5.451;3.4806;5.5298;6.9329;4.1865;-0.7018;0.2837;1.7118;0.1677;0.5215;1.532;192.0;11.05;-16.2;-30.88;262.21;-44.99;-52.87;2.0;59.294;19.300093;72.86197;-122.58;0.0;2.16;19.574192;68.8;13 / 24;9822;2018-06-13 18:54:28:280
6.0831;4.1486;12.9622;6.5211;5.9658;4.2492;-0.3523;-1.137;-0.3561;-1.5563;-1.5068;0.3168;192.0;5.39;-11.28;-34.77;270.62;-37.47;-56.91;2.0;59.294;19.300093;72.86197;-122.58;0.0;2.16;19.574192;68.8;13 / 24;9923;2018-06-13 18:54:28:381
6.0328;4.853;3.0074;6.8384;5.3538;4.5545;-0.5985;-0.554;-1.1154;-1.6531;0.4259;0.0914;161.0;4.06;-10.97;-35.38;271.55;-37.47;-56.91;2.0;59.294;19.300093;72.86197;-122.58;0.0;2.16;19.574192;68.8;13 / 24;10023;2018-06-13 18:54:28:481
6.5389;5.2455;5.9125;6.5095;4.4668;5.8176;0.1283;0.8208;0.141;-1.0237;0.398;0.1797;147.0;6.59;-2.51;-35.72;278.74;-33.09;-56.34;2.0;60.527;19.300093;72.86197;-122.58;0.0;2.16;19.574192;68.8;13 / 24;10123;2018-06-13 18:54:28:581
5.7679;5.1954;5.4917;6.4319;4.4939;5.8827;-0.3824;0.636;0.2168;0.1521;0.2672;0.0941;147.0;9.09;-2.22;-35.49;280.66;-27.27;-47.55;2.0;60.527;19.300093;72.86197;-122.58;0.0;2.16;19.574192;68.8;13 / 24;10222;2018-06-13 18:54:28:680
6.484;3.7528;6.2828;6.1528;4.6396;6.0653;0.1796;0.3444;-0.3032;0.3453;0.5379;0.0987;223.0;9.09;-2.22;-35.49;280.66;-27.27;-47.55;2.0;60.527;19.300095;72.86197;-122.58;0.0;1.48;19.574192;60.8;13 / 24;10322;2018-06-13 18:54:28:780
6.3556;3.9951;7.1497;5.6624;4.9226;6.3147;0.5708;-1.3465;-1.2656;0.1906;0.9195;-0.0333;223.0;11.72;-3.93;-35.33;278.02;-29.67;-44.68;2.0;60.614;19.300095;72.86197;-122.58;0.0;1.48;19.574192;60.8;13 / 24;10422;2018-06-13 18:54:28:880
4.9124;5.2279;7.6653;5.3414;5.1158;6.4396;1.288;-0.6586;0.7697;0.3801;0.7157;-0.2043;223.0;15.06;-4.01;-34.09;277.1;-30.13;-41.88;2.0;60.614;19.300095;72.86197;-122.58;0.0;1.48;19.574192;60.8;13 / 24;10523;2018-06-13 18:54:28:981
4.3229;4.9668;7.5085;4.9866;5.2701;6.5977;0.01;-0.2374;1.1549;-0.0947;0.109;-0.1995;123.0;16.52;-3.99;-33.82;277.1;-30.13;-41.88;2.0;60.614;19.300095;72.86197;-122.58;0.0;1.48;19.574192;60.8;13 / 24;10623;2018-06-13 18:54:29:081
4.1937;5.4099;6.0729;5.1077;5.0835;6.6513;-1.0137;0.0373;0.1878;-0.1206;-0.3804;-0.1303;123.0;16.1;-1.86;-35.24;283.51;-32.51;-37.08;2.0;60.614;19.300095;72.86197;-122.58;0.0;1.48;19.574192;60.8;13 / 24;10723;2018-06-13 18:54:29:181
3.297;6.1489;6.3617;5.0628;5.4737;6.37;-1.121;0.3063;0.0554;0.536;-0.4098;-0.175;133.0;14.93;-4.64;-35.48;283.45;-31.22;-37.52;2.0;54.758;19.300095;72.86197;-122.58;0.0;1.48;19.574192;60.8;13 / 24;10823;2018-06-13 18:54:29:281
1.8494;7.3154;3.7849;5.5258;5.803;5.6535;-2.0798;0.4832;0.4364;0.536;-0.4098;-0.175;133.0;14.93;-4.64;-35.48;283.45;-31.22;-37.52;2.0;54.758;19.300095;72.86197;-122.58;0.0;1.48;19.574192;60.8;13 / 24;10922;2018-06-13 18:54:29:380
6.1183;9.1245;7.8793;6.1249;5.2921;5.5362;1.1276;0.1536;-2.9215;1.0248;-0.856;1.2972;141.0;10.37;-7.59;-35.68;278.19;-36.28;-44.35;2.0;54.758;19.300095;72.86197;-122.58;0.0;1.48;19.574192;60.8;13 / 24;11022;2018-06-13 18:54:29:480
6.2878;7.9369;6.0655;5.93;5.2691;5.7657;0.1397;3.4568;1.4986;0.357;0.9495;0.4929;141.0;12.81;-8.36;-35.43;271.2;-32.66;-47.89;2.0;55.591;19.300095;72.86197;-122.58;0.0;1.48;19.574192;60.8;13 / 24;11123;2018-06-13 18:54:29:581
5.632;3.7233;3.686;5.9459;5.9349;5.059;0.2791;2.0374;1.2333;1.2548;-0.8157;-0.6807;316.0;12.43;-10.73;-37.32;270.35;-37.24;-49.61;2.0;55.591;19.300095;72.86197;-122.58;0.0;1.48;19.574192;60.8;13 / 24;11222;2018-06-13 18:54:29:680
6.258;3.8798;1.2872;6.1166;6.7998;3.5385;-1.3527;-2.7744;0.3608;0.9067;-1.1996;-0.2953;316.0;9.79;-13.61;-34.9;263.64;-43.9;-59.95;2.0;55.591;19.3001;72.86198;-125.81;0.0;1.87;19.574192;12.1;13 / 24;11322;2018-06-13 18:54:29:780
11.0273;0.7158;6.4316;6.0582;6.5434;4.0807;0.1699;-2.4508;-2.098;-0.0593;1.8617;0.6972;286.0;14.06;-14.63;-34.04;260.16;-41.85;-56.04;2.0;56.253;19.3001;72.86198;-125.81;0.0;1.87;19.574192;12.1;13 / 24;11423;2018-06-13 18:54:29:881
10.3123;0.4432;2.5545;6.9965;5.5125;4.1026;4.0242;-4.6649;0.9259;0.0326;-0.8687;1.0509;286.0;14.07;-16.11;-32.77;258.18;-41.85;-56.04;2.0;56.253;19.3001;72.86198;-125.81;0.0;1.87;19.574192;12.1;13 / 24;11523;2018-06-13 18:54:29:981
8.3485;-0.1631;4.4716;7.6334;4.7015;3.9747;1.049;-4.864;1.2431;-2.3109;-1.3193;-0.3905;299.0;11.4;-16.32;-34.53;256.45;-34.2;-59.61;2.0;56.253;19.3001;72.86198;-125.81;0.0;1.87;19.574192;12.1;13 / 24;11623;2018-06-13 18:54:30:081
7.6282;-0.9389;8.7531;7.9445;4.1587;3.9701;0.7564;-4.3306;1.2527;-2.926;-1.748;-0.4788;299.0;4.37;-3.55;-39.57;273.72;-25.09;-63.45;2.0;62.974;19.3001;72.86198;-125.81;0.0;1.87;19.574192;12.1;13 / 24;11722;2018-06-13 18:54:30:180
7.0572;-0.1471;7.1173;8.1578;2.913;4.5974;-0.5051;-3.3725;3.492;-3.7472;-1.3535;-1.0754;567.0;-2.68;18.62;-37.67;307.71;-17.28;-60.6;2.0;62.974;19.3001;72.86198;-125.81;0.0;1.87;19.574192;12.1;13 / 24;11823;2018-06-13 18:54:30:281
6.5047;3.1373;8.4061;8.4602;1.6993;4.6591;-2.1277;-0.4567;5.4712;-4.0417;-1.3847;-1.0994;567.0;-2.68;18.62;-37.67;307.71;-17.28;-60.6;2.0;62.974;19.3001;72.86198;-125.81;0.0;1.87;19.574192;12.1;13 / 24;11923;2018-06-13 18:54:30:381
8.3267;4.566;7.5101;8.8097;1.1715;4.1457;-1.8409;2.0668;4.4194;-3.1055;-1.5491;-0.6567;890.0;-15.03;36.16;-22.8;341.97;-9.98;-61.16;2.0;62.974;19.3001;72.86198;-125.81;0.0;1.87;19.574192;12.1;13 / 24;12023;2018-06-13 18:54:30:481
6.8117;6.9326;6.4948;9.1619;1.0143;3.3469;-0.7085;3.7689;4.0312;-3.1055;-1.5491;-0.6567;890.0;-22.31;39.15;-8.79;1.69;-6.86;-64.8;2.0;61.032;19.3001;72.86198;-125.81;0.0;1.87;19.574192;12.1;13 / 24;12122;2018-06-13 18:54:30:580
8.2263;5.7477;7.1801;9.0047;1.8391;3.4211;-1.8545;4.9062;3.0381;-1.4186;-0.3089;-1.1096;890.0;-25.69;38.45;-5.85;1.69;-6.86;-64.8;2.0;61.032;19.3001;72.86198;-125.81;0.0;1.87;19.574192;12.1;13 / 24;12222;2018-06-13 18:54:30:680
8.1839;0.4294;8.2844;8.8564;2.2233;3.5766;-0.6493;3.6461;3.6163;0.7812;0.3695;-0.3057;1049.0;-27.25;37.91;-4.84;6.61;-10.81;-69.2;2.0;61.032;19.300112;72.86197;-122.58;0.0;6.37;14.680644;355.0;14 / 24;12323;2018-06-13 18:54:30:781
6.3701;0.5478;5.1839;8.5197;3.198;3.6548;-0.9997;-2.8249;3.7517;4.1013;1.321;0.6259;1049.0;-24.36;34.37;-24.32;343.46;-19.03;-66.78;2.0;57.338;19.300112;72.86197;-122.58;0.0;6.37;14.680644;355.0;14 / 24;12423;2018-06-13 18:54:30:881
7.9654;0.7743;6.7963;8.5363;3.6916;3.1104;-1.5438;-2.8218;2.4229;3.646;0.8384;1.1293;598.0;-24.36;34.37;-24.32;343.46;-19.03;-66.78;2.0;57.338;19.300112;72.86197;-122.58;0.0;6.37;14.680644;355.0;14 / 24;12523;2018-06-13 18:54:30:981
9.8918;1.5986;5.0329;8.715;3.6965;2.5602;0.4245;-2.4004;4.0501;3.646;0.8384;1.1293;598.0;-16.26;23.4;-40.36;315.02;-22.11;-69.98;2.0;57.338;19.300112;72.86197;-122.58;0.0;6.37;14.680644;355.0;14 / 24;12622;2018-06-13 18:54:31:080
7.8663;1.6175;1.8872;8.8175;3.7967;2.0018;0.3207;-2.4998;4.5953;3.785;0.4112;0.6917;168.0;-14.07;12.13;-45.39;296.36;-22.78;-77.21;2.0;56.736;19.300112;72.86197;-122.58;0.0;6.37;14.680644;355.0;14 / 24;12722;2018-06-13 18:54:31:180
8.5536;1.7482;0.9862;8.9498;3.8828;0.9971;-0.1102;-2.1769;3.0977;3.2674;0.2396;0.2427;168.0;-9.62;-7.29;-46.44;269.39;-23.32;-83.64;2.0;56.736;19.300112;72.86197;-122.58;0.0;6.37;14.680644;355.0;14 / 24;12824;2018-06-13 18:54:31:282
10.6805;-0.4147;-1.4966;9.0506;3.7621;0.3215;-0.3228;-1.7388;0.8406;2.3461;0.5092;0.114;143.0;-5.19;-21.72;-41.58;247.15;-23.01;-87.53;2.0;56.736;19.300112;72.86197;-122.58;0.0;6.37;14.680644;355.0;14 / 24;12923;2018-06-13 18:54:31:381
12.9385;-0.915;1.5747;9.0092;3.6132;1.3964;2.1411;-3.7583;-4.7575;0.5677;2.3765;0.1867;143.0;-0.57;-27.85;-37.88;236.66;-22.56;-87.97;2.0;57.513;19.300112;72.86197;-122.58;0.0;6.37;14.680644;355.0;14 / 24;13023;2018-06-13 18:54:31:481
11.2128;-0.9989;2.0164;9.109;3.0635;1.9521;3.6007;-3.5926;0.2923;-0.7054;0.7725;0.7359;110.0;3.3;-26.77;-40.99;239.61;-18.2;-77.9;2.0;57.513;19.300112;72.86197;-122.58;0.0;6.37;14.680644;355.0;14 / 24;13123;2018-06-13 18:54:31:581
8.3613;0.6785;3.6117;9.2213;2.3725;2.347;2.6922;-3.3115;-0.6853;-2.0202;-0.0275;-0.0671;110.0;1.78;-20.59;-46.38;248.12;-14.0;-75.72;2.0;57.513;19.300112;72.86197;-122.58;0.0;6.37;14.680644;355.0;14 / 24;13223;2018-06-13 18:54:31:681
7.8488;1.4792;3.0493;9.4106;1.8752;2.0237;-0.6795;-2.1064;1.8571;-2.3996;-0.981;-0.1553;153.0;-2.63;-8.17;-50.26;263.75;-11.02;-77.86;2.0;57.513;19.300133;72.86197;-125.81;0.0;7.45;14.680644;339.2;14 / 24;13323;2018-06-13 18:54:31:781
7.5001;2.2072;3.9453;9.4911;1.5392;1.9287;-1.2682;1.1505;2.2386;-2.3568;-0.4183;-0.1582;153.0;-9.38;9.11;-52.04;283.87;-9.94;-78.66;2.0;56.216;19.300133;72.86197;-125.81;0.0;7.45;14.680644;339.2;14 / 24;13423;2018-06-13 18:54:31:881
8.7773;3.6651;1.2684;9.3882;1.5723;2.358;-0.1546;2.0159;-0.0821;-1.0799;0.5419;-0.3169;143.0;-11.12;12.65;-52.41;288.33;-9.03;-78.51;2.0;56.216;19.300133;72.86197;-125.81;0.0;7.45;14.680644;339.2;14 / 24;13522;2018-06-13 18:54:31:980
9.1381;3.6661;4.25;9.3562;1.4907;2.5317;0.4749;2.2794;2.455;-0.0236;0.2399;0.2044;143.0;-10.46;15.23;-52.7;290.75;-8.74;-74.86;2.0;56.216;19.300133;72.86197;-125.81;0.0;7.45;14.680644;339.2;14 / 24;13623;2018-06-13 18:54:32:081
6.2154;3.7171;3.9431;9.416;1.6128;2.2153;-0.475;1.9676;1.3495;0.6908;-0.1903;0.0424;119.0;-10.46;15.23;-52.7;290.75;-8.74;-74.86;2.0;58.969;19.300133;72.86197;-125.81;0.0;7.45;14.680644;339.2;14 / 24;13723;2018-06-13 18:54:32:181
7.6119;4.14;3.46;9.3874;1.9481;2.0622;-2.311;2.0199;2.1953;1.7062;-0.0703;0.2212;119.0;-11.68;10.13;-54.31;285.5;-9.47;-76.76;2.0;58.969;19.300133;72.86197;-125.81;0.0;7.45;14.680644;339.2;14 / 24;13823;2018-06-13 18:54:32:281
8.5023;3.3526;3.4157;9.4455;2.0264;1.6873;-1.2088;2.1067;1.2361;2.2341;-0.1588;0.1326;136.0;-11.31;-2.41;-53.17;272.82;-11.46;-77.61;2.0;58.969;19.300133;72.86197;-125.81;0.0;7.45;14.680644;339.2;14 / 24;13923;2018-06-13 18:54:32:381
9.3328;2.4534;0.1077;9.5062;2.2885;0.7513;-0.8998;1.2974;2.3907;2.2341;-0.1588;0.1326;136.0;-10.66;-8.3;-52.28;272.82;-11.46;-77.61;2.0;57.328;19.300133;72.86197;-125.81;0.0;7.45;14.680644;339.2;14 / 24;14022;2018-06-13 18:54:32:480
12.7043;-0.5828;1.8467;9.5451;2.2317;0.2847;1.066;-1.5564;1.5754;1.6031;0.1074;0.212;129.0;-12.27;-21.5;-49.55;251.13;-13.5;-85.48;2.0;57.328;19.300133;72.86197;-125.81;0.0;7.45;14.680644;339.2;14 / 24;14123;2018-06-13 18:54:32:581
12.4551;-2.3536;0.0266;9.5772;2.1079;-0.0718;3.5184;-2.883;1.535;1.2697;-0.7822;-0.1948;129.0;-11.29;-25.15;-50.53;247.0;-13.15;-88.29;2.0;57.328;19.300133;72.86197;-125.81;0.0;7.45;14.680644;339.2;14 / 24;14223;2018-06-13 18:54:32:681
9.867;-2.4939;-1.1858;9.4752;2.34;-0.9567;0.4702;-4.6984;-0.3079;1.2697;-0.7822;-0.1948;121.0;-11.42;-30.48;-43.67;247.0;-13.15;-88.29;2.0;61.601;19.300133;72.86197;-125.81;0.0;7.45;14.680644;339.2;14 / 24;14323;2018-06-13 18:54:32:781
8.9679;-0.0991;-0.006;9.421;2.6925;-0.4061;-0.5667;-3.1976;0.5033;-0.9543;0.1922;-0.5355;121.0;-13.72;-31.7;-41.65;236.34;-13.8;-95.77;2.0;61.601;19.300144;72.86196;-125.81;0.0;2.12;14.680644;321.1;15 / 24;14423;2018-06-13 18:54:32:881
9.0081;0.767;1.6142;9.437;2.6592;0.2052;-0.5667;-3.1976;0.5033;-2.1093;0.4787;-4.0E-4;142.0;-12.48;-20.75;-49.31;250.54;-15.94;-92.47;2.0;61.601;19.300144;72.86196;-125.81;0.0;2.12;14.680644;321.1;15 / 24;14522;2018-06-13 18:54:32:980
8.2803;1.4393;0.6272;9.4167;2.6182;0.8011;-0.1222;-1.998;0.4129;-1.9301;0.4972;-0.0857;168.0;-12.29;-13.93;-52.09;259.82;-15.48;-85.14;2.0;61.601;19.300144;72.86196;-125.81;0.0;2.12;14.680644;321.1;15 / 24;14622;2018-06-13 18:54:33:080
9.1221;1.8314;2.028;9.5037;2.1861;1.0344;-0.5606;-0.5066;-0.6785;-1.8916;-0.3309;0.2178;168.0;-15.39;-1.44;-54.88;273.96;-12.88;-83.79;2.0;64.506;19.300144;72.86196;-125.81;0.0;2.12;14.680644;321.1;15 / 24;14723;2018-06-13 18:54:33:181
9.0396;2.6442;2.887;9.6234;1.4565;1.1998;-0.232;0.3102;1.0757;-2.1652;-0.361;0.417;234.0;-18.85;10.78;-53.74;287.46;-12.88;-83.79;2.0;64.506;19.300144;72.86196;-125.81;0.0;2.12;14.680644;321.1;15 / 24;14823;2018-06-13 18:54:33:281
9.2489;3.2078;1.2949;9.6831;0.9415;1.2332;-0.1544;2.2854;0.3738;-0.9463;-0.2066;0.293;234.0;-20.65;21.63;-52.96;297.32;-8.54;-82.89;2.0;64.506;19.300144;72.86196;-125.81;0.0;2.12;14.680644;321.1;15 / 24;14923;2018-06-13 18:54:33:381
10.9878;4.1728;2.2012;9.6724;0.8906;1.3495;0.7547;2.9762;1.4696;-0.7788;0.0901;0.0728;141.0;-21.61;26.52;-52.05;301.35;-5.21;-82.06;2.0;64.068;19.300144;72.86196;-125.81;0.0;2.12;14.680644;321.1;15 / 24;15023;2018-06-13 18:54:33:481
8.7558;1.0448;2.7876;9.4858;1.329;2.1035;2.1051;1.9231;0.2824;-0.5461;0.8159;-0.4776;141.0;-21.58;29.24;-52.81;305.25;-7.79;-77.5;2.0;64.068;19.300144;72.86196;-125.81;0.0;2.12;14.680644;321.1;15 / 24;15123;2018-06-13 18:54:33:581
7.4212;3.1593;3.5264;9.3727;1.8671;2.1991;-0.4712;-0.6033;0.5662;0.8372;0.0686;-0.2529;127.0;-22.79;22.65;-54.36;301.67;-10.98;-76.8;2.0;64.068;19.300144;72.86196;-125.81;0.0;2.12;14.680644;321.1;15 / 24;15223;2018-06-13 18:54:33:681
8.4847;3.4748;2.2686;9.362;2.3017;1.7958;-1.1234;1.1467;1.6477;1.3681;-0.3101;0.0253;127.0;-22.79;22.65;-54.36;301.67;-10.98;-76.8;2.0;56.971;19.300144;72.86196;-125.81;0.0;2.12;14.680644;321.1;15 / 24;15323;2018-06-13 18:54:33:781
7.5918;3.2483;3.0884;9.3573;2.5044;1.5295;-0.7397;0.9916;1.1758;1.5346;-0.1204;-0.059;127.0;-25.95;12.93;-56.89;292.49;-13.57;-79.14;2.0;56.971;19.300144;72.86196;-125.81;0.0;2.12;14.680644;321.1;16 / 24;15423;2018-06-13 18:54:33:881
8.4935;3.242;2.6146;9.2998;2.9125;1.0962;-1.2505;0.4533;1.872;1.8913;0.0396;-0.0277;127.0;-25.6;-1.05;-57.63;278.55;-14.8;-80.72;2.0;56.971;19.300144;72.86196;-125.81;0.0;2.12;14.680644;321.1;16 / 24;15523;2018-06-13 18:54:33:981
9.5475;1.7835;0.3698;9.3812;2.8146;0.491;1.3878;0.1081;1.7146;1.8462;-0.1133;0.4337;128.0;-24.22;-8.89;-57.27;270.5;-17.28;-83.28;2.0;60.205;19.300144;72.86196;-125.81;0.0;2.12;14.680644;321.1;16 / 24;15623;2018-06-13 18:54:34:081
9.3006;-0.0162;0.3173;9.2833;3.0747;0.7335;-0.3181;-1.7825;-0.8075;1.4815;0.9917;-0.2079;128.0;-20.91;-24.7;-52.68;251.71;-16.68;-87.0;2.0;60.205;19.300144;72.86196;-125.81;0.0;2.12;14.680644;321.1;16 / 24;15722;2018-06-13 18:54:34:180
11.2761;-0.3741;1.6161;9.2898;3.0333;0.8181;-0.3181;-1.7825;-0.8075;1.4815;0.9917;-0.2079;109.0;-16.71;-32.64;-48.86;242.33;-18.02;-84.97;2.0;60.205;19.300144;72.86196;-125.81;0.0;2.12;14.680644;321.1;16 / 24;15823;2018-06-13 18:54:34:281
10.1875;-0.9393;0.2042;9.3379;2.9476;0.535;2.5183;-3.5136;0.405;0.4148;-0.3835;0.0639;109.0;-16.71;-32.64;-48.86;242.33;-18.02;-84.97;2.0;60.205;19.300144;72.86196;-125.81;0.0;2.12;14.680644;321.1;16 / 24;15924;2018-06-13 18:54:34:382
9.3005;-0.1562;0.4957;9.2843;3.0351;0.8714;0.9257;-3.7774;-0.3204;-0.1521;0.563;-0.284;83.0;-15.95;-33.5;-48.52;242.11;-18.03;-84.64;2.0;59.526;19.300144;72.86196;-125.81;0.0;2.12;14.680644;321.1;16 / 24;16022;2018-06-13 18:54:34:480
9.4438;0.6424;-0.0771;9.2483;3.0548;1.1433;0.4774;-3.1122;-1.3428;-1.7111;-0.2484;-0.2295;83.0;-17.83;-23.77;-55.12;253.88;-18.15;-82.95;2.0;59.526;19.300144;72.86196;-125.81;0.0;2.12;14.680644;321.1;16 / 24;16122;2018-06-13 18:54:34:580
8.865;1.5231;0.8091;9.2287;3.1472;1.0473;0.5089;-2.6862;-0.9398;-2.8118;-1.1015;-0.521;77.0;-23.55;-15.67;-60.05;264.65;-18.72;-83.53;2.0;59.526;19.300144;72.86196;-125.81;0.0;2.12;14.680644;321.1;16 / 24;16223;2018-06-13 18:54:34:681
8.4603;2.8732;1.5019;9.2993;2.9106;1.1054;-0.7374;-0.6622;0.2364;-2.2772;-0.584;0.0043;77.0;-30.36;2.53;-56.23;285.44;-18.72;-83.53;2.0;57.083;19.300144;72.86196;-125.81;0.0;2.12;14.680644;321.1;16 / 24;16323;2018-06-13 18:54:34:781
8.587;2.8326;2.5916;9.3705;2.621;1.2229;-0.7927;-0.3777;0.1243;-2.3684;-0.5021;0.2186;114.0;-33.94;13.68;-55.6;295.55;-15.5;-82.56;2.0;57.083;19.300144;72.86196;-125.81;0.0;2.12;14.680644;321.1;16 / 24;16423;2018-06-13 18:54:34:881
10.5211;3.4215;4.333;9.4128;2.398;1.3489;-0.6468;0.5586;1.3154;-2.2254;-0.3604;-0.0989;114.0;-41.14;27.38;-49.99;310.9;-14.15;-81.84;2.0;57.083;19.300144;72.86196;-125.81;0.0;2.12;14.680644;321.1;16 / 24;16523;2018-06-13 18:54:34:981
8.3597;3.8872;5.4004;9.2339;2.7684;1.8005;0.3025;1.5341;3.0999;-0.6028;0.1496;-0.7077;159.0;-44.59;29.55;-48.11;318.71;-16.4;-78.97;2.0;64.362;19.300144;72.86196;-125.81;0.0;2.12;14.680644;321.1;16 / 24;16623;2018-06-13 18:54:35:081
8.0265;2.4996;3.9665;9.2346;2.8513;1.6622;-0.7826;-0.3308;2.3673;1.4933;0.1811;0.3332;157.0;-44.53;21.65;-51.48;311.24;-16.4;-78.97;2.0;64.362;19.300144;72.86196;-125.81;0.0;2.12;14.680644;321.1;16 / 24;16722;2018-06-13 18:54:35:180
7.4715;3.0374;2.2527;9.2536;2.7985;1.6461;-1.1931;0.0128;0.5077;1.5251;0.298;0.3703;157.0;-39.61;11.31;-55.06;297.8;-16.9;-79.8;2.0;64.362;19.300144;72.86196;-125.81;0.0;2.12;14.680644;321.1;16 / 24;16822;2018-06-13 18:54:35:280
8.8067;2.6473;2.135;9.3338;2.5296;1.6285;-0.1765;-0.072;0.449;1.4569;0.3108;0.3728;157.0;-35.43;4.81;-55.62;297.8;-16.9;-79.8;2.0;64.362;19.300144;72.86196;-125.81;0.0;2.12;14.680644;321.1;16 / 24;16923;2018-06-13 18:54:35:381
8.2477;2.7594;1.7128;9.3545;2.5507;1.4689;-0.2708;0.1802;0.524;1.4569;0.3108;0.3728;155.0;-31.72;-5.77;-53.7;281.49;-14.95;-80.1;2.0;58.046;19.300144;72.86196;-125.81;0.0;2.12;14.680644;321.1;16 / 24;17023;2018-06-13 18:54:35:481
9.1186;2.5122;1.346;9.4249;2.349;1.3504;-0.7784;0.4574;0.3304;1.3324;0.1262;0.5761;155.0;-31.62;-10.56;-53.45;268.46;-13.86;-81.85;2.0;58.046;19.300144;72.86196;-125.81;0.0;2.12;14.680644;321.1;16 / 24;17124;2018-06-13 18:54:35:582
9.1186;2.5122;1.346;9.4249;2.349;1.3504;-0.7784;0.4574;0.3304;1.3324;0.1262;0.5761;155.0;-31.62;-10.56;-53.45;268.46;-13.86;-81.85;2.0;58.046;19.300144;72.86196;-125.81;0.0;2.12;14.680644;321.1;16 / 24;17222;2018-06-13 18:54:35:680
10.5204;2.5242;1.9688;9.5281;2.0959;0.996;0.7881;0.5746;1.0537;1.1575;-0.0877;0.3766;159.0;-31.64;-12.87;-52.55;266.14;-13.86;-81.85;2.0;58.046;19.300144;72.86196;-125.81;0.0;2.12;14.680644;321.1;16 / 24;17325;2018-06-13 18:54:35:783
9.2373;-0.3852;0.2821;9.5817;2.0679;0.2923;0.0496;-2.6516;0.1391;2.119;0.2102;-0.0577;159.0;-27.9;-31.39;-36.92;236.22;-12.17;-88.25;2.0;63.64;19.300142;72.86195;-129.03;0.0;2.05;14.680644;289.0;18 / 24;17423;2018-06-13 18:54:35:881
9.3561;-1.083;-3.4536;9.5817;2.0679;0.2923;0.0496;-2.6516;0.1391;2.119;0.2102;-0.0577;105.0;-27.9;-31.39;-36.92;236.22;-12.17;-88.25;2.0;63.64;19.300142;72.86195;-129.03;0.0;2.05;14.680644;289.0;18 / 24;17523;2018-06-13 18:54:35:981
9.7563;-0.407;-1.3416;9.5942;2.0095;-0.2898;0.0851;-2.9828;-2.4924;0.2332;-0.1244;-0.0102;105.0;-28.08;-35.37;-32.13;227.92;-12.17;-88.25;2.0;63.64;19.300142;72.86195;-129.03;0.0;2.05;14.680644;289.0;18 / 24;17623;2018-06-13 18:54:36:081
8.2803;0.204;-0.5542;9.5964;2.0196;-0.0095;-0.7062;-1.8278;-0.6174;-0.9858;0.1217;-0.1937;72.0;-27.24;-30.11;-36.34;236.74;-11.91;-90.94;2.0;74.685;19.300142;72.86195;-129.03;0.0;2.05;14.680644;289.0;18 / 24;17723;2018-06-13 18:54:36:181
8.6181;0.1842;0.6376;9.6259;1.8744;0.0066;-0.4628;-1.5097;-0.2851;-1.8203;-0.336;0.2079;72.0;-27.26;-25.25;-35.4;241.64;-11.88;-90.06;2.0;74.685;19.300142;72.86195;-129.03;0.0;2.05;14.680644;289.0;18 / 24;17823;2018-06-13 18:54:36:281
9.4989;1.6813;1.6268;9.6646;1.6604;0.0984;-0.3928;-1.3741;0.4599;-2.2104;-0.264;0.3213;51.0;-29.93;-13.92;-37.8;257.07;-9.75;-89.42;2.0;74.685;19.300142;72.86195;-129.03;0.0;2.05;14.680644;289.0;18 / 24;17923;2018-06-13 18:54:36:381
9.5648;3.6476;-0.6268;9.7638;0.9092;-0.1079;-0.4127;-0.3847;2.7563;-0.8114;-0.5357;0.5671;51.0;-31.74;-8.96;-35.64;260.58;-5.32;-90.63;2.0;70.721;19.300142;72.86195;-129.03;0.0;2.05;14.680644;289.0;18 / 24;18022;2018-06-13 18:54:36:480
9.9822;3.3827;-1.116;9.7178;0.7371;1.0917;0.1682;2.6909;-1.6028;-0.583;1.0687;0.1951;76.0;-29.17;-7.67;-36.69;260.85;-4.27;-86.26;2.0;70.721;19.300142;72.86195;-129.03;0.0;2.05;14.680644;289.0;18 / 24;18123;2018-06-13 18:54:36:581
9.8398;2.4973;2.6106;9.6581;0.9708;1.396;2.1011;0.9175;2.3116;-0.7754;0.3996;-0.481;76.0;-26.77;-3.54;-38.08;267.28;-4.31;-83.59;2.0;70.721;19.300142;72.86195;-129.03;0.0;2.05;14.680644;289.0;18 / 24;18222;2018-06-13 18:54:36:680
9.3742;1.0208;2.0798;9.5823;1.0615;1.7951;2.1326;0.8253;1.9183;-0.3253;0.6138;-0.1921;56.0;-22.45;-0.4;-35.56;275.57;-6.21;-79.39;2.0;70.721;19.300142;72.86195;-129.03;0.0;2.05;14.680644;289.0;18 / 24;18324;2018-06-13 18:54:36:782
8.2974;1.3309;3.9587;9.3543;1.3235;2.6299;-1.1657;-1.0133;1.4125;0.1585;0.4338;-0.0573;56.0;-18.29;0.98;-35.19;279.08;-7.76;-74.3;2.0;67.765;19.300142;72.861946;-129.03;0.0;2.74;14.680644;330.3;17 / 24;18423;2018-06-13 18:54:36:881
8.398;1.4362;2.0789;9.4348;1.4051;2.2762;-0.5008;1.1689;0.0565;0.7104;-0.2108;0.1935;72.0;-18.83;0.07;-34.85;279.08;-7.76;-74.3;2.0;67.765;19.300142;72.861946;-129.03;0.0;2.74;14.680644;330.3;17 / 24;18523;2018-06-13 18:54:36:981
7.6048;0.2007;3.6994;9.418;1.1292;2.4893;-1.3605;0.1261;0.6459;0.7426;-0.229;0.2841;72.0;-17.44;-0.62;-36.32;274.77;-8.24;-76.44;2.0;67.765;19.300142;72.861946;-129.03;0.0;2.74;14.680644;330.3;17 / 24;18623;2018-06-13 18:54:37:081
7.9662;3.5489;0.8743;9.5284;1.4779;1.7877;-0.9929;-0.9102;1.1796;0.8754;-1.1584;-0.4376;72.0;-20.29;-3.56;-35.52;268.67;-6.61;-75.19;2.0;69.78;19.300142;72.861946;-129.03;0.0;2.74;14.680644;330.3;17 / 24;18722;2018-06-13 18:54:37:180
9.8198;2.495;-0.1705;9.5729;1.4522;1.5561;-0.2337;1.748;-0.8279;0.9373;0.3268;0.6452;76.0;-21.57;-4.9;-34.43;268.56;-8.67;-79.37;2.0;69.78;19.300142;72.861946;-129.03;0.0;2.74;14.680644;330.3;17 / 24;18823;2018-06-13 18:54:37:281
9.8464;1.3828;1.1378;9.6619;0.721;1.5161;0.4432;0.156;0.3397;0.4577;-0.4234;0.4416;76.0;-20.66;-6.74;-35.25;261.79;-5.42;-79.51;2.0;69.78;19.300142;72.861946;-129.03;0.0;2.74;14.680644;330.3;17 / 24;18923;2018-06-13 18:54:37:381
9.6286;0.1612;1.7116;9.6631;0.6098;1.5569;0.364;0.5805;0.0174;0.3341;0.2436;0.2207;84.0;-21.79;-8.48;-35.88;258.91;-3.57;-80.85;2.0;65.693;19.300142;72.861946;-129.03;0.0;2.74;14.680644;330.3;17 / 24;19023;2018-06-13 18:54:37:481
8.6054;-0.1864;2.016;9.6104;0.7746;1.7919;1.2583;-0.9733;1.0535;0.3341;0.2436;0.2207;84.0;-21.81;-12.37;-41.42;255.09;-4.53;-79.44;2.0;65.693;19.300142;72.861946;-129.03;0.0;2.74;14.680644;330.3;17 / 24;19122;2018-06-13 18:54:37:580
8.533;-0.1853;1.5755;9.5422;1.0236;2.0172;-1.1284;-1.4191;0.5103;0.3717;0.4051;-0.4004;88.0;-18.06;-14.05;-36.76;255.09;-4.53;-79.44;2.0;65.693;19.300142;72.861946;-129.03;0.0;2.74;14.680644;330.3;17 / 24;19223;2018-06-13 18:54:37:681
9.502;-0.499;2.8105;9.4694;1.0471;2.3246;-1.0401;-1.4398;0.2183;0.3635;0.5658;7.0E-4;88.0;-17.4;-15.58;-36.7;247.5;-6.13;-76.21;2.0;59.299;19.300142;72.861946;-129.03;0.0;2.74;14.680644;330.3;17 / 24;19323;2018-06-13 18:54:37:781
9.8508;-0.2622;2.0688;9.4453;0.726;2.5357;0.327;-1.1577;0.1377;0.1261;0.2531;0.4776;98.0;-18.35;-16.54;-36.75;247.5;-6.13;-76.21;2.0;59.299;19.300142;72.861946;-129.03;0.0;2.74;14.680644;330.3;17 / 24;19423;2018-06-13 18:54:37:881
9.692;0.016;1.2631;9.4939;0.5809;2.3874;0.2541;-1.3215;-0.2236;-0.3644;-0.2014;-0.2656;98.0;-18.52;-15.34;-36.52;246.87;-3.4;-75.88;2.0;59.299;19.300142;72.861946;-129.03;0.0;2.74;14.680644;330.3;17 / 24;19522;2018-06-13 18:54:37:980
10.6437;0.492;0.516;9.5129;0.6199;2.3001;0.5268;-0.5658;-1.0029;-1.0149;-0.1792;-0.2707;102.0;-18.35;-13.28;-37.01;246.87;-3.4;-75.88;2.0;59.415;19.300142;72.861946;-129.03;0.0;2.74;14.680644;330.3;17 / 24;19622;2018-06-13 18:54:38:080
9.0651;0.0855;1.7093;9.4895;0.5717;2.4067;0.0263;-0.3532;-0.3149;-1.792;0.2738;-0.3728;102.0;-16.24;-6.02;-38.41;262.38;-3.62;-76.41;2.0;59.415;19.300142;72.861946;-129.03;0.0;2.74;14.680644;330.3;17 / 24;19722;2018-06-13 18:54:38:180
8.9834;-0.7428;4.3652;9.5052;0.5312;2.3536;0.0123;-0.3142;-0.2635;-1.2422;-0.1583;-0.2534;129.0;-15.56;-3.14;-38.49;267.31;-3.34;-75.77;2.0;59.415;19.300142;72.861946;-129.03;0.0;2.74;14.680644;330.3;17 / 24;19823;2018-06-13 18:54:38:281
8.6616;0.1185;3.46;9.585;0.3417;2.045;0.8604;-1.2267;2.2446;-0.8907;-0.5401;-0.1526;129.0;-16.48;1.37;-39.01;273.01;-2.0;-77.96;2.0;61.265;19.300142;72.861946;-129.03;0.0;2.74;14.680644;330.3;17 / 24;19922;2018-06-13 18:54:38:380
8.2127;1.0595;2.0282;9.6917;0.3923;1.4448;-0.7259;0.0379;1.243;-0.0526;-0.6265;-0.0258;173.0;-18.38;2.53;-37.03;276.6;-2.29;-81.52;2.0;61.265;19.300142;72.861946;-129.03;0.0;2.74;14.680644;330.3;17 / 24;20023;2018-06-13 18:54:38:481
8.3856;2.3029;2.2417;9.6827;0.5803;1.4419;-0.985;1.663;1.1889;0.5441;-0.0651;-0.1354;173.0;-16.97;2.32;-36.74;276.6;-2.29;-81.52;2.0;61.265;19.300142;72.861946;-129.03;0.0;2.74;14.680644;330.3;17 / 24;20122;2018-06-13 18:54:38:580
8.9436;2.4571;2.3566;9.6639;0.7835;1.4716;-0.453;1.7576;0.6176;0.5953;0.0724;-0.2079;217.0;-17.86;0.96;-40.14;273.72;-3.39;-81.53;2.0;61.415;19.300142;72.861946;-129.03;0.0;2.74;14.680644;330.3;17 / 24;20222;2018-06-13 18:54:38:680
8.9721;2.7932;1.9262;9.6443;1.1846;1.3244;-0.2943;1.6445;0.6933;1.3105;-0.0951;-0.0849;217.0;-15.48;-3.82;-36.17;265.93;-4.58;-81.34;2.0;61.415;19.300142;72.861946;-129.03;0.0;2.74;14.680644;330.3;17 / 24;20323;2018-06-13 18:54:38:781
9.3772;1.7855;1.0454;9.6819;1.26;0.9179;0.694;1.0221;0.6161;1.5353;-0.5204;-0.0603;217.0;-15.35;-7.93;-34.8;265.93;-4.58;-81.34;2.0;61.415;19.300148;72.861946;-129.03;0.0;4.54;14.680644;338.8;17 / 24;20422;2018-06-13 18:54:38:880
10.5399;1.0005;1.4514;9.691;1.4537;0.3773;0.3452;0.1075;0.1776;1.075;-0.0814;-0.0885;220.0;-15.09;-13.95;-33.11;249.8;-7.38;-84.58;2.0;59.524;19.300148;72.861946;-129.03;0.0;4.54;14.680644;338.8;17 / 24;20522;2018-06-13 18:54:38:980
9.996;-2.2951;1.0042;9.622;1.8914;0.099;1.344;-1.5423;-0.1744;0.9134;-0.0207;-0.3139;220.0;-14.92;-18.7;-30.95;243.04;-11.12;-89.41;2.0;59.524;19.300148;72.861946;-129.03;0.0;4.54;14.680644;338.8;17 / 24;20623;2018-06-13 18:54:39:081
7.3598;-1.0163;-2.5414;9.4167;2.6625;0.6388;-0.7605;-4.7999;0.7164;0.8873;0.5742;-0.7972;172.0;-14.92;-18.7;-30.95;243.04;-11.12;-89.41;2.0;59.524;19.300148;72.861946;-129.03;0.0;4.54;14.680644;338.8;17 / 24;20723;2018-06-13 18:54:39:181
9.1727;-0.3639;-0.3053;9.4167;2.6625;0.6388;-0.7605;-4.7999;0.7164;0.8873;0.5742;-0.7972;172.0;-10.41;-22.1;-30.19;238.52;-15.75;-86.12;2.0;63.105;19.300148;72.861946;-129.03;0.0;4.54;14.680644;338.8;17 / 24;20823;2018-06-13 18:54:39:281
9.0862;0.2442;-0.3039;9.4553;2.5352;0.5831;-1.1997;-3.1419;-2.932;-1.4633;-0.0408;0.1759;171.0;-10.64;-20.35;-32.42;242.94;-14.98;-86.47;2.0;63.105;19.300148;72.861946;-129.03;0.0;4.54;14.680644;338.8;17 / 24;20922;2018-06-13 18:54:39:380
9.5628;0.9477;1.789;9.5612;2.0349;0.7831;-0.0412;-1.4771;-1.3452;-2.3851;-0.2951;0.1712;171.0;-11.4;-11.61;-36.81;256.58;-12.86;-85.26;2.0;63.105;19.300148;72.861946;-129.03;0.0;4.54;14.680644;338.8;17 / 24;21022;2018-06-13 18:54:39:480
9.1136;2.9974;1.2854;9.5645;1.9294;0.9837;-0.2015;0.026;0.2744;-1.9997;-0.0732;0.0058;221.0;-12.96;-1.01;-40.94;273.47;-11.35;-84.13;2.0;63.105;19.300148;72.861946;-129.03;0.0;4.54;14.680644;338.8;17 / 24;21122;2018-06-13 18:54:39:580
10.5255;2.8335;5.3369;9.5928;1.7237;1.085;-0.694;1.3318;1.0226;-1.8198;-0.2029;0.205;221.0;-15.35;5.16;-43.77;281.32;-10.12;-83.55;2.0;59.188;19.300148;72.861946;-129.03;0.0;4.54;14.680644;338.8;17 / 24;21223;2018-06-13 18:54:39:681
8.3385;2.3894;4.2452;9.6799;1.357;0.7929;1.1839;1.5023;3.6065;-0.7184;-0.924;0.2896;230.0;-15.77;11.72;-38.57;291.15;-7.95;-85.32;2.0;59.188;19.300148;72.861946;-129.03;0.0;4.54;14.680644;338.8;17 / 24;21323;2018-06-13 18:54:39:781
8.8535;2.7574;2.5791;9.6763;1.2716;0.9603;0.4722;1.3979;1.5943;-0.1327;0.2718;0.0706;230.0;-16.47;13.2;-38.11;293.08;-7.45;-84.33;2.0;59.188;19.300148;72.861946;-129.03;0.0;4.54;14.680644;338.8;18 / 24;21423;2018-06-13 18:54:39:881
9.8882;2.5888;2.5692;9.6889;1.1401;0.9983;0.4313;1.5018;1.5171;0.925;0.1374;0.2586;224.0;-14.51;9.49;-40.05;286.53;-7.45;-84.33;2.0;60.557;19.300148;72.861946;-129.03;0.0;4.54;14.680644;338.8;18 / 24;21522;2018-06-13 18:54:39:980
8.7539;2.3324;2.3936;9.5975;1.386;1.462;-0.4578;1.0158;0.8946;1.2178;0.5308;-0.1;224.0;-9.49;5.13;-39.7;279.47;-6.68;-84.12;2.0;60.557;19.300148;72.861946;-129.03;0.0;4.54;14.680644;338.8;18 / 24;21622;2018-06-13 18:54:40:080
8.8775;2.387;1.817;9.5521;1.5155;1.6219;-0.4117;0.8912;0.7408;1.4436;0.2875;0.0911;239.0;-7.05;0.19;-41.52;273.06;-8.89;-80.36;2.0;60.557;19.300148;72.861946;-129.03;0.0;4.54;14.680644;338.8;18 / 24;21723;2018-06-13 18:54:40:181
8.4975;1.1294;2.4182;9.4912;1.649;1.8354;-0.7677;0.5626;0.384;1.4436;0.2875;0.0911;239.0;-4.65;-6.95;-40.26;262.86;-9.68;-79.06;2.0;55.576;19.300148;72.861946;-129.03;0.0;4.54;14.680644;338.8;18 / 24;21823;2018-06-13 18:54:40:281
8.6466;-0.9604;-1.7429;9.5659;1.724;1.3006;3.0204;-2.4082;2.5739;1.6669;-0.002;0.3792;209.0;-3.72;-10.8;-39.15;262.86;-9.68;-79.06;2.0;55.576;19.300148;72.861946;-129.03;0.0;4.54;14.680644;338.8;18 / 24;21924;2018-06-13 18:54:40:382
8.9358;-0.7244;0.0859;9.5184;2.1988;0.8576;-0.3454;-3.0636;-1.9393;2.6469;-0.1709;-0.6149;209.0;-3.8;-16.83;-36.21;246.62;-10.13;-82.26;2.0;55.576;19.300148;72.861946;-129.03;0.0;4.54;14.680644;338.8;18 / 24;22023;2018-06-13 18:54:40:481
9.8813;-0.4756;0.4048;9.5742;2.0687;0.475;0.7303;-2.7273;-0.0757;0.4253;-0.5203;0.3423;154.0;-3.28;-21.45;-33.5;240.36;-12.96;-84.85;2.0;56.784;19.300148;72.861946;-129.03;0.0;4.54;14.680644;338.8;18 / 24;22123;2018-06-13 18:54:40:581
9.2144;-0.0909;0.7874;9.6738;1.5888;0.2534;0.2919;-1.9399;0.7366;-0.4521;-0.1859;0.3623;154.0;-6.38;-21.87;-39.0;240.36;-12.96;-84.85;2.0;56.784;19.300148;72.861946;-129.03;0.0;4.54;14.680644;338.8;18 / 24;22223;2018-06-13 18:54:40:681
8.5042;1.2364;0.1168;9.7162;1.3019;0.2659;-0.4009;-0.4497;-0.7858;-0.5438;-0.2503;0.3545;141.0;-8.28;-18.3;-48.58;251.23;-7.95;-89.04;2.0;56.784;19.300148;72.861946;-129.03;0.0;4.54;14.680644;338.8;17 / 24;22322;2018-06-13 18:54:40:780
9.1558;0.9801;0.0126;9.7162;1.3019;0.2659;-0.4009;-0.4497;-0.7858;-1.391;-0.0099;-0.0687;141.0;-10.37;-11.56;-52.23;258.65;-7.63;-88.43;2.0;56.784;19.300144;72.86194;-132.26;0.0;4.07;14.680644;237.6;17 / 24;22423;2018-06-13 18:54:40:881
8.4155;1.3458;0.1864;9.6911;1.4241;0.4738;-0.7248;-0.1132;-0.2848;-1.6844;-0.0243;-0.2111;141.0;-10.37;-11.56;-52.23;258.65;-7.63;-88.43;2.0;61.073;19.300144;72.86194;-132.26;0.0;4.07;14.680644;237.6;17 / 24;22523;2018-06-13 18:54:40:981
9.6308;1.8658;-0.6253;9.7034;1.3918;0.2779;0.1684;0.1629;-0.9548;-1.4835;-0.5246;-0.0032;141.0;-10.38;-3.41;-55.63;268.84;-8.35;-87.2;2.0;61.073;19.300144;72.86194;-132.26;0.0;4.07;14.680644;237.6;17 / 24;22623;2018-06-13 18:54:41:081
9.2354;2.2091;-0.0616;9.7037;1.4162;-0.0547;1.0272;0.4581;-0.754;-1.4998;-0.2933;-0.0137;139.0;-12.36;3.37;-54.22;274.92;-8.3;-90.32;2.0;61.073;19.300144;72.86194;-132.26;0.0;4.07;14.680644;237.6;17 / 24;22723;2018-06-13 18:54:41:181
11.7099;1.4454;2.6959;9.7148;1.3322;-0.1358;-0.064;0.7904;-0.0499;-1.3941;0.0525;0.2619;126.0;-9.3;8.67;-56.08;280.14;-7.81;-90.8;2.0;65.468;19.300144;72.86194;-132.26;0.0;4.07;14.680644;237.6;17 / 24;22822;2018-06-13 18:54:41:280
9.4871;1.2613;-0.3478;9.7214;1.2891;-0.0485;0.6129;1.0244;2.1315;-0.2507;0.1788;-0.3797;126.0;-9.39;15.01;-55.09;285.96;-6.26;-91.09;2.0;65.468;19.300144;72.86194;-132.26;0.0;4.07;14.680644;237.6;17 / 24;22923;2018-06-13 18:54:41:381
8.9186;3.5882;1.4225;9.6725;1.6112;0.1327;-0.8946;0.0967;0.0768;-0.2811;0.2673;-0.5483;105.0;-10.56;15.86;-54.68;287.42;-7.55;-90.29;2.0;65.468;19.300144;72.86194;-132.26;0.0;4.07;14.680644;237.6;17 / 24;23022;2018-06-13 18:54:41:480
9.2469;2.8986;2.2807;9.6263;1.8678;0.1294;-0.2764;0.9212;0.9663;0.1788;-0.002;-0.4129;105.0;-10.58;14.62;-54.87;287.18;-10.98;-89.23;2.0;57.051;19.300144;72.86194;-132.26;0.0;4.07;14.680644;237.6;17 / 24;23122;2018-06-13 18:54:41:580
9.0382;2.5843;1.5709;9.4673;2.5547;0.1143;0.1271;0.1787;2.2283;1.198;0.1407;-0.556;108.0;-9.89;8.39;-55.62;280.65;-15.1;-89.31;2.0;57.051;19.300144;72.86194;-132.26;0.0;4.07;14.680644;237.6;17 / 24;23223;2018-06-13 18:54:41:681
9.7914;1.7381;0.4007;9.313;3.0584;-0.2902;-0.5211;-0.3268;0.8958;1.986;0.333;-0.398;108.0;-8.66;0.38;-56.9;272.25;-18.17;-91.78;2.0;57.051;19.300144;72.86194;-132.26;0.0;4.07;14.680644;237.6;17 / 24;23325;2018-06-13 18:54:41:783
7.8591;2.2513;-1.4891;9.2025;3.096;-1.3783;1.03;-1.3113;1.3647;2.6015;-0.2978;-0.4043;122.0;-9.18;-13.67;-53.36;256.45;-18.4;-98.52;2.0;58.121;19.300148;72.86193;-132.26;0.0;1.69;14.680644;341.8;18 / 24;23422;2018-06-13 18:54:41:880
8.7479;2.5525;-3.6483;9.1522;3.1344;-1.6073;-0.0251;-1.093;-0.7871;1.7343;0.1995;-0.3885;122.0;-8.04;-18.61;-53.45;256.45;-18.4;-98.52;2.0;58.121;19.300148;72.86193;-132.26;0.0;1.69;14.680644;341.8;18 / 24;23523;2018-06-13 18:54:41:981
8.1335;2.3774;-2.3976;9.1162;2.9095;-2.1448;-0.0492;-0.1657;-1.6706;0.5861;-0.0529;-0.011;122.0;-9.9;-21.34;-46.1;247.7;-18.64;-99.96;2.0;58.121;19.300148;72.86193;-132.26;0.0;1.69;14.680644;341.8;18 / 24;23623;2018-06-13 18:54:42:081
8.4119;1.9252;-3.4152;9.1402;2.9326;-2.0068;-0.3759;-0.6349;-0.5869;0.0721;0.113;-0.0146;120.0;-9.25;-22.59;-37.49;240.12;-17.26;-103.24;2.0;58.121;19.300148;72.86193;-132.26;0.0;1.69;14.680644;341.8;18 / 24;23724;2018-06-13 18:54:42:182
11.0576;1.8306;-0.27;9.164;2.8874;-1.9632;-0.2143;-0.9263;-1.2395;0.0451;0.1355;0.045;120.0;-8.0;-22.51;-37.33;240.12;-17.26;-103.24;2.0;55.295;19.300148;72.86193;-132.26;0.0;1.69;14.680644;341.8;18 / 24;23823;2018-06-13 18:54:42:281
9.8215;0.5112;-0.8242;9.2815;2.5192;-1.9175;2.4446;-1.5903;-0.4687;-0.3802;-0.4778;0.3391;129.0;-9.22;-20.64;-38.31;243.08;-17.12;-102.09;2.0;55.295;19.300148;72.86193;-132.26;0.0;1.69;14.680644;341.8;18 / 24;23923;2018-06-13 18:54:42:381
8.5155;0.958;-1.2331;9.3231;2.5345;-1.6811;0.2575;-2.1916;1.2642;-0.9528;-0.1719;0.1944;129.0;-11.77;-14.85;-41.03;252.55;-15.26;-100.68;2.0;55.295;19.300148;72.86193;-132.26;0.0;1.69;14.680644;341.8;18 / 24;24023;2018-06-13 18:54:42:481
9.192;0.9348;-1.0217;9.3504;2.4012;-1.7245;0.2575;-2.1916;1.2642;-0.9528;-0.1719;0.1944;134.0;-11.77;-14.85;-41.03;252.55;-15.26;-100.68;2.0;57.553;19.300148;72.86193;-132.26;0.0;1.69;14.680644;341.8;18 / 24;24122;2018-06-13 18:54:42:580
8.6051;1.4977;-1.6006;9.4518;2.1757;-1.4494;0.049;-1.1891;0.4472;-1.4382;-0.2397;0.4656;134.0;-16.42;-6.57;-48.12;264.23;-14.17;-100.45;2.0;57.553;19.300148;72.86193;-132.26;0.0;1.69;14.680644;341.8;18 / 24;24223;2018-06-13 18:54:42:681
9.1499;2.3046;-1.0712;9.5166;1.9512;-1.3404;-0.5677;-0.393;-0.0149;-1.563;-0.1476;0.6155;121.0;-16.08;1.58;-43.79;274.86;-11.48;-98.02;2.0;57.553;19.300148;72.86193;-132.26;0.0;1.69;14.680644;341.8;18 / 24;24323;2018-06-13 18:54:42:781
9.0333;2.3016;-0.8159;9.5827;1.5514;-1.3911;-0.1407;0.8189;0.4513;-1.4496;-0.2518;0.476;121.0;-17.9;7.24;-44.28;281.27;-11.48;-98.02;2.0;60.746;19.300152;72.86194;-132.26;0.0;2.48;14.680644;41.8;18 / 24;24422;2018-06-13 18:54:42:880
8.7245;2.1254;-0.7203;9.592;1.5709;-1.302;-0.5286;0.5979;0.0832;-0.9055;-0.1702;0.0946;81.0;-19.39;15.44;-42.72;290.36;-9.1;-98.26;2.0;60.746;19.300152;72.86194;-132.26;0.0;2.48;14.680644;41.8;18 / 24;24522;2018-06-13 18:54:42:980
9.6939;2.3352;-1.4099;9.5954;1.5303;-1.3256;-0.5247;0.638;0.1048;-0.5826;-0.1368;0.172;81.0;-19.74;17.12;-41.45;293.68;-8.98;-97.87;2.0;60.746;19.300152;72.86194;-132.26;0.0;2.48;14.680644;41.8;18 / 24;24622;2018-06-13 18:54:43:080
9.5082;3.8345;1.8642;9.6217;1.6212;-0.9825;0.4758;1.2722;-0.5001;-0.817;0.424;-0.1298;81.0;-20.61;20.52;-42.34;298.11;-9.52;-95.83;2.0;60.746;19.300152;72.86194;-132.26;0.0;2.48;14.680644;41.8;18 / 24;24722;2018-06-13 18:54:43:180
9.6774;3.6158;-0.0885;9.5423;2.118;-0.7929;0.2296;1.8161;2.2008;0.4646;0.1046;-0.2065;86.0;-19.54;18.66;-43.26;296.54;-11.86;-93.87;2.0;60.871;19.300152;72.86194;-132.26;0.0;2.48;14.680644;41.8;18 / 24;24822;2018-06-13 18:54:43:280
8.7643;3.8097;1.5901;9.512;2.229;-0.851;-0.3321;1.632;2.1016;1.1411;0.0923;-0.2446;86.0;-21.12;14.71;-43.86;296.54;-11.86;-93.87;2.0;60.871;19.300152;72.86194;-132.26;0.0;2.48;14.680644;41.8;18 / 24;24924;2018-06-13 18:54:43:382
9.0285;2.5831;0.6453;9.4685;2.2572;-1.193;-0.0479;1.5467;0.8722;1.6629;-0.237;-0.1814;121.0;-21.0;5.62;-42.54;281.72;-13.31;-97.18;2.0;60.871;19.300152;72.86194;-132.26;0.0;2.48;14.680644;41.8;18 / 24;25023;2018-06-13 18:54:43:481
7.9287;3.1041;-0.8125;9.2741;2.655;-1.764;0.2255;0.5217;1.9537;1.5502;-0.0106;-0.5768;121.0;-20.74;1.37;-42.23;281.72;-13.31;-97.18;2.0;54.385;19.300152;72.86194;-132.26;0.0;2.48;14.680644;41.8;18 / 24;25122;2018-06-13 18:54:43:580
8.7181;3.0033;1.557;9.2996;2.6884;-1.5687;-0.9506;0.503;0.6684;1.0436;0.6344;-0.2279;152.0;-20.48;-2.09;-46.14;271.25;-15.71;-100.77;2.0;54.385;19.300152;72.86194;-132.26;0.0;2.48;14.680644;41.8;18 / 24;25223;2018-06-13 18:54:43:681
9.2533;1.6989;0.7124;9.3233;2.7043;-1.3906;-0.4035;0.4172;2.481;1.3683;0.6394;-0.2294;152.0;-15.99;-7.14;-41.81;264.4;-15.91;-99.58;2.0;54.385;19.300152;72.86194;-132.26;0.0;2.48;14.680644;41.8;18 / 24;25323;2018-06-13 18:54:43:781
11.4882;0.6911;2.6825;9.3942;2.7731;-0.4788;0.7046;-1.1556;1.0806;0.9846;1.2895;-0.1297;160.0;-12.39;-10.39;-42.2;264.4;-15.91;-99.58;2.0;55.519;19.300156;72.86194;-132.26;0.0;0.0;14.680644;;18 / 24;25423;2018-06-13 18:54:43:881
8.224;-0.7479;-1.0838;9.3047;3.0922;0.1783;0.9775;-3.4077;-1.8008;0.8476;1.2416;-0.672;160.0;-8.38;-15.88;-41.9;252.08;-16.43;-92.92;2.0;55.519;19.300156;72.86194;-132.26;0.0;0.0;14.680644;;18 / 24;25523;2018-06-13 18:54:43:981
9.9407;-0.4978;-2.3313;9.2393;3.1805;0.8307;0.13;-3.81;-0.341;-0.101;-0.3326;0.2031;171.0;-3.75;-15.72;-43.01;253.48;-18.92;-84.86;2.0;55.519;19.300156;72.86194;-132.26;0.0;0.0;14.680644;;18 / 24;25623;2018-06-13 18:54:44:081
7.9049;0.427;-0.0941;9.2985;2.6267;1.4797;-0.8837;-2.2636;-1.4662;-0.101;-0.3326;0.2031;171.0;-3.75;-15.72;-43.01;253.48;-18.92;-84.86;2.0;54.863;19.300156;72.86194;-132.26;0.0;0.0;14.680644;;18 / 24;25722;2018-06-13 18:54:44:180
7.8342;1.8856;-0.1411;9.4457;2.2842;1.3157;-0.8888;-2.0114;-1.7465;-1.4405;0.1521;0.1976;188.0;-1.97;-9.62;-44.41;260.45;-15.54;-80.99;2.0;54.863;19.300156;72.86194;-132.26;0.0;0.0;14.680644;;18 / 24;25822;2018-06-13 18:54:44:280
8.2634;3.9975;2.8154;9.5205;2.0756;1.1057;0.4232;0.2664;0.5595;-1.7743;-0.7903;0.1457;188.0;-7.98;0.92;-45.62;274.83;-12.22;-83.38;2.0;54.863;19.300156;72.86194;-132.26;0.0;0.0;14.680644;;18 / 24;25923;2018-06-13 18:54:44:381
9.0866;3.8199;3.9035;9.5212;2.0806;1.0896;0.0489;0.6906;1.4694;-1.4755;-0.3912;-0.1553;195.0;-10.01;6.77;-45.35;282.97;-12.25;-83.47;2.0;54.442;19.300156;72.86194;-132.26;0.0;0.0;14.680644;;18 / 24;26022;2018-06-13 18:54:44:480
9.6732;3.9265;4.1795;9.5363;1.8377;1.361;0.2515;2.1165;2.7522;-0.6603;0.1579;0.2816;195.0;-9.88;11.45;-46.56;287.13;-10.8;-81.88;2.0;54.442;19.300156;72.86194;-132.26;0.0;0.0;14.680644;;18 / 24;26122;2018-06-13 18:54:44:580
8.7367;3.1759;2.2342;9.5425;1.7261;1.4603;0.6123;2.1291;2.6616;1.1323;0.1179;0.2498;211.0;-10.11;8.56;-50.27;287.13;-10.8;-81.88;2.0;54.442;19.300156;72.86194;-132.26;0.0;0.0;14.680644;;18 / 24;26223;2018-06-13 18:54:44:681
9.2088;2.8206;2.4695;9.5753;1.8396;1.0485;-0.2289;1.2846;1.3298;1.9483;-0.1907;0.1949;211.0;-8.98;0.52;-46.26;274.89;-10.14;-81.3;2.0;54.442;19.300156;72.86194;-132.26;0.0;0.0;14.680644;;18 / 24;26322;2018-06-13 18:54:44:780
9.3207;2.5489;1.2404;9.5728;2.0971;0.3671;-0.5385;0.2297;0.2328;1.8926;-0.2549;-0.1637;169.0;-10.08;-6.96;-45.95;264.79;-10.81;-83.75;2.0;53.43;19.300156;72.86194;-132.26;0.0;0.0;14.680644;;18 / 24;26422;2018-06-13 18:54:44:880
8.684;1.3064;1.0683;9.5437;2.2531;0.1134;-0.5029;0.082;0.4761;1.4352;-0.1326;-0.2317;169.0;-10.02;-16.2;-43.81;253.31;-13.28;-89.32;2.0;53.43;19.300156;72.86194;-132.26;0.0;0.0;14.680644;;18 / 24;26522;2018-06-13 18:54:44:980
8.7629;0.1871;-1.2659;9.5142;2.3227;-0.5064;-0.0253;-1.6048;-0.9617;0.8534;-0.2381;-0.1289;132.0;-10.2;-21.42;-41.74;246.39;-13.7;-93.05;2.0;53.43;19.300156;72.86194;-132.26;0.0;0.0;14.680644;;18 / 24;26622;2018-06-13 18:54:45:080
10.5498;0.0097;-0.1899;9.5524;2.2152;-0.1261;1.3964;-2.1428;0.404;-0.743;0.3915;0.1979;132.0;-10.2;-21.42;-41.74;246.39;-13.7;-93.05;2.0;44.336;19.300156;72.86194;-132.26;0.0;0.0;14.680644;;18 / 24;26723;2018-06-13 18:54:45:181
9.7458;-0.2767;1.2704;9.5662;1.932;0.9618;0.6497;-2.0486;0.2077;-0.9518;0.7042;0.128;150.0;-8.37;-17.94;-44.44;250.22;-13.05;-90.76;2.0;44.336;19.300156;72.86194;-132.26;0.0;0.0;14.680644;;18 / 24;26823;2018-06-13 18:54:45:281
9.0038;0.3324;0.7159;9.5713;1.8162;1.1234;0.6404;-1.9384;0.0523;-0.8767;0.1085;0.0428;150.0;-5.58;-11.91;-46.57;258.18;-11.36;-84.26;2.0;44.336;19.300156;72.86194;-132.26;0.0;0.0;14.680644;;18 / 24;26922;2018-06-13 18:54:45:380
9.9136;1.0148;3.3671;9.6116;1.4645;1.282;-0.0801;-1.0973;0.0078;-1.464;-0.0869;0.1531;163.0;-5.25;-8.34;-47.47;258.18;-11.36;-84.26;2.0;59.881;19.300156;72.86194;-132.26;0.0;0.0;14.680644;;18 / 24;27023;2018-06-13 18:54:45:481
10.1629;1.0176;1.6915;9.7003;0.576;1.3201;1.0971;0.5085;1.6998;-0.7871;-0.2966;0.6155;163.0;-7.84;1.92;-49.32;274.25;-5.8;-81.59;2.0;59.881;19.300156;72.86194;-132.26;0.0;0.0;14.680644;;18 / 24;27122;2018-06-13 18:54:45:580
8.3562;0.2848;1.6961;9.7212;0.3233;1.251;0.481;0.3195;0.6651;-0.4849;-0.0188;0.3341;178.0;-8.28;6.58;-48.15;279.1;-1.89;-82.67;2.0;59.881;19.300156;72.86194;-132.26;0.0;0.0;14.680644;;18 / 24;27223;2018-06-13 18:54:45:681
9.2023;-0.1705;1.079;9.7387;-0.1844;1.1376;-0.5523;0.222;0.4479;-0.4849;-0.0188;0.3341;178.0;-9.02;9.62;-47.56;281.78;1.08;-83.34;2.0;58.906;19.300156;72.86194;-132.26;0.0;0.0;14.680644;;18 / 24;27323;2018-06-13 18:54:45:781
9.3177;-0.1084;1.8937;9.7365;-0.4608;1.0768;-0.093;0.3295;0.034;-0.4252;-0.0914;0.4356;125.0;-9.39;12.39;-46.25;281.78;1.08;-83.34;2.0;58.906;19.300163;72.86194;-132.26;0.0;2.7;14.680644;272.2;18 / 24;27423;2018-06-13 18:54:45:881
9.5975;-0.0766;0.8318;9.7237;-0.6903;1.0696;-0.0789;0.5491;0.041;-0.7303;0.0306;0.3301;125.0;-8.97;14.41;-46.57;285.84;4.04;-83.72;2.0;58.906;19.300163;72.86194;-132.26;0.0;2.7;14.680644;272.2;18 / 24;27523;2018-06-13 18:54:45:981
9.8818;0.6905;2.4476;9.6914;-1.0098;1.1081;0.2697;0.9105;0.0374;-1.179;0.2035;0.108;85.0;-7.5;18.84;-45.75;285.84;4.04;-83.72;2.0;58.906;19.300163;72.86194;-132.26;0.0;2.7;14.680644;272.2;18 / 24;27623;2018-06-13 18:54:46:081
7.8583;1.2644;-0.7863;9.614;-0.3677;1.8992;0.7016;1.7112;0.852;-1.8293;0.697;-0.6327;83.0;-5.35;27.96;-42.15;303.47;4.93;-81.03;2.0;57.443;19.300163;72.86194;-132.26;0.0;2.7;14.680644;272.2;18 / 24;27724;2018-06-13 18:54:46:182
8.3477;2.018;0.6181;9.6071;0.1061;1.9652;-1.0899;1.2295;-2.3245;-0.9822;0.1918;-0.9868;83.0;-6.65;32.13;-39.55;303.47;4.93;-81.03;2.0;57.443;19.300163;72.86194;-132.26;0.0;2.7;14.680644;272.2;18 / 24;27823;2018-06-13 18:54:46:281
12.378;1.1037;1.2798;9.5853;0.6257;1.975;-0.353;1.0385;-1.5068;-0.3704;0.0488;-0.9475;131.0;-10.73;33.77;-38.57;314.31;-3.66;-78.36;2.0;57.443;19.300163;72.86194;-132.26;0.0;2.7;14.680644;272.2;18 / 24;27923;2018-06-13 18:54:46:381
9.8478;1.4843;0.6684;9.6022;1.5571;1.2422;3.4505;-0.7439;1.0806;0.5521;-0.6275;-0.9496;131.0;-13.52;34.7;-36.81;317.07;-9.14;-82.63;2.0;56.049;19.300163;72.86194;-132.26;0.0;2.7;14.680644;272.2;18 / 24;28023;2018-06-13 18:54:46:481
7.4259;3.8056;2.5587;9.3786;2.7502;0.8053;-0.9838;-0.22;0.6374;1.081;-0.1775;-0.6826;241.0;-18.36;26.19;-40.62;308.23;-16.29;-85.09;2.0;56.049;19.300163;72.86194;-132.26;0.0;2.7;14.680644;272.2;18 / 24;28123;2018-06-13 18:54:46:581
8.7894;3.4577;1.0999;9.2338;3.2999;-0.1333;-0.185;0.4115;-0.1368;1.8237;-0.3397;-0.3807;241.0;-21.21;16.09;-44.48;297.92;-16.29;-85.09;2.0;56.049;19.300163;72.86194;-132.26;0.0;2.7;14.680644;272.2;18 / 24;28222;2018-06-13 18:54:46:680
9.2232;3.1087;-1.6497;8.9206;3.9976;-0.7829;0.606;-0.5357;-1.0264;0.1439;-0.2822;-0.7562;178.0;-21.21;16.09;-44.48;297.92;-16.29;-85.09;2.0;57.453;19.300163;72.86194;-132.26;0.0;2.7;14.680644;272.2;18 / 24;28323;2018-06-13 18:54:46:781
6.9914;1.7162;-0.3637;8.7472;4.3916;-0.6087;-0.7289;-2.1578;0.8468;-0.6565;-0.0108;-0.7386;178.0;-22.64;9.85;-44.48;290.24;-24.06;-95.02;2.0;57.453;19.300167;72.86193;-129.03;0.0;4.39;14.680644;274.8;18 / 24;28423;2018-06-13 18:54:46:881
7.4002;1.8203;0.589;8.7368;4.4191;-0.5567;-1.1983;-2.4743;0.6408;-0.4283;-0.1027;0.2029;228.0;-23.81;11.39;-43.54;292.84;-26.6;-93.98;2.0;57.453;19.300167;72.86193;-129.03;0.0;4.39;14.680644;274.8;18 / 24;28523;2018-06-13 18:54:46:981
11.0437;1.8674;0.0397;8.8965;4.1;-0.4606;-0.9752;-1.7337;0.1686;-1.2133;-0.0338;1.0469;228.0;-23.34;14.36;-42.58;292.84;-26.6;-93.98;2.0;57.453;19.300167;72.86193;-129.03;0.0;4.39;14.680644;274.8;18 / 24;28623;2018-06-13 18:54:47:081
10.6051;3.114;0.0482;9.3037;3.086;0.2978;1.3867;-0.8633;-0.0022;-1.4338;0.8525;0.1902;237.0;-20.44;24.26;-40.28;305.55;-24.71;-92.96;2.0;59.562;19.300167;72.86193;-129.03;0.0;4.39;14.680644;274.8;18 / 24;28723;2018-06-13 18:54:47:181
9.7662;4.7537;0.426;9.2412;2.8369;1.6501;1.2073;1.5548;-1.8782;-1.4111;0.7877;-0.0247;237.0;-15.57;32.95;-37.13;318.53;-16.82;-79.88;2.0;59.562;19.300167;72.86193;-129.03;0.0;4.39;14.680644;274.8;18 / 24;28823;2018-06-13 18:54:47:281
9.7958;3.3308;1.9688;9.2372;2.5125;2.1289;1.3308;1.6217;-0.3563;-1.2092;-0.2445;0.0624;252.0;-15.0;39.04;-30.81;328.16;-14.84;-77.02;2.0;59.562;19.300167;72.86193;-129.03;0.0;4.39;14.680644;274.8;18 / 24;28923;2018-06-13 18:54:47:381
8.4273;1.3529;1.9266;9.2788;2.5879;1.8379;0.6454;0.4854;0.354;-0.36;-0.2769;-0.2952;252.0;-16.33;39.95;-29.41;328.16;-14.84;-77.02;2.0;64.127;19.300167;72.86193;-129.03;0.0;4.39;14.680644;274.8;18 / 24;29023;2018-06-13 18:54:47:481
6.6561;2.6771;1.9287;9.2788;2.5879;1.8379;0.6454;0.4854;0.354;-0.36;-0.2769;-0.2952;200.0;-18.42;40.43;-28.38;331.79;-15.3;-78.8;2.0;64.127;19.300167;72.86193;-129.03;0.0;4.39;14.680644;274.8;18 / 24;29123;2018-06-13 18:54:47:581
10.0726;4.9413;5.2236;9.2829;2.8889;1.2853;-1.0882;0.9667;1.324;0.5331;-0.496;-0.0461;200.0;-21.07;38.74;-33.45;331.79;-15.3;-78.8;2.0;64.127;19.300167;72.86193;-129.03;0.0;4.39;14.680644;274.8;18 / 24;29222;2018-06-13 18:54:47:680
11.4626;5.3288;2.2964;9.3041;2.9107;1.0643;0.1713;2.0005;3.299;1.8794;0.0859;0.2442;122.0;-18.66;34.86;-33.55;322.41;-17.13;-82.12;2.0;63.458;19.300167;72.86193;-129.03;0.0;4.39;14.680644;274.8;18 / 24;29323;2018-06-13 18:54:47:781
4.8331;2.5319;3.8045;9.1478;3.2585;1.3674;2.3778;2.0503;1.9087;1.7519;1.0784;-0.3777;122.0;-16.72;29.16;-39.01;314.03;-19.41;-81.5;2.0;63.458;19.300167;72.861916;-129.03;0.0;4.28;14.680644;258.4;18 / 24;29423;2018-06-13 18:54:47:881
4.5852;2.4292;2.7877;8.5836;4.3556;1.8764;-2.7678;-0.9762;0.7177;2.225;1.1571;-0.4067;111.0;-11.98;16.76;-43.82;301.34;-26.37;-77.67;2.0;63.458;19.300167;72.861916;-129.03;0.0;4.28;14.680644;258.4;18 / 24;29522;2018-06-13 18:54:47:980
7.6696;3.3986;1.5861;8.7059;4.4556;0.7248;-3.7202;-1.8352;2.36;2.3662;-1.0E-4;0.4575;111.0;-10.29;8.63;-46.71;287.94;-26.69;-83.82;2.0;61.081;19.300167;72.861916;-129.03;NaN;4.28;14.680644;258.4;18 / 24;29623;2018-06-13 18:54:48:081
10.3493;3.0518;0.6525;8.5682;4.7522;0.4165;2.5984;-1.3511;1.8419;2.2715;0.5555;-0.5019;159.0;-7.56;-1.88;-46.47;274.52;-27.02;-85.24;2.0;61.081;19.300167;72.861916;-129.03;NaN;4.28;14.680644;258.4;18 / 24;29723;2018-06-13 18:54:48:181
11.4244;2.9808;-0.7801;8.3854;5.0733;0.3418;2.8451;-1.8303;0.2662;1.9055;0.9546;-0.6434;159.0;-2.95;-13.51;-45.31;258.06;-31.15;-87.67;2.0;61.081;19.300167;72.861916;-129.03;NaN;4.28;14.680644;258.4;18 / 24;29823;2018-06-13 18:54:48:281
7.225;1.4242;-1.3631;8.6236;4.6664;-0.1703;2.344;-1.9297;-0.9276;2.021;0.4056;0.7181;137.0;-1.36;-19.35;-42.28;248.4;-28.41;-91.13;2.0;61.081;19.300167;72.861916;-129.03;NaN;4.28;14.680644;258.4;18 / 24;29922;2018-06-13 18:54:48:380
6.6599;2.0278;0.1165;9.2574;3.2259;0.2532;-2.1059;-1.4972;-1.0311;1.1231;1.2092;1.4267;137.0;0.0;-25.99;-37.35;236.78;-19.21;-88.43;2.0;69.639;19.300167;72.861916;-129.03;NaN;4.28;14.680644;258.4;18 / 24;30023;2018-06-13 18:54:48:481
10.4814;1.9601;-0.6681;9.6399;1.7844;0.241;0.2757;0.2953;-0.2614;1.1988;0.1693;1.0615;82.0;-2.07;-29.92;-35.83;236.78;-19.21;-88.43;2.0;69.639;19.300167;72.861916;-129.03;NaN;4.28;14.680644;258.4;18 / 24;30124;2018-06-13 18:54:48:582
9.7369;1.7813;-0.4406;9.6975;1.4536;0.1286;0.7209;0.5327;-1.2912;0.6772;-0.0413;0.5985;82.0;-5.26;-30.94;-37.9;232.17;-10.48;-88.57;2.0;69.639;19.300167;72.861916;-129.03;NaN;4.28;14.680644;258.4;18 / 24;30223;2018-06-13 18:54:48:681
8.6932;2.8039;0.6019;9.7133;1.3037;0.3498;0.2029;0.5632;0.0526;-0.158;0.151;0.0215;72.0;-3.7;-30.53;-33.64;228.53;-8.52;-89.24;2.0;61.491;19.300167;72.861916;-129.03;NaN;4.28;14.680644;258.4;18 / 24;30323;2018-06-13 18:54:48:781
9.0035;2.4322;0.3117;9.6355;1.7577;0.4879;-0.3259;1.1388;-0.445;-0.0908;0.196;-0.4743;72.0;-3.97;-30.15;-34.7;228.53;-8.52;-89.24;2.0;61.491;19.300163;72.8619;-129.03;NaN;4.14;14.680644;269.8;18 / 24;30422;2018-06-13 18:54:48:880
8.5596;3.3226;3.0696;9.5178;2.2292;0.7824;-0.5662;0.2758;0.8162;0.8273;0.3727;-0.2582;81.0;-1.17;-30.28;-33.96;229.75;-11.98;-86.05;2.0;61.491;19.300163;72.8619;-129.03;NaN;4.14;14.680644;269.8;18 / 24;30523;2018-06-13 18:54:48:981
10.4353;5.4283;2.4157;9.4991;2.3811;0.5171;0.0897;1.5308;3.1607;0.8273;0.3727;-0.2582;81.0;-0.33;-34.82;-28.49;219.78;-14.05;-86.88;2.0;69.417;19.300163;72.8619;-129.03;NaN;4.14;14.680644;269.8;18 / 24;30623;2018-06-13 18:54:49:081
10.7328;4.8055;1.5453;9.4578;2.5922;-0.04;0.0897;1.5308;3.1607;2.2747;-0.4604;-0.2436;93.0;-0.33;-34.82;-28.49;219.78;-14.05;-86.88;2.0;69.417;19.300163;72.8619;-129.03;NaN;4.14;14.680644;269.8;18 / 24;30723;2018-06-13 18:54:49:181
8.7033;1.6268;1.8823;9.39;2.8269;-0.0814;1.4951;2.1898;1.5436;1.4024;0.2769;-0.3831;93.0;1.6;-38.22;-20.75;209.55;-16.75;-90.5;2.0;69.417;19.300163;72.8619;-129.03;NaN;4.14;14.680644;269.8;18 / 24;30823;2018-06-13 18:54:49:281
8.4932;1.1957;-0.1142;9.1253;3.5915;0.0271;-0.3477;-1.5731;2.0368;1.6361;0.499;-0.5909;147.0;5.17;-40.68;-13.65;199.32;-21.48;-89.83;2.0;69.996;19.300163;72.8619;-129.03;NaN;4.14;14.680644;269.8;18 / 24;30923;2018-06-13 18:54:49:381
10.7193;-0.0176;1.0278;8.9416;3.9982;0.4816;-0.1006;-2.5086;-0.3369;0.9819;1.1234;-0.2831;147.0;6.7;-41.18;-9.81;199.32;-21.48;-89.83;2.0;69.996;19.300163;72.8619;-129.03;NaN;4.14;14.680644;269.8;18 / 24;31023;2018-06-13 18:54:49:481
10.5162;0.5937;-0.4971;8.9316;3.9856;0.7151;2.2376;-3.5137;-0.6213;-0.1327;-0.4631;-0.0165;260.0;7.87;-41.12;-9.81;194.72;-23.98;-85.42;2.0;69.996;19.300163;72.8619;-129.03;NaN;4.14;14.680644;269.8;18 / 24;31123;2018-06-13 18:54:49:581
7.9523;0.9726;0.8671;9.0102;3.7155;1.0873;0.0503;-2.8048;-0.6912;-1.0159;0.3616;0.0652;260.0;5.49;-40.84;-15.32;201.49;-23.98;-85.42;2.0;55.997;19.300163;72.8619;-129.03;NaN;4.14;14.680644;269.8;18 / 24;31223;2018-06-13 18:54:49:681
9.7234;3.1821;1.3715;9.05;3.5344;1.3323;-0.924;-1.7178;-0.6356;-1.0676;0.0366;0.1518;285.0;6.38;-38.02;-17.4;205.74;-21.13;-81.63;2.0;55.997;19.300163;72.8619;-129.03;NaN;4.14;14.680644;269.8;18 / 24;31323;2018-06-13 18:54:49:781
9.8151;3.2206;1.622;9.1871;3.0054;1.654;0.6024;0.2365;-0.5814;-1.5489;-0.2752;0.2164;251.0;5.16;-37.3;-22.37;205.74;-21.13;-81.63;2.0;55.997;19.300152;72.8619;-129.03;NaN;3.96;19.574192;194.2;18 / 24;31423;2018-06-13 18:54:49:881
8.4434;3.5567;2.4253;9.174;2.805;2.0349;0.7352;0.6833;-0.5585;-1.6802;-0.0915;-0.2959;251.0;4.25;-31.96;-29.26;224.22;-16.62;-77.49;2.0;55.997;19.300152;72.8619;-129.03;NaN;3.96;19.574192;194.2;18 / 24;31524;2018-06-13 18:54:49:982
9.4277;3.893;3.1722;9.1095;3.1507;1.8056;-0.1249;0.8606;1.7829;-0.4821;-0.6785;-0.4624;205.0;2.4;-26.35;-36.44;237.09;-17.46;-77.28;2.0;58.573;19.300152;72.8619;-129.03;NaN;3.96;19.574192;194.2;18 / 24;31623;2018-06-13 18:54:50:081
7.6522;5.0292;5.0872;9.0301;3.4205;1.7111;0.2247;0.6587;2.1248;0.3723;-0.0088;-0.2613;205.0;2.53;-25.93;-37.25;237.09;-17.46;-77.28;2.0;58.573;19.300152;72.8619;-129.03;NaN;3.96;19.574192;194.2;18 / 24;31723;2018-06-13 18:54:50:181
7.7419;4.5947;4.8776;8.8931;3.7825;1.6662;-0.9513;1.2381;3.7406;0.3723;-0.0088;-0.2613;213.0;2.85;-27.31;-36.05;236.26;-20.41;-79.27;2.0;58.573;19.300152;72.8619;-129.03;NaN;3.96;19.574192;194.2;18 / 24;31822;2018-06-13 18:54:50:280
8.838;4.1128;4.7814;8.8101;4.0257;1.5317;-1.3096;0.9513;2.0949;1.8113;0.4547;-0.1231;213.0;5.04;-34.48;-30.37;224.32;-22.69;-79.39;2.0;58.624;19.300152;72.8619;-129.03;NaN;3.96;19.574192;194.2;18 / 24;31923;2018-06-13 18:54:50:381
7.8689;3.339;2.0706;8.7772;4.2073;1.1957;0.5453;-0.0635;1.7582;2.5816;0.5119;0.0454;222.0;4.86;-38.85;-24.98;224.32;-22.69;-79.39;2.0;58.624;19.300152;72.8619;-129.03;NaN;3.96;19.574192;194.2;18 / 24;32023;2018-06-13 18:54:50:481
7.4745;3.5442;0.5925;8.5501;4.7236;0.8679;-0.4857;-1.1285;0.6615;2.5243;0.7852;-0.1852;222.0;9.29;-44.97;-5.88;191.68;-25.41;-82.24;2.0;58.624;19.300152;72.8619;-129.03;NaN;3.96;19.574192;194.2;18 / 24;32123;2018-06-13 18:54:50:581
8.5464;3.2592;0.9202;8.4198;4.946;0.9021;-0.5396;-1.1342;-0.5696;1.0867;1.0376;-0.0083;242.0;8.75;-44.27;4.39;175.96;-30.29;-83.88;2.0;57.769;19.300152;72.8619;-129.03;NaN;3.96;19.574192;194.2;18 / 24;32222;2018-06-13 18:54:50:680
9.8463;2.573;1.6165;8.4198;4.946;0.9021;-0.5396;-1.1342;-0.5696;1.0867;1.0376;-0.0083;242.0;8.75;-44.27;4.39;175.96;-30.29;-83.88;2.0;57.769;19.300137;72.8619;-132.26;NaN;3.13;19.574192;197.0;18 / 24;32322;2018-06-13 18:54:50:780
11.2275;2.7188;1.0043;8.4714;4.7353;1.408;1.6371;-1.8622;0.2264;0.4747;0.6503;0.3;251.0;7.76;-43.63;8.51;170.03;-28.87;-80.56;2.0;57.769;19.300137;72.8619;-132.26;NaN;3.13;19.574192;197.0;18 / 24;32423;2018-06-13 18:54:50:881
9.8749;1.9729;0.0804;8.5833;4.4926;1.5213;2.933;-2.0115;-1.0067;-0.4478;0.0105;-0.1097;251.0;6.92;-42.67;6.85;172.32;-27.34;-79.83;2.0;57.769;19.300137;72.8619;-132.26;NaN;3.13;19.574192;197.0;18 / 24;32523;2018-06-13 18:54:50:981
9.3329;1.8811;1.6109;8.616;4.4633;1.4195;1.5098;-2.3468;-1.0956;-1.5646;-0.9804;-0.295;238.0;7.19;-44.19;4.19;172.32;-27.34;-79.83;2.0;62.331;19.300137;72.8619;-132.26;NaN;3.13;19.574192;197.0;18 / 24;32623;2018-06-13 18:54:51:081
7.7657;2.2894;1.76;8.5959;4.4834;1.4762;0.7664;-2.3951;0.1803;-2.0183;-0.9521;-0.4512;238.0;9.39;-43.91;-8.54;193.74;-27.21;-80.26;2.0;62.331;19.300137;72.8619;-132.26;NaN;3.13;19.574192;197.0;18 / 24;32723;2018-06-13 18:54:51:181
8.3992;4.4074;2.7789;8.5957;4.5396;1.2947;-0.7834;-1.8473;0.6;-1.765;-1.3436;-0.3176;229.0;9.73;-42.58;-16.02;202.6;-27.57;-81.43;2.0;62.331;19.300137;72.8619;-132.26;NaN;3.13;19.574192;197.0;18 / 24;32823;2018-06-13 18:54:51:281
8.4073;5.4943;2.1187;8.7321;4.3235;1.1085;-1.4064;0.0362;0.7358;-1.7883;-0.8847;0.0432;229.0;6.19;-36.49;-31.48;216.07;-26.16;-82.77;2.0;60.378;19.300137;72.8619;-132.26;NaN;3.13;19.574192;197.0;18 / 24;32923;2018-06-13 18:54:51:381
9.5667;4.848;3.6277;8.6086;4.5039;1.3335;0.2125;1.3789;2.1382;-1.0868;-0.1648;-0.3319;168.0;6.51;-34.16;-33.2;226.64;-26.16;-82.77;2.0;60.378;19.300137;72.8619;-132.26;NaN;3.13;19.574192;197.0;18 / 24;33023;2018-06-13 18:54:51:481
7.6479;4.8706;4.3477;8.6328;4.4388;1.3937;0.6339;0.6004;2.4485;-0.283;-0.1389;0.0567;168.0;5.62;-33.46;-36.14;226.64;-26.16;-82.77;2.0;60.378;19.300137;72.8619;-132.26;NaN;3.13;19.574192;197.0;18 / 24;33123;2018-06-13 18:54:51:581
7.8638;4.5371;3.5592;8.7586;4.1908;1.3765;-0.5925;0.5121;3.1111;0.1748;-0.052;0.5184;121.0;2.66;-34.18;-40.44;233.72;-25.3;-81.07;2.0;59.812;19.300137;72.8619;-132.26;NaN;3.13;19.574192;197.0;18 / 24;33223;2018-06-13 18:54:51:681
6.6314;4.2742;1.9267;8.9933;3.7518;1.1023;-1.8042;0.9689;1.0923;0.847;0.0893;0.5112;121.0;2.66;-34.18;-40.44;233.72;-25.3;-81.07;2.0;59.812;19.300121;72.86189;-135.48;NaN;3.82;19.574192;243.9;17 / 24;33322;2018-06-13 18:54:51:780
9.0347;2.5297;1.3388;9.1832;3.2976;0.9824;-1.9665;1.4116;1.2094;0.608;-0.4287;0.8615;256.0;0.48;-38.77;-29.24;219.69;-22.49;-83.01;2.0;59.812;19.300121;72.86189;-135.48;NaN;3.82;19.574192;243.9;17 / 24;33422;2018-06-13 18:54:51:880
9.3362;2.2274;-0.5935;9.431;2.6547;0.4224;-0.4338;-0.06;2.2808;1.8015;-1.0866;-0.0214;256.0;-5.1;-43.61;-17.74;210.87;-19.65;-83.89;2.0;55.131;19.300121;72.86189;-135.48;NaN;3.82;19.574192;243.9;17 / 24;33524;2018-06-13 18:54:51:982
8.8971;-0.3525;-3.7155;9.4894;2.4496;-0.347;-0.3497;-0.2729;-0.1938;1.8015;-1.0866;-0.0214;282.0;-5.1;-43.61;-17.74;210.87;-19.65;-83.89;2.0;55.131;19.300121;72.86189;-135.48;NaN;3.82;19.574192;243.9;17 / 24;33623;2018-06-13 18:54:52:081
9.3686;0.7445;-4.9443;9.3443;1.9047;-2.2861;0.2219;-1.6882;-2.8928;3.2639;-2.183;-0.3192;282.0;-5.82;-44.04;2.76;185.85;-14.47;-92.09;2.0;55.131;19.300121;72.86189;-135.48;NaN;3.82;19.574192;243.9;17 / 24;33723;2018-06-13 18:54:52:181
10.0098;-1.202;-6.2985;9.2689;1.8101;-2.6424;0.6139;-1.2632;0.4422;0.5818;-1.2659;0.5259;254.0;-5.94;-43.6;5.17;175.69;-10.64;-105.91;2.0;55.131;19.300121;72.86189;-135.48;NaN;3.82;19.574192;243.9;17 / 24;33823;2018-06-13 18:54:52:281
7.1276;-0.218;-3.6903;9.0642;1.3165;-3.504;-0.0613;-1.6101;-0.6237;0.5818;-1.2659;0.5259;254.0;-4.8;-42.77;7.45;173.53;-7.71;-111.14;2.0;63.946;19.300121;72.86189;-135.48;NaN;3.82;19.574192;243.9;17 / 24;33925;2018-06-13 18:54:52:383
7.1918;2.2287;-3.8138;9.0165;0.9777;-3.7305;0.1575;-1.6707;-0.127;0.3463;-0.9128;-0.3162;231.0;-4.8;-42.77;7.45;173.53;-7.71;-111.14;2.0;63.946;19.300121;72.86189;-135.48;NaN;3.82;19.574192;243.9;17 / 24;34023;2018-06-13 18:54:52:481
7.4604;-0.3545;-8.1348;8.8776;0.5532;-4.1294;-0.5994;0.3938;-0.3152;-0.0071;-0.7235;0.8109;231.0;-6.65;-41.79;10.18;170.85;-5.72;-112.48;2.0;63.946;19.300121;72.86189;-135.48;NaN;3.82;19.574192;243.9;17 / 24;34123;2018-06-13 18:54:52:581
7.4904;1.9948;-3.5267;8.6256;-0.338;-4.6534;-0.4682;0.9802;-1.5971;0.7574;-0.9433;1.3495;221.0;-12.07;-38.9;8.55;176.78;1.97;-118.35;2.0;75.672;19.300121;72.86189;-135.48;NaN;3.82;19.574192;243.9;17 / 24;34223;2018-06-13 18:54:52:681
7.0623;0.6205;-6.1137;8.6325;0.3554;-4.6394;-0.3013;1.0524;1.3235;-1.0372;-0.2256;0.1591;221.0;-10.9;-41.58;7.36;178.68;-2.08;-118.26;2.0;75.672;19.300121;72.86189;-135.48;NaN;3.82;19.574192;243.9;17 / 24;34323;2018-06-13 18:54:52:781
7.881;1.3065;-3.8753;8.5218;1.2137;-4.6986;-0.3075;0.5265;0.2381;-2.4582;-0.5058;0.3315;254.0;-10.67;-41.63;2.07;184.74;-2.08;-118.26;2.0;75.672;19.300108;72.8619;-132.26;NaN;3.78;19.574192;150.2;18 / 24;34423;2018-06-13 18:54:52:881
11.646;-0.6067;-1.2318;8.756;1.0655;-4.2857;2.8551;-1.2888;1.064;1.4845;0.6208;-0.0677;254.0;-13.7;-40.7;-1.58;192.22;-7.11;-118.87;2.0;75.025;19.300108;72.8619;-132.26;NaN;3.78;19.574192;150.2;18 / 24;34523;2018-06-13 18:54:52:981
8.9403;-0.0075;-0.9576;8.9446;1.0128;-3.8908;2.6436;-1.2418;0.6992;1.0732;0.8198;-0.449;256.0;-12.2;-40.5;1.89;184.27;-5.93;-113.51;2.0;75.025;19.300108;72.8619;-132.26;NaN;3.78;19.574192;150.2;18 / 24;34623;2018-06-13 18:54:53:081
7.3166;0.0956;-0.5015;9.1456;2.4789;-2.5266;0.4689;-2.4994;1.3805;-0.7157;1.8245;-1.1963;256.0;-5.7;-41.86;-2.95;186.5;-14.64;-105.44;2.0;75.025;19.300108;72.8619;-132.26;NaN;3.78;19.574192;150.2;18 / 24;34723;2018-06-13 18:54:53:181
9.3993;0.8762;1.5361;9.648;1.7386;-0.2538;-0.2628;0.2394;1.0611;-0.7428;0.67;1.1861;316.0;-8.5;-40.48;-5.54;189.28;-10.21;-91.51;2.0;70.95;19.300108;72.8619;-132.26;NaN;3.78;19.574192;150.2;18 / 24;34823;2018-06-13 18:54:53:281
8.4624;0.362;-1.2148;9.7527;1.0131;-0.1679;-0.5538;-0.6654;-0.7411;2.5988;0.1755;0.2679;316.0;-11.55;-38.89;5.87;171.23;-5.93;-90.99;2.0;70.95;19.300108;72.8619;-132.26;NaN;3.78;19.574192;150.2;18 / 24;34922;2018-06-13 18:54:53:380
9.0835;1.6609;-0.2843;9.7555;0.9681;-0.252;-1.1041;-0.4399;-0.7931;2.1503;0.0975;0.0229;335.0;-11.37;-38.85;10.84;171.23;-5.93;-90.99;2.0;70.95;19.300108;72.8619;-132.26;NaN;3.78;19.574192;150.2;18 / 24;35023;2018-06-13 18:54:53:481
9.4226;1.0171;-1.1861;9.7808;0.6531;-0.2838;0.1113;0.661;-0.5998;2.5143;-0.0661;0.6126;335.0;-14.42;-29.87;17.94;148.74;-3.82;-91.66;2.0;64.859;19.300108;72.8619;-132.26;NaN;3.78;19.574192;150.2;18 / 24;35123;2018-06-13 18:54:53:581
11.3283;-2.989;-3.1362;9.6706;-0.5819;-1.5201;0.2973;1.4283;-0.0988;1.8566;-1.2485;0.8797;335.0;-12.5;-26.18;25.58;138.72;3.4;-98.93;2.0;64.859;19.300108;72.8619;-132.26;NaN;3.78;19.574192;150.2;18 / 24;35223;2018-06-13 18:54:53:681
8.767;-1.6365;-4.9297;9.6116;-1.0662;-1.6284;1.2069;-0.4582;-1.0833;1.3446;-0.9122;-0.2383;300.0;-12.5;-26.18;25.58;138.72;3.4;-98.93;2.0;64.859;19.300108;72.8619;-132.26;NaN;3.78;19.574192;150.2;18 / 24;35323;2018-06-13 18:54:53:781
9.6796;-2.312;-3.9086;9.3809;-0.986;-2.6829;0.4231;-0.9881;-1.438;1.3446;-0.9122;-0.2383;300.0;-10.2;-17.9;32.85;124.33;5.77;-105.96;2.0;64.859;19.300097;72.861916;-132.26;NaN;3.74;19.574192;148.0;18 / 24;35423;2018-06-13 18:54:53:881
8.5629;-1.6845;-0.8479;9.6405;-0.9886;-1.5015;-0.2842;-0.9364;-0.349;-0.464;1.4486;0.1132;259.0;-13.23;-19.72;31.12;127.13;5.79;-98.85;2.0;69.034;19.300097;72.861916;-132.26;NaN;3.74;19.574192;148.0;18 / 24;35523;2018-06-13 18:54:53:981
6.8554;0.6352;-1.3737;9.7194;-0.5421;-1.1877;-0.8797;-1.0733;0.2583;-1.1999;0.5593;-0.3016;259.0;-13.23;-19.72;31.12;127.13;5.79;-98.85;2.0;69.034;19.300097;72.861916;-132.26;NaN;3.74;19.574192;148.0;18 / 24;35623;2018-06-13 18:54:54:081
7.9472;-0.126;-0.609;9.7194;-0.5421;-1.1877;-0.8797;-1.0733;0.2583;-1.1999;0.5593;-0.3016;305.0;-13.77;-23.71;29.49;132.62;3.17;-96.97;2.0;69.034;19.300097;72.861916;-132.26;NaN;3.74;19.574192;148.0;18 / 24;35723;2018-06-13 18:54:54:181
8.5535;-0.3649;0.4996;9.7585;-0.9165;-0.3186;-1.2515;0.7329;0.408;-1.3091;0.129;0.4777;305.0;-18.51;-27.62;24.2;143.07;5.95;-94.2;2.0;64.67;19.300097;72.861916;-132.26;NaN;3.74;19.574192;148.0;18 / 24;35822;2018-06-13 18:54:54:280
10.4013;1.0119;3.6705;9.7532;-0.4308;0.9278;-0.451;-0.6862;-1.1607;-0.089;2.1704;-0.8513;357.0;-19.2;-28.62;22.3;145.17;5.36;-91.87;2.0;64.67;19.300097;72.861916;-132.26;NaN;3.74;19.574192;148.0;18 / 24;35922;2018-06-13 18:54:54:380
10.0925;-0.182;4.4144;9.6588;-0.4685;1.6307;0.8318;0.7081;2.8035;0.785;-0.2021;0.5;357.0;-21.41;-29.37;19.39;144.96;2.52;-84.57;2.0;64.67;19.300097;72.861916;-132.26;NaN;3.74;19.574192;148.0;18 / 24;36023;2018-06-13 18:54:54:481
9.8595;-2.2934;1.913;9.6558;-0.4704;1.6477;0.7514;-1.9672;1.055;1.0682;-0.05;0.124;509.0;-21.82;-26.72;23.35;136.53;2.75;-80.32;2.0;58.397;19.300097;72.861916;-132.26;NaN;3.74;19.574192;148.0;18 / 24;36123;2018-06-13 18:54:54:581
8.4906;-1.2453;4.9382;9.6241;-0.62;1.7784;0.421;-2.1144;0.3834;-1.2388;0.1115;0.1188;525.0;-23.45;-25.49;18.16;140.17;2.75;-80.32;2.0;58.397;19.300097;72.861916;-132.26;NaN;3.74;19.574192;148.0;18 / 24;36225;2018-06-13 18:54:54:683
7.9577;-0.4109;3.4386;9.5559;-0.4011;2.1667;-1.0535;-0.0642;1.297;1.317;0.313;0.041;525.0;-21.8;-29.41;19.61;141.81;3.62;-79.53;2.0;58.397;19.300097;72.861916;-132.26;NaN;3.74;19.574192;148.0;18 / 24;36323;2018-06-13 18:54:54:781
8.1054;-0.1432;1.8904;9.6147;-0.6163;1.8295;-0.3316;-0.3176;-0.2481;0.2156;-0.4878;0.3329;548.0;-22.37;-25.21;23.78;132.21;2.34;-77.22;2.0;58.397;19.300083;72.86192;-135.48;NaN;3.67;19.574192;171.4;18 / 24;36423;2018-06-13 18:54:54:881
8.4882;0.1509;2.0779;9.6529;-0.7853;1.5409;-0.3624;-0.1562;0.029;-1.2466;-0.41;0.0729;548.0;-21.79;-26.93;22.65;137.29;4.59;-80.93;2.0;59.802;19.300083;72.86192;-135.48;NaN;3.67;19.574192;171.4;18 / 24;36523;2018-06-13 18:54:54:981
11.4968;-1.9341;1.3857;9.5898;-1.0753;1.7465;-0.5053;1.037;0.2756;1.3008;-0.0541;0.8085;528.0;-23.64;-22.42;25.02;129.67;6.29;-79.68;2.0;59.802;19.300083;72.86192;-135.48;NaN;3.67;19.574192;171.4;18 / 24;36623;2018-06-13 18:54:55:081
10.2407;-1.3905;4.473;9.5083;-1.6298;1.7622;1.4786;0.2389;-0.4926;0.6153;0.6765;0.4029;528.0;-25.97;-18.33;25.16;125.92;9.57;-79.5;2.0;59.802;19.300083;72.86192;-135.48;NaN;3.67;19.574192;171.4;18 / 24;36723;2018-06-13 18:54:55:181
9.1911;-1.3608;2.5871;9.3372;-1.9112;2.3095;0.9311;0.5608;1.9235;0.1212;0.1087;0.2837;528.0;-26.59;-16.98;26.21;122.96;11.24;-76.11;2.0;60.927;19.300083;72.86192;-135.48;NaN;3.67;19.574192;171.4;18 / 24;36823;2018-06-13 18:54:55:281
8.4447;0.111;1.1765;9.2081;-1.5919;2.9745;0.6963;-0.083;0.0448;0.2587;0.949;-0.5766;602.0;-26.59;-16.98;26.21;122.96;11.24;-76.11;2.0;60.927;19.300083;72.86192;-135.48;NaN;3.67;19.574192;171.4;18 / 24;36923;2018-06-13 18:54:55:381
10.346;-0.5758;0.9837;9.174;-1.4472;3.1485;-0.3903;0.61;-0.7114;-0.3162;0.383;-0.3543;602.0;-27.22;-17.36;24.88;120.88;8.49;-71.06;2.0;60.927;19.300083;72.86192;-135.48;NaN;3.67;19.574192;171.4;18 / 24;37022;2018-06-13 18:54:55:480
9.6519;-1.4382;2.0956;8.803;-0.7258;4.2605;1.6533;0.4013;-2.8583;0.3211;1.2069;-0.323;686.0;-28.97;-18.48;21.25;125.45;8.49;-71.06;2.0;62.255;19.300083;72.86192;-135.48;NaN;3.67;19.574192;171.4;18 / 24;37123;2018-06-13 18:54:55:581
8.9592;-1.0391;2.7846;8.8268;-0.5034;4.2432;1.1055;-0.9703;-1.765;-1.3992;0.1242;-1.1366;686.0;-25.42;-25.32;17.83;128.99;4.24;-64.17;2.0;62.255;19.300083;72.86192;-135.48;NaN;3.67;19.574192;171.4;18 / 24;37224;2018-06-13 18:54:55:682
9.0155;-1.6376;2.5164;9.1272;-0.318;3.5726;0.4331;-1.3596;-0.951;-1.5226;-0.6323;-0.7327;739.0;-25.42;-25.32;17.83;128.99;4.24;-64.17;2.0;62.255;19.300083;72.86192;-135.48;NaN;3.67;19.574192;171.4;18 / 24;37323;2018-06-13 18:54:55:781
8.8797;-0.7115;2.7474;9.1592;0.0;3.5041;0.7456;-1.8327;-0.0096;-1.4501;-0.0903;-1.1954;739.0;-22.22;-31.53;14.3;147.05;1.86;-68.62;2.0;60.712;19.30008;72.86192;-135.48;NaN;3.67;14.680644;120.6;18 / 24;37423;2018-06-13 18:54:55:881
9.993;0.2748;3.2488;9.2614;0.2193;3.2169;-0.261;-1.0615;0.0662;-1.4279;-0.3324;-0.8087;591.0;-18.21;-35.55;11.16;155.46;-1.28;-70.85;2.0;60.712;19.30008;72.86192;-135.48;NaN;3.67;14.680644;120.6;18 / 24;37522;2018-06-13 18:54:55:980
8.2206;1.0889;2.6499;9.2912;0.657;3.068;0.7141;-0.6171;0.0566;-1.1873;-0.0537;-0.9064;591.0;-13.68;-38.97;5.35;166.47;-1.28;-70.85;2.0;60.712;19.30008;72.86192;-135.48;NaN;3.67;14.680644;120.6;18 / 24;37623;2018-06-13 18:54:56:081
7.9262;0.59;3.1643;9.1873;1.7372;2.9572;-0.0618;-0.2285;0.0152;-0.8285;-0.1466;-0.9428;543.0;-9.63;-39.79;0.51;173.93;-8.62;-71.91;2.0;60.712;19.30008;72.86192;-135.48;NaN;3.67;14.680644;120.6;18 / 24;37723;2018-06-13 18:54:56:181
7.5325;0.9129;4.0117;9.0816;1.9656;3.1354;-1.1523;-1.426;0.1099;-0.407;0.2262;-0.5885;543.0;-6.63;-40.5;-0.39;176.79;-10.2;-72.16;2.0;73.114;19.30008;72.86192;-135.48;NaN;3.67;14.680644;120.6;18 / 24;37823;2018-06-13 18:54:56:281
7.6606;1.0012;4.1813;8.9775;2.0646;3.3633;-1.067;-0.9117;0.8594;-0.1038;-0.1609;-0.0557;542.0;-5.08;-41.08;-3.11;181.77;-11.56;-70.95;2.0;73.114;19.30008;72.86192;-135.48;NaN;3.67;14.680644;120.6;18 / 24;37923;2018-06-13 18:54:56:381
8.3777;0.9661;3.6859;9.0964;1.9155;3.1235;-0.7489;-0.5866;0.7585;0.0751;-0.4573;0.2864;542.0;-5.45;-40.43;-1.58;180.4;-11.26;-71.05;2.0;73.114;19.30008;72.86192;-135.48;NaN;3.67;14.680644;120.6;18 / 24;38023;2018-06-13 18:54:56:481
9.8706;0.1192;3.3367;9.3001;1.5177;2.7156;-0.3137;-0.61;1.0837;0.2515;-0.4465;0.5567;512.0;-7.21;-40.44;-1.19;178.51;-8.9;-73.72;2.0;75.297;19.30008;72.86192;-135.48;NaN;3.67;14.680644;120.6;18 / 24;38123;2018-06-13 18:54:56:581
8.8053;0.9437;2.3551;9.4262;1.1701;2.4389;0.2366;-0.742;1.3105;0.2386;-0.4223;0.4258;512.0;-8.32;-40.17;0.03;177.04;-6.85;-75.49;2.0;75.297;19.30008;72.86192;-135.48;NaN;3.67;14.680644;120.6;18 / 24;38223;2018-06-13 18:54:56:681
8.7462;1.2219;1.9977;9.5634;0.856;1.9945;-0.5089;0.3469;1.0672;0.4762;-0.765;0.6739;470.0;-11.03;-38.93;3.48;172.23;-5.01;-78.22;2.0;75.297;19.30008;72.86192;-135.48;NaN;3.67;14.680644;120.6;18 / 24;38322;2018-06-13 18:54:56:780
9.3376;0.8108;2.144;9.5777;0.7115;1.9827;-0.4732;0.5449;0.0157;0.1008;0.1898;0.0908;470.0;-11.09;-38.4;3.25;172.23;-5.01;-78.22;2.0;72.807;19.300076;72.86192;-135.48;NaN;3.78;14.680644;229.3;18 / 24;38423;2018-06-13 18:54:56:881
9.2546;0.4092;2.2387;9.5926;0.5055;1.9742;0.104;0.3829;0.176;0.1612;-0.0407;0.2094;470.0;-11.56;-38.49;4.28;170.38;-2.95;-78.37;2.0;72.807;19.300076;72.86192;-135.48;NaN;3.78;14.680644;229.3;18 / 24;38523;2018-06-13 18:54:56:981
8.5248;0.7948;1.7166;9.608;0.4146;1.9196;0.0405;0.054;0.2603;0.1999;-0.093;0.2002;471.0;-11.94;-38.36;4.18;170.38;-2.95;-78.37;2.0;72.807;19.300076;72.86192;-135.48;NaN;3.78;14.680644;229.3;18 / 24;38623;2018-06-13 18:54:57:081
9.9875;1.2691;2.3573;9.6281;0.3289;1.8337;-0.6805;0.5214;-0.0605;0.2129;0.041;0.1806;471.0;-12.4;-37.96;5.26;169.23;-1.92;-79.22;2.0;68.222;19.300076;72.86192;-135.48;NaN;3.78;14.680644;229.3;18 / 24;38723;2018-06-13 18:54:57:181
11.3352;0.4531;0.4345;9.6415;-0.0549;1.7916;0.7721;1.2026;0.6604;0.1139;-0.2265;0.4029;467.0;-14.14;-37.19;6.11;167.15;0.32;-79.47;2.0;68.222;19.300076;72.86192;-135.48;NaN;3.78;14.680644;229.3;18 / 24;38823;2018-06-13 18:54:57:281
10.0639;0.0304;2.0461;9.5991;0.1097;2.004;2.4299;-0.0026;-0.584;-0.0535;0.1441;0.2368;467.0;-12.85;-37.49;4.77;168.42;-0.64;-78.21;2.0;68.222;19.300076;72.86192;-135.48;NaN;3.78;14.680644;229.3;18 / 24;38923;2018-06-13 18:54:57:381
9.0307;-0.0647;2.5455;9.5991;0.1097;2.004;2.4299;-0.0026;-0.584;-0.4332;-0.1024;-0.7061;476.0;-12.85;-37.49;4.77;168.42;-0.64;-78.21;2.0;72.019;19.300076;72.86192;-135.48;NaN;3.78;14.680644;229.3;18 / 24;39023;2018-06-13 18:54:57:481
8.7641;0.292;0.7606;9.6068;0.7481;1.8223;-0.5772;-0.646;0.6761;-0.1438;-0.2029;-0.2849;476.0;-11.45;-38.36;3.23;172.33;-4.38;-79.26;2.0;72.019;19.300076;72.86192;-135.48;NaN;3.78;14.680644;229.3;18 / 24;39122;2018-06-13 18:54:57:580
9.1526;0.4978;1.2844;9.577;1.0348;1.8388;-0.4167;-0.5313;-0.7431;-0.6093;0.2033;-0.3012;447.0;-8.93;-38.82;-0.73;174.27;-4.38;-79.26;2.0;72.019;19.300076;72.86192;-135.48;NaN;3.78;14.680644;229.3;18 / 24;39223;2018-06-13 18:54:57:681
8.1838;1.3575;1.4076;9.553;1.1338;1.9039;-0.6447;0.1434;-0.1322;-0.6093;0.2033;-0.3012;447.0;-8.93;-38.82;-0.73;174.27;-4.38;-79.26;2.0;72.019;19.300076;72.86192;-135.48;NaN;3.78;14.680644;229.3;18 / 24;39323;2018-06-13 18:54:57:781
8.344;1.6165;1.9706;9.5737;1.1257;1.8018;-0.6543;0.1525;-0.0321;-0.388;-0.2269;-0.0548;446.0;-7.73;-39.81;-1.69;180.72;-6.59;-79.34;2.0;65.818;19.300068;72.861916;-132.26;NaN;3.82;14.680644;156.4;18 / 24;39423;2018-06-13 18:54:57:881
8.4556;1.6205;1.8101;9.5658;1.1469;1.8306;-0.8994;0.4906;0.0943;-0.2699;0.0378;-0.0173;446.0;-9.33;-39.06;-4.13;183.4;-6.72;-79.17;2.0;65.818;19.300068;72.861916;-132.26;NaN;3.82;14.680644;156.4;18 / 24;39522;2018-06-13 18:54:57:980
8.3757;0.6849;2.1641;9.5407;1.1865;1.9332;-0.4682;0.4429;-0.0046;-0.0946;0.0481;-0.1797;439.0;-7.63;-38.14;-5.65;186.68;-6.95;-78.55;2.0;65.818;19.300068;72.861916;-132.26;NaN;3.82;14.680644;156.4;18 / 24;39622;2018-06-13 18:54:58:080
10.3949;-0.1758;5.8374;9.4841;1.1237;2.227;1.0091;-2.1074;1.1138;-0.1486;0.3063;0.1921;439.0;-7.78;-38.57;-4.97;185.03;-6.95;-78.55;2.0;46.741;19.300068;72.861916;-132.26;NaN;3.82;14.680644;156.4;18 / 24;39723;2018-06-13 18:54:58:181
9.5195;0.927;5.5773;9.4493;0.6393;2.5439;0.2032;0.5033;3.1536;0.1897;0.0303;0.5524;456.0;-7.7;-39.09;-7.06;187.54;-6.58;-76.79;2.0;46.741;19.300068;72.861916;-132.26;NaN;3.82;14.680644;156.4;18 / 24;39823;2018-06-13 18:54:58:281
10.2702;-2.4728;0.9678;9.6602;-0.5882;1.5827;-0.3469;1.4528;3.3384;1.7396;-1.392;1.62;456.0;-14.38;-37.61;1.71;173.76;3.44;-80.7;2.0;46.741;19.300068;72.861916;-132.26;NaN;3.82;14.680644;156.4;18 / 24;39922;2018-06-13 18:54:58:380
7.955;-1.833;2.0727;9.7021;-0.5462;1.3197;0.6779;-1.5969;0.1931;1.7396;-1.392;1.62;418.0;-14.87;-36.58;5.33;169.53;3.19;-82.25;2.0;44.927;19.300068;72.861916;-132.26;NaN;3.82;14.680644;156.4;18 / 24;40023;2018-06-13 18:54:58:481
8.3124;-1.3266;2.6141;9.6648;0.0288;1.6617;-1.2872;-1.8513;0.5082;1.0009;0.536;-0.899;418.0;-13.78;-36.51;10.87;160.33;-0.17;-80.24;2.0;44.927;19.300068;72.861916;-132.26;NaN;3.82;14.680644;156.4;18 / 24;40123;2018-06-13 18:54:58:581
9.4801;-1.3454;2.5649;9.6236;0.1298;1.8814;-1.2089;-1.465;1.2025;2.0493;0.0314;0.6248;446.0;-14.96;-33.79;15.06;160.33;-0.17;-80.24;2.0;44.927;19.300068;72.861916;-132.26;NaN;3.82;14.680644;156.4;18 / 24;40222;2018-06-13 18:54:58:680
9.3912;-0.7896;2.3015;9.5348;-0.1863;2.2854;0.0202;-0.3939;0.9068;2.3059;0.3966;0.68;446.0;-16.41;-22.98;25.98;128.62;1.09;-76.52;2.0;44.927;19.300068;72.861916;-132.26;NaN;3.82;14.680644;156.4;18 / 24;40323;2018-06-13 18:54:58:781
10.7861;-1.1029;0.3724;9.469;-0.4005;2.5197;0.831;-0.7511;-0.7562;2.6666;0.0844;0.7485;535.0;-18.08;-16.34;29.84;115.98;2.34;-75.1;2.0;56.044;19.30006;72.86192;-135.48;NaN;3.82;19.574192;167.8;18 / 24;40423;2018-06-13 18:54:58:881
11.9011;-0.188;0.5211;9.3971;0.0736;2.8036;4.0238;-1.1446;-1.1495;2.1079;-0.0134;-0.0288;535.0;-19.51;-3.2;31.94;94.6;-0.43;-73.39;2.0;56.044;19.30006;72.86192;-135.48;NaN;3.82;19.574192;167.8;18 / 24;40523;2018-06-13 18:54:58:981
9.2642;0.6077;1.4658;9.4603;0.5769;2.5178;4.0238;-1.1446;-1.1495;2.1079;-0.0134;-0.0288;807.0;-18.27;-1.79;32.75;92.31;-3.37;-75.1;2.0;56.044;19.30006;72.86192;-135.48;NaN;3.82;19.574192;167.8;18 / 24;40623;2018-06-13 18:54:59:081
8.6395;0.8412;2.4012;9.3794;1.0826;2.6504;0.24;-0.4725;-1.6862;0.0887;0.2889;-0.8862;807.0;-18.27;-1.79;32.75;92.31;-3.37;-75.1;2.0;58.151;19.30006;72.86192;-135.48;NaN;3.82;19.574192;167.8;18 / 24;40723;2018-06-13 18:54:59:181
8.9762;1.0136;2.1836;9.2726;1.5302;2.8013;-0.1817;-0.725;-0.4222;0.1179;0.2964;-0.7873;906.0;-19.38;-2.08;32.2;90.68;-8.98;-73.19;2.0;58.151;19.30006;72.86192;-135.48;NaN;3.82;19.574192;167.8;18 / 24;40823;2018-06-13 18:54:59:281
9.2012;2.0321;1.0837;9.3281;1.9216;2.3376;-0.4405;-0.8759;-0.8293;-0.286;-0.4978;-0.3806;906.0;-19.38;-2.08;32.2;90.68;-8.98;-73.19;2.0;58.151;19.30006;72.86192;-135.48;NaN;3.82;19.574192;167.8;18 / 24;40924;2018-06-13 18:54:59:382
10.15;1.9301;-0.4694;9.393;2.179;1.7869;-1.1467;-0.1548;-0.5515;-0.547;-0.7937;-0.2483;791.0;-16.4;-4.98;33.3;94.45;-12.84;-79.23;2.0;57.561;19.30006;72.86192;-135.48;NaN;3.82;19.574192;167.8;18 / 24;41022;2018-06-13 18:54:59:480
8.35;2.6855;-2.5391;8.9722;2.7847;-2.8133;-1.6192;0.1726;-0.6467;-1.1172;-5.9744;-0.7496;791.0;18.05;-12.05;24.18;104.23;-12.84;-79.23;2.0;57.561;19.30006;72.86192;-135.48;NaN;3.82;19.574192;167.8;18 / 24;41122;2018-06-13 18:54:59:580
4.3164;2.0955;-8.0132;5.082;3.0416;-7.8162;-1.4325;-0.3993;-0.5589;-1.1387;-4.8996;1.0923;274.0;23.75;-14.93;19.2;127.29;-16.5;-107.41;2.0;57.561;19.30006;72.86192;-135.48;NaN;3.82;19.574192;167.8;18 / 24;41223;2018-06-13 18:54:59:681
4.7528;2.0204;-8.692;3.976;3.3134;-8.3296;-0.3662;-0.659;-0.0694;-1.1605;-2.6872;1.0659;274.0;28.22;-18.31;15.46;127.29;-16.5;-107.41;2.0;59.099;19.30006;72.86192;-135.48;NaN;3.82;19.574192;167.8;18 / 24;41323;2018-06-13 18:54:59:781
4.9307;1.0836;-9.2217;3.3314;3.2901;-8.6167;1.9727;-1.6088;-0.2131;-0.4755;-0.6297;1.0924;268.0;25.84;-22.53;12.0;126.38;-19.6;-158.86;2.0;59.099;19.300053;72.86193;-129.03;NaN;3.74;19.574192;148.8;18 / 23;41423;2018-06-13 18:54:59:881
4.5774;2.7532;-7.4332;3.7419;3.7952;-8.232;1.9171;-1.6159;0.6347;-1.2455;0.3528;0.6559;268.0;24.1;-26.5;10.0;126.38;-19.6;-158.86;2.0;59.099;19.300053;72.86193;-129.03;NaN;3.74;19.574192;148.8;18 / 23;41523;2018-06-13 18:54:59:981
4.4854;2.9148;-7.3493;3.9377;3.8609;-8.1091;1.1275;-0.8857;0.9895;-0.2886;0.2152;0.2845;274.0;22.85;-27.64;10.19;136.22;-23.19;-154.1;2.0;59.099;19.300053;72.86193;-129.03;NaN;3.74;19.574192;148.8;18 / 23;41623;2018-06-13 18:55:00:081
4.9099;3.1149;-5.9495;4.2703;3.7317;-8.0006;0.3703;-0.763;0.0302;-0.0939;0.4191;0.1182;274.0;22.08;-27.11;12.06;134.8;-22.37;-151.91;2.0;59.354;19.300053;72.86193;-129.03;NaN;3.74;19.574192;148.8;18 / 23;41723;2018-06-13 18:55:00:181
4.2715;3.6003;-6.4793;4.5743;3.4168;-7.9732;0.1392;0.0772;1.5105;0.7742;0.4059;-0.5176;274.0;22.85;-24.95;14.52;129.86;-20.39;-150.16;2.0;59.354;19.300053;72.86193;-129.03;NaN;3.74;19.574192;148.8;18 / 23;41823;2018-06-13 18:55:00:281
4.1351;3.7129;-5.6509;5.0508;2.4694;-8.035;-0.6153;1.1794;1.7887;1.9533;1.0166;-0.7139;271.0;23.71;-16.67;21.9;115.06;-14.58;-147.85;2.0;59.354;19.300053;72.86193;-129.03;NaN;3.74;19.574192;148.8;18 / 23;41923;2018-06-13 18:55:00:381
6.2384;1.324;-7.6322;5.6122;1.6154;-7.8781;-0.2287;0.5497;-0.1341;1.9533;1.0166;-0.7139;271.0;21.17;-11.31;27.09;105.74;-9.48;-144.53;2.0;63.71;19.300053;72.86193;-129.03;NaN;3.74;19.574192;148.8;18 / 23;42023;2018-06-13 18:55:00:481
7.4404;0.6248;-8.2003;7.2963;0.8909;-6.4916;0.9147;-0.2789;-1.248;1.7636;2.1997;-0.8052;271.0;21.17;-11.31;27.09;105.74;-9.48;-144.53;2.0;63.71;19.300053;72.86193;-129.03;NaN;3.74;19.574192;148.8;18 / 23;42123;2018-06-13 18:55:00:581
9.3195;0.3112;-6.4649;7.8917;1.2724;-5.6808;0.7162;-0.7925;-2.0056;-0.194;0.7538;-0.493;279.0;9.36;-4.32;27.3;96.02;-7.46;-125.75;2.0;63.71;19.300053;72.86193;-129.03;NaN;3.74;19.574192;148.8;18 / 23;42223;2018-06-13 18:55:00:681
9.3195;0.3112;-6.4649;7.8917;1.2724;-5.6808;0.7162;-0.7925;-2.0056;-0.194;0.7538;-0.493;279.0;9.36;-4.32;27.3;96.02;-7.46;-125.75;2.0;63.71;19.300053;72.86193;-129.03;NaN;3.74;19.574192;148.8;18 / 23;42323;2018-06-13 18:55:00:781
5.641;1.6371;-5.5099;7.9466;1.3956;-5.5744;1.5153;-0.8387;-1.0194;0.0517;0.2357;-0.3356;282.0;8.28;-3.73;19.58;98.83;-8.18;-125.05;2.0;58.314;19.300043;72.86194;-129.03;NaN;3.82;14.680644;136.8;18 / 23;42422;2018-06-13 18:55:00:880
6.6348;0.8716;-5.8497;7.9745;1.8863;-5.3869;-1.8364;-0.6443;-0.111;-0.2377;0.2448;-0.1307;282.0;7.67;-5.8;19.59;102.95;-12.34;-124.79;2.0;58.314;19.300043;72.86194;-129.03;NaN;3.82;14.680644;136.8;18 / 23;42523;2018-06-13 18:55:00:981
7.4329;0.9046;-5.72;8.1155;1.4289;-5.3167;-1.1607;-0.3622;-0.6599;0.2888;0.2422;0.7472;278.0;6.94;-5.36;23.88;98.22;-11.09;-124.04;2.0;58.314;19.300043;72.86194;-129.03;NaN;3.82;14.680644;136.8;18 / 23;42623;2018-06-13 18:55:01:081
6.8716;1.5242;-5.5899;8.1729;1.264;-5.2703;-0.4406;-0.1922;-0.4237;-0.3722;0.0543;0.5725;278.0;5.86;-8.17;22.25;107.96;-7.41;-122.82;2.0;62.038;19.300043;72.86194;-129.03;NaN;3.82;14.680644;136.8;18 / 23;42723;2018-06-13 18:55:01:181
7.6989;1.2534;-4.8018;8.2638;1.1508;-5.1532;-0.7363;0.2152;0.1942;-0.0836;0.1078;0.2745;268.0;6.42;-9.14;22.39;110.51;-6.74;-121.95;2.0;62.038;19.300043;72.86194;-129.03;NaN;3.82;14.680644;136.8;18 / 23;42823;2018-06-13 18:55:01:281
8.3576;1.2005;-4.8452;8.5528;1.0248;-4.6872;-0.6117;0.3224;-0.5161;-0.2225;0.618;0.2537;268.0;7.32;-10.18;22.6;111.84;-6.0;-118.72;2.0;62.038;19.300043;72.86194;-129.03;NaN;3.82;14.680644;136.8;18 / 23;42923;2018-06-13 18:55:01:381
9.1233;0.6998;-6.2569;8.7479;0.5607;-4.3966;1.5324;-0.2362;-1.6985;-0.1603;0.1449;0.5555;256.0;5.05;-11.33;23.4;114.41;-6.0;-118.72;2.0;58.789;19.300043;72.86194;-129.03;NaN;3.82;14.680644;136.8;18 / 23;43023;2018-06-13 18:55:01:481
9.4738;0.2623;-4.6961;8.8014;0.8097;-4.2485;1.5627;-0.8053;-1.2755;0.1057;0.0072;-0.7491;256.0;3.34;-11.02;24.44;114.41;-6.0;-118.72;2.0;58.789;19.300043;72.86194;-129.03;NaN;3.82;14.680644;136.8;18 / 23;43123;2018-06-13 18:55:01:581
8.0398;1.1615;-1.8755;8.5807;1.2767;-4.573;0.2968;-0.5458;1.235;-0.7619;-0.7547;-0.5247;252.0;7.6;-13.3;23.6;116.32;-7.48;-118.06;2.0;58.789;19.300043;72.86194;-129.03;NaN;3.82;14.680644;136.8;18 / 23;43222;2018-06-13 18:55:01:680
8.5854;0.1856;-3.1113;8.5367;1.703;-4.5161;-0.3175;-0.6116;2.3571;0.4129;0.106;-0.2915;252.0;6.45;-13.34;23.34;117.13;-10.0;-117.88;2.0;55.341;19.300043;72.86194;-129.03;NaN;3.82;14.680644;136.8;18 / 23;43322;2018-06-13 18:55:01:780
7.8584;1.706;-1.5348;8.6101;2.0761;-4.2102;-0.6402;-0.6841;2.0169;-0.2663;0.3845;-0.5894;252.0;6.18;-12.77;23.25;117.13;-10.0;-117.88;2.0;55.341;19.30004;72.861946;-129.03;NaN;3.78;14.680644;147.6;17 / 24;43422;2018-06-13 18:55:01:880
8.0182;1.0276;-2.0761;8.7414;2.0667;-3.9354;-0.691;-0.8208;1.776;0.5163;0.1381;0.0593;257.0;4.57;-11.92;22.94;114.93;-12.17;-114.24;2.0;55.341;19.30004;72.861946;-129.03;NaN;3.78;14.680644;147.6;17 / 24;43522;2018-06-13 18:55:01:980
8.8819;1.99;-1.0385;8.8679;2.0352;-3.6592;-0.4193;-0.8109;1.396;0.5163;0.1381;0.0593;257.0;1.22;-10.6;27.44;114.93;-12.17;-114.24;2.0;55.823;19.30004;72.861946;-129.03;NaN;3.78;14.680644;147.6;17 / 24;43622;2018-06-13 18:55:02:080
8.7952;1.6942;-2.064;9.2136;1.7833;-2.846;0.1438;0.1916;1.3838;0.7779;0.8903;0.0842;257.0;-2.26;-7.9;39.46;98.42;-10.48;-107.17;2.0;55.823;19.30004;72.861946;-129.03;NaN;3.78;14.680644;147.6;17 / 24;43722;2018-06-13 18:55:02:180
9.7884;1.6825;-2.8127;9.3579;1.463;-2.5415;0.0608;0.2561;-0.0818;0.6018;0.7619;0.2205;257.0;-5.52;-4.06;41.02;92.24;-8.58;-105.19;2.0;55.823;19.30004;72.861946;-129.03;NaN;3.78;14.680644;147.6;17 / 24;43823;2018-06-13 18:55:02:281
10.3163;1.5618;-2.4223;9.5909;1.0695;-1.7438;1.1697;0.4563;-1.0309;0.6018;0.7619;0.2205;280.0;-5.52;-4.06;41.02;92.24;-8.58;-105.19;2.0;58.351;19.30004;72.861946;-129.03;NaN;3.78;14.680644;147.6;17 / 24;43922;2018-06-13 18:55:02:380
9.5406;1.1707;-3.268;9.6692;1.0881;-1.222;0.7733;0.8347;-0.7625;1.1177;1.0467;-0.1803;280.0;-9.38;2.33;38.76;84.23;-6.26;-100.3;2.0;58.351;19.30004;72.861946;-129.03;NaN;3.78;14.680644;147.6;17 / 24;44022;2018-06-13 18:55:02:480
9.2043;2.021;-2.1965;9.699;1.3991;-0.3781;0.3436;0.3482;-1.9181;0.141;0.855;-0.4344;458.0;-13.85;4.77;39.09;79.19;-6.37;-97.2;2.0;58.351;19.30004;72.861946;-129.03;NaN;3.78;14.680644;147.6;17 / 24;44123;2018-06-13 18:55:02:581
12.3133;0.564;-1.9655;9.6271;1.8455;0.2889;0.0679;-0.0616;-3.0346;-0.0946;1.2278;-0.7735;458.0;-19.79;4.32;34.35;77.77;-10.85;-88.28;2.0;58.351;19.30004;72.861946;-129.03;NaN;3.78;14.680644;147.6;17 / 24;44225;2018-06-13 18:55:02:683
7.4036;1.8803;-1.3655;9.6133;1.9177;-0.2793;3.3106;-0.9178;-0.9323;0.7588;-1.0151;0.1104;608.0;-17.61;5.98;37.36;75.23;-11.28;-91.66;2.0;59.753;19.30004;72.861946;-129.03;NaN;3.78;14.680644;147.6;17 / 24;44323;2018-06-13 18:55:02:781
7.5095;2.5706;-0.364;9.3112;2.9929;-0.718;1.3365;-1.8511;-1.3912;-1.9153;-0.5167;-0.6437;608.0;-13.13;2.19;40.49;80.58;-14.2;-97.12;2.0;59.753;19.300034;72.86195;-129.03;NaN;3.74;14.680644;123.2;17 / 24;44423;2018-06-13 18:55:02:881
8.1035;2.2877;-2.5339;9.2705;3.1314;-0.6507;-1.0633;-0.118;-0.8789;-0.9091;-0.1517;-0.1794;424.0;-13.24;-8.67;39.96;95.4;-17.77;-94.41;2.0;59.753;19.300034;72.86195;-129.03;NaN;3.74;14.680644;123.2;17 / 24;44523;2018-06-13 18:55:02:981
8.1813;2.3701;-1.8151;9.2933;3.0189;-0.8309;-0.6781;-0.535;-1.5772;-0.9542;-0.5909;0.2646;424.0;-10.66;-12.8;38.42;102.17;-17.93;-95.11;2.0;65.53;19.300034;72.86195;-129.03;NaN;3.74;14.680644;123.2;17 / 24;44623;2018-06-13 18:55:03:081
8.861;2.4943;0.445;9.2749;3.1062;-0.7065;-0.7231;-0.6219;-1.2487;-1.6198;-0.1889;0.0146;359.0;-9.75;-17.49;37.79;102.17;-17.93;-95.11;2.0;65.53;19.300034;72.86195;-129.03;NaN;3.74;14.680644;123.2;17 / 24;44722;2018-06-13 18:55:03:180
9.387;1.8061;1.6182;9.3755;2.825;-0.5382;0.1695;0.1306;2.6997;-0.5556;-0.4245;0.519;359.0;-8.17;-22.92;35.59;118.33;-16.74;-93.29;2.0;65.53;19.300034;72.86195;-129.03;NaN;3.74;14.680644;123.2;17 / 24;44823;2018-06-13 18:55:03:281
9.815;0.322;1.9497;9.4676;2.5094;-0.4882;-0.0389;-0.8653;2.5253;-0.0865;0.0703;0.121;338.0;-7.96;-23.87;34.2;118.33;-16.74;-93.29;2.0;55.435;19.300034;72.86195;-129.03;NaN;3.74;14.680644;123.2;17 / 24;44923;2018-06-13 18:55:03:381
9.4562;-0.0402;1.4563;9.5568;2.1595;-0.4168;0.4664;-1.6352;2.5878;0.6594;0.2071;0.5309;338.0;-10.53;-21.94;37.03;117.12;-12.72;-92.5;2.0;55.435;19.300034;72.86195;-129.03;NaN;3.74;14.680644;123.2;17 / 24;45023;2018-06-13 18:55:03:481
9.888;0.3617;2.8454;9.7255;1.2592;-0.0095;1.1929;-1.2909;2.3255;0.5465;0.7607;0.5875;338.0;-15.63;-17.47;36.85;111.81;-7.38;-90.06;2.0;55.435;19.300034;72.86195;-129.03;NaN;3.74;14.680644;123.2;17 / 24;45125;2018-06-13 18:55:03:583
8.1864;0.1355;1.4645;9.7278;1.0542;0.6543;-0.0044;-0.7026;2.0445;1.3625;0.4003;0.3185;379.0;-17.95;-13.4;37.18;111.81;-7.38;-90.06;2.0;56.869;19.300034;72.86195;-129.03;NaN;3.74;14.680644;123.2;17 / 24;45223;2018-06-13 18:55:03:681
8.6842;0.1757;1.1679;9.7426;0.8701;0.7041;-1.0374;-0.6623;1.2984;1.8482;0.4885;0.3253;379.0;-19.46;-3.83;39.2;93.63;-5.09;-85.87;2.0;56.869;19.300034;72.86195;-129.03;NaN;3.74;14.680644;123.2;17 / 24;45323;2018-06-13 18:55:03:781
8.9691;0.494;0.5466;9.7097;0.6819;1.1948;-0.3106;-0.5322;-0.0126;1.8482;0.4885;0.3253;515.0;-22.85;4.46;38.77;82.8;-3.99;-82.98;2.0;56.869;19.30003;72.86195;-132.26;NaN;3.71;14.680644;136.7;18 / 24;45422;2018-06-13 18:55:03:880
9.8035;1.0147;1.6974;9.5537;0.4815;2.1601;0.7;-0.0737;-0.6131;1.742;1.0919;0.5641;515.0;-22.85;4.46;38.77;82.8;-3.99;-82.98;2.0;56.869;19.30003;72.86195;-132.26;NaN;3.71;14.680644;136.7;18 / 24;45523;2018-06-13 18:55:03:981
9.8035;1.0147;1.6974;9.5537;0.4815;2.1601;0.7;-0.0737;-0.6131;1.742;1.0919;0.5641;863.0;-26.16;14.28;34.56;69.57;-2.81;-77.26;2.0;59.052;19.30003;72.86195;-132.26;NaN;3.71;14.680644;136.7;18 / 24;45623;2018-06-13 18:55:04:081
9.5819;1.8748;-0.1545;9.5896;0.3071;2.0288;0.7515;0.6598;-0.2449;1.7503;-0.1724;0.5794;863.0;-25.49;20.47;32.83;61.26;-1.79;-78.05;2.0;59.052;19.30003;72.86195;-132.26;NaN;3.71;14.680644;136.7;18 / 24;45723;2018-06-13 18:55:04:181
13.9549;0.583;1.1028;9.6031;0.6243;1.8872;0.4214;0.9424;-1.012;1.0286;-0.2408;-0.0337;1137.0;-25.27;27.99;29.12;48.78;-2.87;-79.61;2.0;59.052;19.30003;72.86195;-132.26;NaN;3.71;14.680644;136.7;18 / 24;45823;2018-06-13 18:55:04:281
11.1705;0.3381;-0.3024;9.6478;0.8358;1.5468;0.9236;-0.8047;-2.049;0.8864;-0.4581;-0.2295;1137.0;-26.08;31.04;25.5;42.49;-3.65;-78.88;2.0;60.756;19.30003;72.86195;-132.26;NaN;3.71;14.680644;136.7;18 / 24;45923;2018-06-13 18:55:04:381
8.9629;0.6402;1.4674;9.6165;1.2619;1.4491;-0.0158;-1.1255;-0.5951;-1.4588;0.2074;-0.765;1198.0;-25.78;29.91;27.64;45.06;-4.89;-80.89;2.0;60.756;19.30003;72.86195;-132.26;NaN;3.71;14.680644;136.7;18 / 24;46023;2018-06-13 18:55:04:481
8.6128;0.7926;0.9807;9.5391;1.4415;1.76;-0.8593;-0.4362;-0.2323;-1.2697;0.3633;-0.5334;1198.0;-28.97;22.94;31.25;53.85;-8.45;-79.55;2.0;60.756;19.30003;72.86195;-132.26;NaN;3.71;14.680644;136.7;18 / 24;46122;2018-06-13 18:55:04:580
8.8643;0.6462;0.8363;9.5029;1.5727;1.8416;-0.3256;-0.7845;-0.8185;-1.1384;-0.267;-0.3478;1048.0;-28.87;16.14;29.04;60.19;-9.23;-79.03;2.0;58.449;19.30003;72.86195;-132.26;NaN;3.71;14.680644;136.7;18 / 24;46222;2018-06-13 18:55:04:680
8.9748;0.5794;0.8139;9.5461;1.6111;1.5643;-0.1539;-0.981;-0.5742;-0.8931;-0.4118;-0.1737;1048.0;-28.56;13.24;34.28;60.19;-9.23;-79.03;2.0;58.449;19.30003;72.86195;-132.26;NaN;3.71;14.680644;136.7;18 / 24;46323;2018-06-13 18:55:04:781
8.4588;1.1545;2.0328;9.577;1.6365;1.3318;-0.4671;-0.5853;0.7413;-0.7234;-0.3514;-0.1465;829.0;-26.82;8.6;37.69;73.7;-9.46;-80.69;2.0;58.449;19.30003;72.86195;-132.26;NaN;3.71;14.680644;136.7;16 / 24;46423;2018-06-13 18:55:04:881
9.8142;0.0213;2.4854;9.6609;1.2874;1.0866;-0.6969;-0.0683;0.7026;-0.0607;-0.0857;0.4046;829.0;-25.55;6.79;39.18;73.7;-9.46;-80.69;2.0;55.611;19.30003;72.86195;-132.26;NaN;3.71;14.680644;136.7;16 / 24;46523;2018-06-13 18:55:04:981
11.3731;-0.6631;3.532;9.7066;0.7838;1.1563;0.3263;-0.4415;1.2453;-0.0607;-0.0857;0.4046;737.0;-24.19;9.11;38.94;75.81;-4.58;-83.21;2.0;55.611;19.30003;72.86195;-132.26;NaN;3.71;14.680644;136.7;16 / 24;46623;2018-06-13 18:55:05:081
8.9671;-0.2045;2.5392;9.786;0.0312;0.6359;1.8592;-0.6034;2.8608;0.6255;-0.2563;0.9517;737.0;-22.66;12.2;39.03;73.38;-0.18;-86.28;2.0;55.611;19.30003;72.86195;-132.26;NaN;3.71;14.680644;136.7;16 / 24;46723;2018-06-13 18:55:05:181
7.8311;-0.1286;3.1457;9.7802;0.2243;0.6836;-0.9471;-0.0486;2.7003;-0.23;-0.0046;-0.3445;728.0;-22.15;11.85;38.17;72.5;-1.31;-86.0;2.0;55.611;19.30003;72.86195;-132.26;NaN;3.71;14.680644;136.7;16 / 24;46823;2018-06-13 18:55:05:281
9.0752;-0.4086;1.6362;9.7261;0.1493;1.2452;-0.7067;-0.4051;1.8581;1.0676;0.2122;0.5265;728.0;-22.45;19.26;35.93;63.42;-0.87;-82.7;2.0;56.526;19.30003;72.86195;-132.26;NaN;3.71;14.680644;136.7;16 / 24;46923;2018-06-13 18:55:05:381
8.7267;0.4532;0.8667;9.7266;-0.495;1.1481;-0.4834;0.1941;-0.1459;0.7663;0.1003;0.5534;815.0;-21.14;21.78;34.75;60.42;2.89;-83.27;2.0;56.526;19.30003;72.86195;-132.26;NaN;3.71;14.680644;136.7;16 / 24;47023;2018-06-13 18:55:05:481
9.7454;-0.4682;0.3558;9.6517;-0.8913;1.49;0.0553;1.1411;-0.3916;1.0762;0.0605;0.6065;815.0;-20.18;27.02;29.9;52.04;5.21;-81.22;2.0;56.526;19.30003;72.86195;-132.26;NaN;3.71;14.680644;136.7;16 / 24;47123;2018-06-13 18:55:05:581
9.7454;-0.4682;0.3558;9.6517;-0.8913;1.49;0.0553;1.1411;-0.3916;1.0762;0.0605;0.6065;997.0;-20.18;27.02;29.9;52.04;5.21;-81.22;2.0;59.331;19.30003;72.86195;-132.26;NaN;3.71;14.680644;136.7;16 / 24;47222;2018-06-13 18:55:05:680
11.1113;-1.3763;0.7765;9.6433;-0.9988;1.476;1.1077;-0.0297;-1.1122;0.6943;-0.0385;0.1961;997.0;-20.91;31.06;28.43;46.43;5.21;-81.22;2.0;59.331;19.30003;72.86195;-132.26;NaN;3.71;14.680644;136.7;16 / 24;47323;2018-06-13 18:55:05:781
10.6038;-0.082;1.3938;9.6643;-0.6527;1.5316;1.7954;-0.4886;-0.5262;0.1839;0.1036;-0.5812;1151.0;-21.01;32.55;29.24;45.62;5.85;-81.3;2.0;59.331;19.300024;72.86196;-132.26;NaN;3.53;14.680644;142.0;17 / 24;47423;2018-06-13 18:55:05:881
10.3351;-1.1362;-1.1294;9.7256;-0.343;1.2106;0.9061;0.0157;-0.4767;0.396;-0.1556;-0.4419;1151.0;-21.73;30.68;28.52;46.07;2.0;-82.9;2.0;64.059;19.300024;72.86196;-132.26;NaN;3.53;14.680644;142.0;17 / 24;47523;2018-06-13 18:55:05:981
10.0679;-0.5017;-0.0825;9.7569;0.296;0.9413;0.9332;-1.2311;-1.9897;-0.8347;-0.1985;-0.7573;1132.0;-22.7;28.68;30.16;47.3;-1.73;-84.49;2.0;64.059;19.300024;72.86196;-132.26;NaN;3.53;14.680644;142.0;17 / 24;47623;2018-06-13 18:55:06:081
9.2923;-0.5217;0.3276;9.7843;0.4369;0.4979;-0.2074;-0.5242;-0.6535;-1.906;-0.2571;-0.2296;1132.0;-19.94;19.92;34.13;59.27;-2.55;-87.09;2.0;64.059;19.300024;72.86196;-132.26;NaN;3.53;14.680644;142.0;17 / 24;47723;2018-06-13 18:55:06:181
8.239;0.3557;0.9214;9.7228;0.9889;0.8125;-1.8039;-0.9108;-0.4749;-2.3097;0.1537;-0.7201;770.0;-21.76;5.75;37.57;80.0;-2.55;-87.09;2.0;61.339;19.300024;72.86196;-132.26;NaN;3.53;14.680644;142.0;17 / 24;47823;2018-06-13 18:55:06:281
8.8832;0.1982;0.5179;9.6148;1.2799;1.445;-0.8881;-0.9093;-0.5145;-1.4686;0.3614;-0.3296;770.0;-22.31;-0.02;37.62;80.0;-2.55;-87.09;2.0;61.339;19.300024;72.86196;-132.26;NaN;3.53;14.680644;142.0;17 / 24;47923;2018-06-13 18:55:06:381
9.2361;-0.163;0.1506;9.6335;1.1295;1.446;0.1834;-1.1698;-1.1956;-1.1529;-0.1099;0.0479;634.0;-20.38;-7.72;36.64;99.05;-6.61;-81.46;2.0;61.339;19.300024;72.86196;-132.26;NaN;3.53;14.680644;142.0;17 / 24;48023;2018-06-13 18:55:06:481
9.6807;0.8828;2.5966;9.4832;1.9646;1.5428;0.3974;-0.9337;1.2432;-1.4893;-0.0645;-0.6875;634.0;-18.38;-12.75;35.53;99.05;-6.61;-81.46;2.0;61.339;19.300024;72.86196;-132.26;NaN;3.53;14.680644;142.0;17 / 24;48123;2018-06-13 18:55:06:581
9.5017;1.5042;5.5396;9.345;2.3795;1.7829;0.5236;-1.3315;1.0127;-0.7108;0.2305;-0.9046;552.0;-17.79;-18.61;29.53;115.27;-14.04;-79.2;2.0;60.74;19.300024;72.86196;-132.26;NaN;3.53;14.680644;142.0;17 / 24;48223;2018-06-13 18:55:06:681
8.0;1.1231;5.5665;9.2034;2.4826;2.3031;0.9006;-0.7383;3.9358;-0.0178;0.1804;0.076;552.0;-16.32;-20.9;31.84;117.5;-15.05;-76.95;2.0;60.74;19.300024;72.86196;-132.26;NaN;3.53;14.680644;142.0;17 / 24;48323;2018-06-13 18:55:06:781
8.0057;0.4303;4.9045;9.2908;2.2338;2.205;-0.6944;-1.4586;2.9632;0.848;0.3199;0.4344;573.0;-17.42;-19.66;32.12;116.38;-13.17;-76.65;2.0;60.74;19.300024;72.86196;-132.26;NaN;3.53;14.680644;142.0;17 / 24;48422;2018-06-13 18:55:06:880
7.1334;1.0947;4.2529;9.2218;1.993;2.6752;-1.6333;-0.9964;1.5942;1.1013;0.806;0.4268;573.0;-20.69;-12.91;33.42;105.62;-11.73;-73.82;2.0;62.637;19.300024;72.86196;-132.26;NaN;3.53;14.680644;142.0;17 / 24;48523;2018-06-13 18:55:06:981
9.7538;0.3219;1.6702;9.2445;1.6504;2.826;-0.5014;-0.6099;1.7107;2.1298;-0.1159;1.3783;617.0;-23.12;-6.2;34.4;95.66;-9.69;-73.0;2.0;62.637;19.300024;72.86196;-132.26;NaN;3.53;14.680644;142.0;17 / 24;48623;2018-06-13 18:55:07:081
9.5448;1.1549;1.8628;9.444;0.7708;2.5274;0.2272;0.4932;-0.7086;1.5389;0.1625;0.7008;617.0;-23.93;5.7;34.04;79.37;-5.42;-75.01;2.0;62.637;19.300024;72.86196;-132.26;NaN;3.53;14.680644;142.0;17 / 24;48722;2018-06-13 18:55:07:180
9.4551;1.1074;0.8951;9.5128;0.58;2.3109;0.16;0.6759;-0.5015;1.5389;0.1625;0.7008;809.0;-23.49;11.67;33.59;71.56;-3.39;-76.35;2.0;66.727;19.300024;72.86196;-132.26;NaN;3.53;14.680644;142.0;17 / 24;48823;2018-06-13 18:55:07:281
9.5455;1.1975;0.8749;9.5478;0.4739;2.1876;0.1518;0.6484;-1.1507;1.4334;-0.1036;0.5449;809.0;-23.49;11.67;33.59;71.56;-3.39;-76.35;2.0;66.727;19.300024;72.86196;-132.26;NaN;3.53;14.680644;142.0;17 / 24;48923;2018-06-13 18:55:07:381
9.2213;0.7743;-0.4604;9.5708;0.4432;2.0915;0.4109;0.733;-1.132;1.2715;-0.0724;0.362;1017.0;-20.92;20.91;31.0;60.58;-2.59;-77.67;2.0;66.727;19.300024;72.86196;-132.26;NaN;3.53;14.680644;142.0;17 / 24;49023;2018-06-13 18:55:07:481
9.4355;0.6015;1.545;9.6806;0.3643;1.5245;-0.1668;0.5516;-1.7172;0.4082;-0.4149;0.1116;1017.0;-20.42;22.33;31.48;56.25;-2.13;-81.05;2.0;63.864;19.300024;72.86196;-132.26;NaN;3.53;14.680644;142.0;17 / 24;49123;2018-06-13 18:55:07:581
10.0166;0.2511;1.1785;9.6226;0.7881;1.719;0.7022;-0.5431;-0.4739;-0.7778;0.0789;-0.738;1057.0;-21.87;21.39;30.36;56.82;-2.13;-81.05;2.0;63.864;19.300024;72.86196;-132.26;NaN;3.53;14.680644;142.0;17 / 24;49223;2018-06-13 18:55:07:681
9.9314;0.3324;0.3634;9.6548;0.9008;1.4642;0.8352;-0.8276;-1.231;-0.7344;-0.0433;-0.2778;1057.0;-21.91;12.83;32.95;62.12;-4.61;-79.87;2.0;63.864;19.300024;72.86196;-132.26;NaN;3.53;14.680644;142.0;17 / 24;49323;2018-06-13 18:55:07:781
9.2247;0.4003;0.3138;9.6246;1.0089;1.5873;0.8556;-0.9326;-1.3509;-1.255;0.1313;-0.4169;894.0;-21.87;9.58;34.61;73.08;-5.91;-80.63;2.0;63.864;19.300028;72.86195;-138.71;NaN;3.42;14.680644;45.4;16 / 24;49423;2018-06-13 18:55:07:881
8.5569;0.9844;0.8542;9.5565;1.2095;1.8386;0.0588;-0.7481;-1.3503;-1.7483;0.1349;-0.5008;894.0;-22.76;4.7;35.23;73.08;-5.91;-80.63;2.0;59.497;19.300028;72.86195;-138.71;NaN;3.42;14.680644;45.4;16 / 24;49523;2018-06-13 18:55:07:981
8.8914;1.0123;1.3201;9.573;1.1739;1.7747;0.0022;-0.3146;-0.998;-1.8807;-0.2378;-0.2905;683.0;-20.89;-4.97;34.08;94.96;-6.88;-79.5;2.0;59.497;19.300028;72.86195;-138.71;NaN;3.42;14.680644;45.4;16 / 24;49623;2018-06-13 18:55:08:081
9.2583;1.1134;1.5532;9.5054;1.4041;1.9611;-0.0156;-0.221;-0.3014;-1.9166;-0.123;-0.6044;683.0;-20.28;-11.02;32.0;104.78;-6.88;-79.5;2.0;59.497;19.300028;72.86195;-138.71;NaN;3.42;14.680644;45.4;16 / 24;49723;2018-06-13 18:55:08:181
9.3301;0.3442;-0.4035;9.5485;1.5814;1.5797;-0.3358;0.3984;0.1417;-1.7653;-0.9485;-0.6329;513.0;-14.72;-18.29;31.54;115.49;-9.28;-80.61;2.0;66.441;19.300028;72.86195;-138.71;NaN;3.42;14.680644;45.4;16 / 24;49823;2018-06-13 18:55:08:281
9.0242;-0.1015;0.5466;9.6818;1.5423;0.2315;-0.4004;-1.194;0.9421;-1.1261;-0.9762;-0.0265;513.0;-11.85;-24.78;27.15;130.13;-8.51;-88.12;2.0;66.441;19.300028;72.86195;-138.71;NaN;3.42;14.680644;45.4;16 / 24;49922;2018-06-13 18:55:08:380
11.3048;-2.1924;2.3985;9.6946;1.3695;0.5567;-0.4041;-1.0272;0.6309;-1.2473;0.3482;0.2247;513.0;-12.17;-26.91;25.68;133.48;-8.03;-86.71;2.0;66.441;19.300028;72.86195;-138.71;NaN;3.42;14.680644;45.4;16 / 24;50022;2018-06-13 18:55:08:480
10.6654;-2.4663;3.5672;9.7379;1.0233;0.5445;1.7776;-2.4882;1.9767;-0.6686;-0.1643;0.4751;351.0;-14.58;-28.57;21.14;141.49;-5.99;-86.8;2.0;60.524;19.300028;72.86195;-138.71;NaN;3.42;14.680644;45.4;16 / 24;50123;2018-06-13 18:55:08:581
7.5133;-0.9262;5.6537;9.6078;1.2104;1.5476;0.289;-3.1495;4.1194;-0.3974;0.9028;-0.5477;351.0;-16.56;-29.94;16.52;145.19;-7.09;-80.85;2.0;60.524;19.300028;72.86195;-138.71;NaN;3.42;14.680644;45.4;16 / 24;50223;2018-06-13 18:55:08:681
7.4824;-0.3524;5.4276;9.4155;1.2752;2.4273;-1.1195;-2.0043;3.2391;1.0689;0.9498;0.0595;389.0;-16.56;-29.94;16.52;145.19;-7.09;-80.85;2.0;60.524;19.300032;72.86196;-141.94;NaN;3.42;14.680644;99.2;17 / 24;50323;2018-06-13 18:55:08:781
9.3789;-1.7531;2.1679;9.3416;1.0014;2.811;-0.652;-2.0016;1.8493;2.7438;0.6262;0.9143;389.0;-21.33;-23.09;26.74;124.12;-5.86;-73.25;2.0;52.192;19.300032;72.86196;-141.94;NaN;3.42;14.680644;99.2;17 / 24;50423;2018-06-13 18:55:08:881
8.9394;-0.1684;0.9698;9.3416;1.0014;2.811;-0.652;-2.0016;1.8493;2.7438;0.6262;0.9143;517.0;-21.33;-23.09;26.74;124.12;-5.86;-73.25;2.0;52.192;19.300032;72.86196;-141.94;NaN;3.42;14.680644;99.2;17 / 24;50522;2018-06-13 18:55:08:980
9.6819;0.6598;0.4702;9.3325;0.7111;2.9274;0.017;-1.8629;-1.0155;2.7656;0.3214;1.1512;517.0;-25.83;-1.13;31.4;100.63;-4.16;-72.58;2.0;52.192;19.300032;72.86196;-141.94;NaN;3.42;14.680644;99.2;17 / 24;50622;2018-06-13 18:55:09:080
9.278;1.3456;-0.3079;9.4452;0.3263;2.6177;0.2273;0.6963;-2.4219;2.886;-0.1091;1.1841;755.0;-25.83;-1.13;31.4;100.63;-4.16;-72.58;2.0;52.192;19.300032;72.86196;-141.94;NaN;3.42;14.680644;99.2;17 / 24;50723;2018-06-13 18:55:09:181
9.9025;-0.0076;2.41;9.4301;0.315;2.673;3.7054;0.8882;-2.1116;1.8409;0.7286;0.3333;755.0;-25.63;15.98;30.54;65.8;-1.91;-74.51;2.0;62.256;19.300032;72.86196;-141.94;NaN;3.42;14.680644;99.2;17 / 24;50823;2018-06-13 18:55:09:281
7.3975;0.6443;1.44;9.4269;0.7288;2.6025;3.9322;-0.9866;0.1658;1.4682;-0.0217;-0.3549;1098.0;-27.66;20.63;26.21;55.4;-4.26;-74.57;2.0;62.256;19.300032;72.86196;-141.94;NaN;3.42;14.680644;99.2;17 / 24;50923;2018-06-13 18:55:09:381
7.2766;1.0527;-0.3785;9.5977;1.2204;1.6014;-0.7476;-0.9517;0.4329;0.5077;-0.4673;-0.2162;1098.0;-25.75;21.59;26.98;51.64;-7.15;-80.53;2.0;62.256;19.300032;72.86196;-141.94;NaN;3.42;14.680644;99.2;17 / 24;51023;2018-06-13 18:55:09:481
8.1755;2.6404;-0.6185;9.4859;1.2981;2.1221;-0.1405;1.0312;-2.1043;-0.8786;0.4162;-0.2077;1091.0;-27.91;20.39;26.81;53.96;-7.15;-80.53;2.0;67.663;19.300032;72.86196;-141.94;NaN;3.42;14.680644;99.2;17 / 24;51123;2018-06-13 18:55:09:581
9.0814;1.8558;-0.2327;9.5224;1.4853;1.8132;-0.7167;1.0546;-2.3054;-1.8988;-0.5996;-0.5482;1091.0;-27.53;12.13;27.3;64.33;-8.71;-79.22;2.0;67.663;19.300032;72.86196;-141.94;NaN;3.42;14.680644;99.2;17 / 24;51222;2018-06-13 18:55:09:680
10.0303;1.7703;1.1621;9.501;1.5929;1.8343;-0.3949;0.5622;-2.0743;-2.2836;-0.2713;-0.6055;807.0;-27.69;4.76;32.66;64.33;-8.71;-79.22;2.0;67.663;19.300032;72.86197;-138.71;NaN;3.38;14.680644;120.7;16 / 24;51323;2018-06-13 18:55:09:781
7.8504;1.817;2.996;9.2683;1.9862;2.5148;1.2058;-0.4601;-0.456;-2.081;0.0939;-0.9354;807.0;-27.92;-9.56;30.96;99.1;-11.69;-74.82;2.0;64.819;19.300032;72.86197;-138.71;NaN;3.38;14.680644;120.7;16 / 24;51423;2018-06-13 18:55:09:881
