ACCELEROMETER_X,ACCELEROMETER_Y,ACCELEROMETER_Z,GRAVITY_X,GRAVITY_Y,GRAVITY_Z,LINEAR_ACCELERATION_X,LINEAR_ACCELERATION_Y,LINEAR_ACCELERATION_Z,GYROSCOPE_X,GYROSCOPE_Y,GYROSCOPE_Z,MAGNETIC_FIELD_X,MAGNETIC_FIELD_Y,MAGNETIC_FIELD_Z,ORIENTATION_Z,ORIENTATION_X,ORIENTATION_Y,PRT_X,PRT_Y,PRT_Z,OUT
5.4045,2.1185,8.4929,8.3346,1.4612,4.9567,-2.6521,0.7053,3.8971,0.6863,2.1553,1.7216,-41.79,27.37,10.35,43.83,-8.57,-59.26,6.118099879,2.321662539,7.937553139,2.5
7.4981,2.9433,8.4065,7.6366,0.8542,6.0929,0.431,2.4718,2.5228,0.3353,0.7896,0.5009,-36.22,34.06,-1.97,31.76,-5.91,-54.1,8.348017449,3.055724887,7.518438058,2.5
7.9044,2.64,7.3243,7.4016,0.8387,6.3784,0.9609,1.6242,0.8111,-0.1472,-0.2112,-0.0509,-32.54,35.12,-5.84,25.11,-4.99,-49.44,8.669158907,2.733409662,6.36149867,2.5
5.3991,4.7209,5.8976,7.5325,1.1814,6.1673,-2.1865,3.4214,0.4224,-1.009,-0.2437,-1.0496,-36.6,33.31,-4.09,27.43,-6.06,-50.28,6.001443317,4.828829558,5.184973152,2.5
1.4623,5.7323,5.9203,7.6269,1.2298,6.0405,-5.4055,4.7511,0.2536,-1.1741,-0.1702,-0.4392,-38.85,34.06,-0.28,33.51,-7.43,-51.5,2.077182813,5.854035437,5.609199348,2.5
0.2692,4.287,6.7649,7.4079,0.8924,6.3638,-6.7607,3.6433,0.5347,-0.3587,-0.1457,-0.0233,-39.6,36.25,1.41,34.81,-5.42,-49.26,1.017370088,4.390727327,6.625796653,2.5
8.4273,5.5351,13.2532,7.0277,0.8693,6.7842,-4.937,6.3355,8.971,0.9447,-1.1992,1.3611,-40.29,39.94,-5.84,40.08,-4.47,-45.73,9.933896081,5.719023348,12.07950778,2.5
0.4447,7.768,11.5037,6.5633,0.8369,7.2383,-5.8325,6.9676,4.5809,0.7838,2.224,0.5445,-34.04,42.5,-13.9,19.28,-4.11,-47.14,1.890581403,7.93303865,11.2413209,2.5
-1.1707,4.1013,6.6154,5.8019,0.7755,7.8681,-7.2062,3.3642,-0.9518,1.4059,0.6314,2.5233,-20.04,37,-28.78,358.39,-4.54,-36.4,-0.254076166,4.191787416,6.657257761,2.5
-0.6557,4.0074,6.752,5.6646,0.6741,7.9767,-5.9153,3.3392,-0.5171,1.0997,0.7539,2.2138,-18.16,36.62,-28.78,358.39,-4.54,-36.4,0.287622217,4.086861844,6.730047175,2.5
-0.6557,4.0074,6.752,5.6646,0.6741,7.9767,-5.9153,3.3392,-0.5171,1.0997,0.7539,2.2138,-18.16,36.62,-28.78,358.39,-4.54,-36.4,0.287622217,4.086861844,6.730047175,2.5
-0.223,3.8427,7.6156,1.9129,-0.6181,9.5984,4.7983,0.8503,0.4441,0.1271,1.5955,1.5821,-16.72,35.87,-24.53,19.03,3.61,-11.27,1.049956765,3.761070764,7.587184797,2.5
5.3634,3.7619,14.9695,1.3817,-1.1535,9.6401,4.0311,4.8707,5.622,-1.7457,-0.4147,-0.2906,6.53,26.69,-24.53,329.44,3.44,-8.37,7.79443908,3.48212234,13.93289004,2.5
8.015,2.6817,6.6394,2.2022,-0.9325,9.5106,6.7974,4.5041,-2.7652,-0.3235,-0.5819,-1.0811,5.4,26.69,-25.4,338.02,5.71,-11.54,9.001863129,2.596329832,5.266773572,2.5
2.9152,2.276,6.3353,2.9006,-0.6054,9.3483,0.4959,2.5531,-1.7995,0.8408,-1.8421,-1.4896,1.34,25.94,-24.97,342.2,4.59,-15.66,3.90556277,2.214826341,5.801354743,2.5
2.4844,5.0322,9.4476,5.3712,0.1914,8.2027,-2.3094,4.8995,1.6635,-0.6969,-2.6155,-1.5615,-10.41,23,-26.22,351.13,-0.58,-28.53,3.806925688,5.062225172,8.979622435,2.5
0.2308,3.7864,9.9465,6.2927,0.0689,7.5212,-5.9225,3.8249,2.4767,-2.2687,-1.6578,-2.3322,-17.47,25.19,-23.65,349.67,-0.9,-38.52,1.530742364,3.798219013,9.82615469,2.5
-0.7282,4.1725,7.7486,7.3542,0.425,6.4734,-6.1193,3.4369,1.5468,-1.3808,-0.722,-1.9232,-26.29,24.44,-20.28,1.14,-0.37,-42.76,0.150035264,4.230103632,7.750132007,2.5
1.3488,5.1607,11.3187,7.771,1.1303,5.874,-5.8867,4.1083,5.8495,0.5718,-1.3595,-0.6118,-32.91,21.87,-24.09,11.32,-3.41,-49.53,2.500087137,5.37907531,11.01726685,2.5
5.7804,4.3672,10.9386,8.0529,1.6916,5.3347,-1.724,2.7909,5.9672,1.5977,-0.2522,0.4428,-32.22,16.31,-18.59,8.39,-8.17,-55.96,6.772364169,4.670937836,10.22036463,2.5
4.9814,4.9529,7.0324,8.1593,1.885,5.1032,-2.614,3.073,1.931,1.2147,-0.4466,0.5515,-32.54,13.37,-16.9,8.62,-9.93,-56.48,5.587185935,5.16604839,6.39495985,2.5
4.9814,4.9529,7.0324,8.1593,1.885,5.1032,-2.614,3.073,1.931,1.2147,-0.4466,0.5515,-32.54,13.37,-16.9,8.62,-9.93,-56.48,5.587185935,5.16604839,6.39495985,2.5
5.0931,4.7621,6.5827,8.1593,1.885,5.1032,-2.614,3.073,1.931,0.5218,0.9553,0.0838,-31.85,12.25,-18.15,5.18,-11.08,-57.98,5.658442368,4.960291231,5.943630556,2.5
2.5223,6.7771,6.4542,6.5406,2.8057,6.7468,-3.302,3.7859,0.2213,0.5511,0.9702,0.3288,-25.91,6.37,-20.28,15.99,-16.2,-44.99,3.263085329,7.068211094,5.774118583,2.5
3.6303,6.2681,7.0978,6.0517,2.9815,7.1175,-2.169,3.4987,0.6608,0.9644,0.5233,0.9163,-23.35,7.5,-20.28,15.85,-17.51,-40.54,4.481775563,6.602555906,6.258343539,2.5
5.4669,5.3815,5.4539,5.9178,3.0897,7.1836,-0.6228,2.8764,-2.4289,0.0056,0.4748,0.4103,-20.04,7.12,-28.34,14.13,-18.61,-39.95,6.105994128,5.628484116,4.43052653,2.5
6.0639,4.6414,10.0651,6.7064,2.8125,6.5791,-1.0909,2.6614,2.6379,-0.0412,-2.8381,1.4234,-22.97,9.69,-18.59,358.15,-18.29,-39.18,7.177174089,5.092337376,9.065097204,2.5
7.4941,3.8485,11.9898,7.3683,2.7211,5.8715,1.253,1.0989,6.7884,2.3125,-3.1662,1.05,-24.47,10.44,-16.84,14.62,-16.67,-45.55,8.681314575,4.373986903,10.96498094,2.5
7.4941,3.8485,11.9898,7.3683,2.7211,5.8715,1.253,1.0989,6.7884,2.3125,-3.1662,1.05,-24.47,10.44,-16.84,14.62,-16.67,-45.55,8.681314575,4.373986903,10.96498094,2.5
7.4941,3.8485,11.9898,7.3683,2.7211,5.8715,1.253,1.0989,6.7884,2.3125,-3.1662,1.05,-24.47,10.44,-16.84,14.62,-16.67,-45.55,8.681314575,4.373986903,10.96498094,2.5
7.4941,3.8485,11.9898,7.3683,2.7211,5.8715,1.253,1.0989,6.7884,2.3125,-3.1662,1.05,-24.47,10.44,-16.84,14.62,-16.67,-45.55,8.681314575,4.373986903,10.96498094,2.5
9.354,2.8762,9.489,8.6918,4.5308,-0.3088,1.3185,-1.2765,10.8608,-1.0042,0.7092,-1.5162,-27.41,10.44,-15.59,321.19,-27.52,-92.03,9.302722677,3.620767232,9.282260441,2.5
-2.9844,7.781,4.681,8.4016,5.0406,-0.4193,-10.3675,3.0903,5.4265,0.0941,-0.3273,-0.2043,-31.1,-7.63,-28.78,284.85,-29.95,-92.14,-3.018576127,8.16025896,3.957364936,2.5
-1.1955,7.9634,4.8369,8.5565,4.7871,0.2021,-9.0993,3.6252,4.8142,0.1521,0.7028,0.8561,-32.91,-7.25,-24.53,293.01,-29.22,-88.65,-1.178431343,8.339626769,4.159625745,2.5
0.0466,5.3695,2.975,8.7714,4.3752,0.3005,-8.2082,2.0814,2.7249,0.2086,0.8637,0.8748,-30.35,-6.13,-24.09,293.8,-27.54,-88.51,0.06220232,5.580786054,2.556420291,2.5
0.0466,5.3695,2.975,8.7714,4.3752,0.3005,-8.2082,2.0814,2.7249,0.2086,0.8637,0.8748,-30.35,-6.13,-24.09,293.8,-27.54,-88.51,0.06220232,5.580786054,2.556420291,2.5
0.0466,5.3695,2.975,8.7714,4.3752,0.3005,-8.2082,2.0814,2.7249,0.2086,0.8637,0.8748,-30.35,-6.13,-24.09,293.8,-27.54,-88.51,0.06220232,5.580786054,2.556420291,2.5
-0.52858,6.05713,9.6391,7.23733,5.69569,3.36908,-7.10755,0.87956,6.5765,-1.18692,0.10306,-1.23393,-25.537,1.248,-29.654,320.132,-34.616,-67.193,0.038801137,6.985287585,9.004705508,2.5
-0.90961,2.72559,9.32512,6.19181,6.13029,4.50017,-7.48902,0.49059,7.32847,0.29965,-0.16272,-1.17694,-24.849,1.561,-31.779,334.076,-37.786,-54.51,-0.175137383,3.710382996,9.023108064,2.5
-1.14371,4.42877,7.42807,5.99194,6.33911,4.48137,-6.3651,0.33771,5.76748,1.95241,-0.51106,-0.99583,-25.911,-4.314,-31.779,338.159,-40.271,-53.207,-0.559821393,5.229205268,6.959907505,2.5
-0.85968,4.79431,7.27776,5.67646,7.34077,3.17196,-6.03535,-1.64916,4.44949,0.36197,-1.20988,-0.45149,-25.911,-6.564,-30.904,328.72,-48.465,-60.804,-0.455663409,5.689550524,6.641659009,2.5
1.65245,4.65907,8.37006,5.10296,8.25143,1.42971,-2.97863,-2.85772,7.15211,-0.55522,-3.0874,-1.31595,-32.912,-10.939,-24.966,330.18,-57.29,-74.349,1.860773321,5.80579634,7.57137241,2.5
1.55203,4.44867,5.64749,4.40607,8.75972,0.15585,-1.76583,-4.40834,6.35545,1.70793,-2.2858,-2.4659,-34.036,-18.314,-11.717,334.515,-63.284,-87.974,1.567385959,5.256195761,4.899929854,2.5
-1.65012,8.998,7.99594,1.34609,9.40286,-2.43818,-3.3899,0.6833,9.0462,0.20058,-1.6738,-1.782,-29.224,-27.939,2.783,305.941,-70.982,-127.441,-1.988784991,10.17079043,6.342059029,2.5
-2.29346,3.83939,6.37704,0.27924,9.2565,-3.22639,-0.96584,-4.98942,8.97652,1.31271,-1.63332,-1.99559,-27.037,-29.752,23.659,297.751,-72.584,-165.605,-2.648733464,4.79278126,5.539040742,2.5
-3.83421,7.71652,3.49945,-0.93023,9.19724,-3.27351,-4.00177,0.56497,5.68852,-0.69104,-0.71347,-0.28264,-21.474,-33.127,25.845,281.429,-69.338,165.645,-4.027781059,8.140739027,1.999336234,2.5
-3.83421,7.71652,3.49945,-0.93023,9.19724,-3.27351,-4.00177,0.56497,5.68852,-0.69104,-0.71347,-0.28264,-21.474,-33.127,25.845,281.429,-69.338,165.645,-4.027781059,8.140739027,1.999336234,2.5
-3.83421,7.71652,3.49945,-0.93023,9.19724,-3.27351,-4.00177,0.56497,5.68852,-0.69104,-0.71347,-0.28264,-21.474,-33.127,25.845,281.429,-69.338,165.645,-4.027781059,8.140739027,1.999336234,2.5
0.62399,7.52777,8.28386,-7.64531,5.94596,-1.5379,7.07368,2.2361,9.24516,0.48981,-1.20189,-2.50798,-9.724,-40.814,20.221,211.966,-38.981,103.889,0.401441282,8.346825378,7.473176847,2.5
-3.03703,7.58205,8.11777,-8.79362,4.27961,-0.72633,6.76864,3.97563,6.59482,0.87968,-1.02985,-1.72821,4.338,-40.501,30.47,218.654,-25.874,94.722,-3.139691014,8.163767259,7.490291561,2.5
-5.19046,4.76653,8.14421,-9.04413,3.78462,-0.2251,0.97692,2.37153,5.73295,2.1857,-2.24266,-0.13724,7.651,-37.502,33.908,226.879,-22.701,91.426,-5.222416326,5.292352526,7.791419141,2.5
-3.14487,10.08472,3.8671,-8.63994,4.49995,1.12791,4.17727,5.86932,3.66993,1.79529,-2.02534,0.47902,12.776,-33.502,38.158,233.333,-23.42,86.098,-3.068138803,10.36183695,3.124917029,2.5
2.51541,13.97136,0.3306,-8.43676,4.79101,1.42749,10.12497,9.83879,-0.70995,1.19287,-0.75821,-0.58038,14.276,-30.502,40.346,240.573,-29.245,80.397,2.5228652,13.94491359,-0.900011164,2.5
1.5338,8.91481,0.79637,-8.80958,4.23779,0.77647,9.554,6.11651,-0.30739,1.44055,0.45619,-0.99478,17.589,-24.252,46.283,251.455,-26.905,83.682,1.544451204,8.94774369,0.114622409,2.5
-0.49599,4.0089,-1.87219,-9.03287,3.80612,0.30169,7.38651,0.80919,-2.19698,0.94786,-0.03809,-0.37,20.901,-16.502,48.907,258.46,-23.363,87.696,-0.505841069,3.875956057,-2.131541729,2.5
-0.92812,5.1568,0.24352,-9.00438,3.87985,0.19569,6.60178,1.91229,0.07987,1.38142,0.15259,0.00391,20.901,-13.565,49.721,264.806,-22.99,87.743,-0.927282861,5.161673352,-0.102808884,2.5
-2.14046,3.73779,-5.12546,-8.9479,4.0129,-0.04628,5.28635,0.40706,-5.08704,0.1846,-0.97073,0.20311,21.651,-9.502,48.907,270.072,-23.913,90.825,-2.13631927,3.369819916,-5.376191684,2.5
-5.04106,0.86827,-0.20932,-8.71189,4.40038,0.95391,2.12803,-2.75283,-0.9943,-2.95633,-0.56752,1.19168,22.026,-15.752,47.658,264.758,-25.651,86.288,-5.043846145,0.856091691,-0.191615927,2.5
4.05811,9.80176,9.8931,-7.45481,5.55866,3.11407,10.07082,5.218,7.26316,-3.01865,-0.30228,2.55415,14.651,-32.751,33.533,234.227,-34.529,67.328,4.589550819,10.69119202,8.66317609,2.5
7.60179,11.43778,7.73529,-6.30722,5.44319,5.1731,13.23376,7.62799,2.87284,-3.42612,-0.51532,0.03534,9.464,-39.752,28.471,218.175,-35.783,54.174,8.268279458,12.05195787,5.901745528,2.5
2.9843,6.64436,12.06166,-5.94702,2.41866,7.41306,9.67925,5.15972,5.23053,-3.0325,-1.06075,-1.73779,10.963,-41.939,10.909,200.609,-14.278,38.738,4.515572294,7.126952125,11.28509497,2.5
3.90285,5.53528,6.14229,-3.71403,0.77723,9.0428,6.91358,4.90523,-1.18815,-1.3089,-3.77504,-0.24429,11.713,-41.252,4.095,199.912,-6.078,28.607,4.819740048,5.608733249,5.37694211,2.5
4.64424,4.33041,10.88945,-0.42217,-1.20067,9.72371,5.1129,5.37563,2.55853,-1.9209,-2.493,-1.61955,12.776,-36.064,-3.154,194.266,3.847,7.443,6.416718336,4.12099487,10.03716416,2.5
3.53314,5.56235,8.18344,2.69414,-2.49299,9.09379,1.34621,7.58601,0.80165,-1.65298,-3.31218,-1.59612,11.339,-32.002,-11.717,198.941,13.579,-12.68,4.782133521,5.229892587,7.756992235,2.5
5.7052,4.99721,8.54289,4.89889,-3.16419,7.88411,3.20239,7.73208,2.34826,-2.26231,-0.27138,-4.06273,10.213,-23.126,-20.654,206.225,18.554,-26.479,6.82309915,4.56569927,7.943682556,2.5
1.32704,3.43716,6.57245,6.48786,-2.15426,7.03116,-3.50753,5.6151,2.3993,-0.76189,-1.87886,-3.19455,15.025,-15.002,-25.342,234.88,12.69,-42.699,2.121588427,3.195635946,6.485289236,2.5
3.14072,3.49069,6.70898,8.12176,-0.60202,5.46306,-4.92029,4.98442,1.70853,-0.9483,-1.34731,-2.51598,11.339,-11.314,-27.092,247.048,7.215,-52.28,3.765176009,3.423467665,6.415821865,2.5
-3.56592,10.80589,5.03629,8.32788,0.26515,5.1717,-10.40572,10.28001,0.32067,-2.06737,-0.05887,-0.95963,9.088,-5.814,-31.779,259.796,-1.549,-58.159,-3.097428513,10.83047349,5.287158183,2.5
-1.5988,8.3965,8.19356,7.83888,0.20265,5.88908,-7.96637,8.52792,4.46849,1.75214,1.01386,1.55388,9.464,-2.127,-30.904,266.657,-1.184,-53.084,-0.749678327,8.42585457,8.284609606,2.5
-1.53226,7.15413,7.79477,7.13416,0.16561,6.72657,-7.07848,6.95222,2.92102,1.57051,1.01653,1.44894,11.339,-8.752,-26.654,252.157,-0.891,-48.362,-0.608700718,7.176994081,7.899878196,2.5
5.29923,6.71419,5.51663,6.97331,0.82764,6.84532,-0.57371,6.02175,0.77307,2.16547,-0.38057,0.39061,10.963,-15.752,-24.092,238.278,-4.037,-45.219,5.918978454,6.78348336,4.748203878,2.5
-0.08165,6.27635,4.04982,5.13739,2.35478,8.01452,-4.11829,4.42612,-2.24749,0.20432,2.24051,-1.30264,18.713,-15.065,-21.092,244.761,-12.958,-35.155,0.48379005,6.436287971,3.760375302,2.5
0.23135,8.35239,3.65201,3.52798,3.01112,8.64042,-2.53689,5.94098,-3.41531,0.62828,2.02107,0.72563,25.713,-15.065,-15.092,247.307,-16.795,-25.306,0.777376378,8.528694661,3.132119397,2.5
4.24585,7.87715,3.364,3.15617,3.42465,8.63022,1.89281,5.11769,-3.65974,0.7428,0.97604,1.25346,26.088,-19.44,-12.529,239.801,-19.843,-20.457,4.702567176,8.023700413,2.213441661,2.5
1.4624,5.57423,4.84563,2.00724,3.26004,9.02849,0.09656,2.96132,-2.2056,-0.04283,1.41547,0.89447,29.776,-20.189,-9.154,235.761,-19.944,-15.277,2.204685044,5.824304912,4.231739606,2.5
1.64958,9.21497,7.99435,1.89313,2.52215,9.28575,0.18845,7.26835,0.82752,-1.98534,-1.17099,0.92163,27.901,-21.689,-9.154,236.963,-17.073,-10.469,2.917919564,9.541516551,7.210521862,2.5
6.23688,7.19446,6.189,2.84289,2.04214,9.16068,4.53797,6.10313,-1.33362,-0.98506,-0.38803,-0.28052,24.213,-21.315,-12.529,234.025,-12.019,-17.241,7.142645433,7.372237233,4.85750782,2.5
4.61755,6.36819,4.74034,3.52454,1.78696,8.97523,1.87303,4.97671,-2.24858,-0.40396,-1.68498,-1.27228,23.901,-18.376,-15.529,239.555,-10.378,-19.781,5.300540798,6.488638943,3.761418231,2.5
1.11327,5.31393,7.43573,3.9949,1.73712,8.78599,-1.83612,3.96142,0.74098,-0.93712,-1.20721,-2.40572,19.838,-8.752,-24.092,257.082,-10.203,-24.451,2.235971647,5.52909365,7.014047119,2.5
-0.91728,6.21855,6.81358,4.77236,1.90889,8.35171,-4.63036,4.73336,0.31564,-1.01436,-1.39311,-1.94232,20.151,-2.127,-23.216,261.454,-11.044,-28.585,0.082115125,6.444092395,6.663600335,2.5
-1.38852,6.50691,6.46312,5.88636,2.28669,7.50281,-5.79846,4.66987,0.16044,-0.39064,-1.82082,-1.02248,12.463,2.31,-26.216,278.178,-12.893,-36.366,-0.532711053,6.764631208,6.32422084,2.5
-0.94537,7.10924,4.85153,6.92482,2.71991,6.389,-7.47038,5.16337,0.2282,-0.08597,-1.75797,-0.11008,3.963,2.31,-27.092,284.879,-16.102,-47.305,-0.39962912,7.335015729,4.583688687,2.5
3.19736,8.85699,5.69031,8.09662,2.72561,4.8152,-6.44268,5.95024,2.31615,0.46158,-2.06209,0.61963,-4.536,3.061,-25.342,283.098,-16.137,-59.259,3.663732653,9.103843351,4.974546212,2.5
1.31256,7.93059,7.97249,8.43239,2.82421,4.13389,-0.77879,6.45518,1.30881,-0.29742,0.80347,-0.80835,-7.474,3.436,-26.216,289.596,-16.738,-63.884,1.883861536,8.308092648,7.456831134,2.5
1.21201,9.32623,7.04558,8.60768,3.09649,3.53411,-9.15595,6.98194,4.23428,1.98064,-0.32784,1.21512,-7.849,1.936,-25.342,289.801,-18.406,-67.678,1.644014204,9.688439778,6.44353038,2.5
0.46809,8.98734,6.79242,8.47984,3.27175,3.68216,-4.63928,7.17057,2.96778,0.13933,0.91533,0.20738,-6.036,-1.003,-25.78,281.897,-18.721,-68.619,0.903343885,9.357831083,6.224413645,2.5
0.16505,7.59384,3.30293,7.84269,3.48756,4.74337,-3.76889,4.73462,-2.47032,-0.76401,2.4003,-0.24696,-2.661,-0.627,-27.467,281.784,-20.654,-60.918,0.437613657,7.779181356,2.809951202,2.5
-0.02852,5.83145,2.71301,6.25223,3.43818,6.72748,-4.75552,3.08509,-2.19511,-0.54031,2.24158,0.0316,7.651,1.936,-25.78,283.982,-21.05,-47.2,0.289497666,5.982737465,2.343093954,2.5
-0.85251,6.08403,6.65526,5.36462,2.98073,7.64895,-5.38925,3.62655,0.53134,-0.16428,0.2016,1.47664,14.651,3.436,-32.591,285.144,-17.695,-35.044,0.040912099,6.424694292,6.384066844,2.5
1.88934,5.95728,7.35101,4.9947,1.62385,8.2817,-1.91886,4.71917,1.03664,-0.81567,1.14915,1.11018,19.463,4.498,-25.78,284.146,-12.787,-34.102,2.928478641,6.153314489,6.830583599,2.5
2.73644,5.55083,7.21989,4.27355,0.10407,8.82589,-0.42151,5.44529,0.92533,-1.41756,0.00879,1.03722,21.275,8.186,-23.216,286.46,-3.578,-26.749,3.811803485,5.563016895,6.704448254,2.5
1.39215,6.46768,9.44273,3.73085,-0.95635,9.01868,-1.88397,7.28786,2.42571,-0.00502,0.62717,0.69261,24.588,11.186,-22.78,287.133,4.984,-23.78,2.855148887,6.314764214,9.214444846,2.5
0.55681,5.11595,13.01273,3.27232,-1.17421,9.16971,-1.67004,6.73424,5.1814,-0.74059,0.87325,0.66118,27.901,12.248,-19.342,287.596,5.951,-20.996,2.623394823,4.853439685,12.85986184,2.5
0.68037,1.47687,11.79689,2.44145,-1.63696,9.35575,-0.87851,3.20397,4.59153,0.41045,0.42636,1.62578,30.525,10.06,-18.529,285.126,9.504,-15.882,2.58906987,1.146914083,11.56684777,2.5
2.25945,2.38124,8.25221,2.15089,-0.77007,9.53683,0.58788,3.03824,0.75672,1.11032,-0.0498,0.65266,34.213,1.936,-17.216,271.985,4.504,-12.71,3.595462416,2.276680434,7.795111567,2.5
3.62349,2.96834,8.47403,2.46707,0.25649,9.48779,1.18456,2.32412,3.04504,2.53085,-1.38991,0.76237,30.901,-1.376,-18.967,272.174,3.598,-12.685,4.970761173,3.003052225,7.747458762,2.5
7.35551,4.18776,4.64626,4.5954,1.74817,8.48508,3.77276,2.65777,-1.84052,1.65308,-2.01895,0.86092,26.463,-11.69,-21.967,260.64,-8.557,-24.568,7.960563483,4.2928916,3.380695772,2.5
6.84517,5.00366,5.48456,5.06838,2.51422,8.01003,2.90062,3.04693,-0.74939,0.92549,-0.20641,-0.16121,22.775,-16.876,-21.092,246.749,-12.165,-31.15,7.542640646,5.195246232,4.253393092,2.5
4.52002,5.84326,2.2242,5.07722,3.21171,7.75095,1.03297,3.21314,-4.05721,-0.13071,-0.21706,-0.72899,23.151,-16.127,-27.092,246.148,-18.724,-33.133,4.77869564,5.923402408,1.264399368,2.5
3.97871,6.83771,2.52975,5.23125,3.46618,7.53591,-0.19991,4.0063,-3.12618,-0.03751,-0.69643,-0.27573,24.963,-15.002,-22.78,246.435,-20.073,-33.393,4.276115956,6.945279989,1.569064871,2.5
5.10709,7.76559,3.20491,5.73937,3.37643,7.19929,0.59762,5.14073,-2.47491,-0.84657,-1.0144,-0.6933,22.775,-13.19,-24.904,252.769,-20.139,-38.562,5.46846947,7.901682689,2.077849072,2.5
7.20248,7.36685,3.97917,6.26787,3.08022,6.88451,2.21049,5.15114,-1.2712,-1.42821,-1.05595,-1.00436,20.526,-9.502,-28.78,258.394,-18.306,-42.316,7.627525633,7.522091086,2.686817705,2.5
4.52837,6.40646,8.31905,6.33802,2.7944,6.94199,-0.67566,4.18379,2.06381,-1.26309,-1.98752,-0.80782,16.151,2.31,-33.905,279.795,-16.556,-42.396,5.500649736,6.774757632,7.389246849,2.5
5.71625,7.06491,7.09584,7.50771,2.66262,5.71972,0.20013,5.03145,2.85701,-1.28918,-1.55023,-1.21262,9.088,10.435,-38.155,291.887,-15.377,-49.812,6.394978114,7.358812193,6.155611319,2.5
3.21265,5.91602,5.88791,7.48244,3.13087,5.51191,-2.05113,3.53815,1.84562,-0.60742,-0.24049,-1.38838,0.276,16.31,-38.593,303.377,-17.011,-53.933,3.76334518,6.21042785,5.2207007,2.5
2.60919,6.02429,5.49388,7.40449,3.73504,5.23387,-3.22142,3.08316,1.37251,0.03653,-0.66553,-0.45842,-2.35,18.561,-40.216,309.093,-21.185,-53.557,3.099470308,6.3523829,4.829407336,2.5
2.98428,7.09522,5.00864,7.22125,4.17666,5.15552,-2.74578,3.81893,0.91283,0.17288,0.35446,-0.42166,-3.036,15.561,-40.654,312.592,-24.874,-54.722,3.422280667,7.420158942,4.190916955,2.5
1.44698,6.68617,5.62309,6.58402,4.63502,5.59801,-3.74371,3.39206,0.81725,0.33693,0.73422,-0.2981,-0.85,16.31,-44.467,311.629,-27.068,-51.608,1.988602333,7.105122532,4.896984389,2.5
0.67188,7.49779,4.53206,6.07378,4.97494,5.87619,-4.09324,3.3712,-0.46125,-0.08064,0.4791,0.27875,1.714,13.748,-46.654,308.189,-30.607,-46.342,1.132338291,7.854533901,3.772526031,2.5
4.3053,9.6618,5.38174,6.34006,4.67792,5.83876,-0.86808,5.70963,1.67126,-0.17758,0.23622,0.25584,4.338,14.499,-40.654,306.497,-28.919,-47.262,4.83044547,10.03052454,4.111506635,2.5
-0.47372,8.16872,6.47594,5.70882,4.48106,6.59544,-4.08149,4.78115,0.25284,-0.80876,0.58722,-0.35667,6.902,18.561,-39.029,311.912,-27.361,-41.918,0.273229545,8.650614991,5.829442671,2.5
2.63994,5.92163,4.26065,6.02267,4.30483,6.43167,-2.89837,2.69084,-0.98162,0.59207,-1.17685,1.24442,8.713,18.874,-38.593,312.867,-26.36,-41.465,3.100595225,6.200529779,3.482508176,2.5
7.39903,3.34534,1.66254,7.40191,3.65291,5.29512,1.64863,0.23723,-2.40652,0.3103,-1.21947,1.72537,3.214,16.685,-37.717,305.542,-23.466,-51.471,7.520883936,3.400511021,0.757504804,2.5
8.45934,6.33661,7.28444,8.42288,2.38426,4.42049,1.95157,3.28679,2.8306,0.14944,-0.69482,1.21086,-0.099,17.81,-38.593,302.521,-15.372,-61.22,8.995628307,6.606139964,6.341428213,2.5
6.00113,7.08598,5.58176,8.48705,2.09346,4.44498,0.01577,5.60984,1.08722,-0.17651,0.66286,-0.48824,-0.85,18.185,-39.404,301.398,-11.977,-63.021,6.415676182,7.267547209,4.837620822,2.5
6.26085,5.47629,2.68103,8.16589,2.92358,4.57616,-0.25207,3.14451,-0.96881,0.60698,-0.04767,-0.7551,-1.224,17.061,-38.593,303.535,-13.977,-60.891,6.454795254,5.579992266,1.890825556,2.5
5.26396,4.08809,0.77245,8.44822,3.28324,3.74411,-2.0212,1.55492,-1.2934,0.91591,-1.50229,0.88489,-0.85,14.124,-40.216,299.625,-19.932,-62.117,5.303166243,4.105838538,0.192227554,2.5
7.06201,7.31291,1.54543,8.97406,2.83692,2.75472,-0.5805,2.95892,-0.9225,-0.38158,-0.26765,0.20738,-11.162,12.997,-40.654,295.303,-16.815,-72.935,7.128123387,7.363549633,0.840824343,2.5
6.42241,7.41623,2.32541,8.97765,2.75608,2.82423,-0.97801,5.46514,0.35341,-0.31128,-0.09721,0.06517,-11.911,14.873,-41.53,300.121,-16.322,-72.537,6.529187277,7.504115057,1.647215836,2.5
6.53482,5.31453,2.01765,8.72075,2.97139,3.36002,-0.47762,2.86467,-1.66233,-1.65457,0.08069,-0.59583,-10.411,19.247,-40.216,306.863,-17.638,-68.929,6.641840548,5.391940675,1.353492876,2.5
9.03758,5.19547,4.0112,8.67954,3.0705,3.37757,2.26331,2.89354,1.31685,-1.08147,0.38376,-0.67253,-17.099,24.811,-40.654,316.152,-18.246,-68.737,9.258203704,5.373976059,3.188499915,2.5
6.36319,4.80217,5.90324,8.53717,3.07517,3.71893,-0.48248,2.37637,2.67225,-0.217,-0.31985,0.05878,-18.161,27.373,-40.654,319.891,-18.551,-66.423,6.732686814,5.089132542,5.212573685,2.5
6.06775,5.17819,4.88083,8.49785,3.08804,3.7975,-0.59073,2.73729,2.29621,-0.27452,-0.11691,-0.09995,-16.724,26.999,-40.216,321.433,-18.329,-66.334,6.37768667,5.411377022,4.182804645,2.5
4.39072,5.37996,4.04852,8.30564,3.29681,4.03953,-2.3041,2.72254,0.79243,-0.19409,0.21651,-0.22511,-20.036,27.373,-40.654,323.954,-19.224,-64.775,4.665008982,5.585514492,3.413594142,2.5
4.1627,6.60696,4.96213,8.12121,3.40326,4.31672,-2.33423,3.93735,1.40894,0.00191,0.05511,0.08966,-19.661,26.999,-42.342,323.987,-20.257,-62.161,4.524389589,6.870440571,4.234344231,2.5
5.08725,7.43086,6.54007,7.97454,3.35971,4.61405,-1.35065,4.71854,2.81511,-0.03697,0.46205,0.07901,-17.787,28.873,-41.092,322.934,-20.162,-60.757,5.596868506,7.776140372,5.663657153,2.5
5.4025,6.07954,4.33885,7.85397,3.39757,4.78979,-0.9565,3.32869,0.46078,0.183,0.12703,0.20685,-14.099,27.748,-44.467,321.674,-20.214,-58.644,5.745928425,6.298359492,3.505482339,2.5
4.67802,5.13019,5.97314,7.87207,3.1495,4.92764,-1.69918,2.57876,1.98124,-0.47214,-0.22078,0.33148,-15.974,30.31,-44.092,322.707,-19.458,-57.9,5.173808269,5.427324334,5.258990453,2.5
6.90166,3.5172,6.65569,8.09341,2.4122,4.98481,0.22262,1.71907,2.34311,-2.01091,-0.06631,-0.05734,-20.412,38.811,-47.029,328.428,-14.24,-58.371,7.453880328,3.767911018,5.87744252,2.5
8.92139,4.67954,12.86594,8.19733,1.53806,5.15835,2.73603,3.54718,9.31826,-1.40105,-0.79123,-0.02591,-19.661,47.311,-37.279,330.581,-10.581,-57.103,10.04201789,5.000260674,11.88179179,2.5
10.98109,3.7562,5.62738,8.50633,2.288,4.3102,4.89736,2.03692,2.01303,-0.65535,-0.91321,-2.04459,-27.037,43.999,-32.591,338.931,-9.445,-59.886,11.37296587,3.944281391,4.632393907,2.5
4.41663,3.12247,5.52615,8.20013,3.91526,3.6877,-2.48997,-0.23148,2.06861,0.15851,-1.00908,-2.035,-39.224,35.498,-26.654,348.238,-21.348,-64.977,4.762916636,3.472335978,5.005225394,2.5
1.47633,1.90459,2.11798,7.68898,5.34672,2.90906,-4.88696,-2.45371,-0.31392,0.04185,-0.81946,-1.42461,-46.599,24.435,-23.654,354.699,-28.588,-67.507,1.581916878,2.086425908,1.853973716,2.5
4.78931,7.65222,5.87798,7.31518,5.92221,2.75426,-5.03482,0.26249,1.78013,-0.78159,-0.08656,-0.74071,-49.911,22.249,-19.405,357.853,-37.15,-69.368,5.066228594,8.193412617,4.821403075,2.5
2.06195,8.60016,4.3643,6.44436,6.52639,3.47086,-1.70437,3.70167,3.51751,-0.29263,0.28256,-0.33058,-52.1,17.436,-21.092,5.202,-41.066,-63.396,2.322386524,9.025379295,3.226538971,2.5
5.72588,8.65344,4.05504,6.30908,6.92999,2.88812,0.48942,2.84041,1.8181,0.27835,-0.47218,-0.35509,-51.787,13.748,-23.216,0.836,-44.964,-65.403,5.922923892,9.044056394,2.689812544,2.5
5.99426,8.30933,4.09108,6.36591,7.04644,2.44812,0.91191,2.90217,3.09603,0.45412,0.31026,0.1147,-55.475,10.811,-19.405,2.326,-45.934,-68.965,6.163538637,8.716570592,2.783027513,2.5
4.36368,7.18651,2.94519,6.67597,6.76995,2.402,-1.38478,1.65134,1.4573,0.56331,1.4682,0.60258,-51.411,9.686,-22.78,354.929,-45.11,-69.963,4.483280453,7.461726258,1.893306869,2.5
1.05495,4.56215,3.86574,6.4644,6.68933,3.10398,-4.12215,-0.8204,1.23256,0.43228,1.63864,0.52483,-44.037,8.936,-31.342,348.251,-43.01,-64.351,1.26272515,4.974081697,3.245630037,2.5
3.44165,3.80827,0.95927,6.87072,6.37402,2.88713,-2.38309,-1.28915,-1.65374,0.89354,1.15607,0.79541,-38.474,5.998,-37.717,335.274,-41.065,-66.509,3.485598608,3.87184487,0.357062595,2.5
4.11644,8.82964,4.80701,7.02983,5.84639,3.54563,-0.37985,4.84606,3.94072,-0.25694,0.17284,1.11232,-32.912,7.123,-45.779,323.688,-37.468,-63.517,4.40584267,9.246495205,3.620199268,2.5
7.83664,9.51669,4.5943,7.4739,5.37019,3.38708,1.41784,4.92557,1.17468,0.73215,0.43701,0.438,-32.224,6.747,-45.341,319.177,-33.282,-65.527,8.094387963,9.860818125,3.214507262,2.5
3.59195,6.94635,2.61711,7.08144,5.39898,4.10788,-2.12122,2.48808,-0.87698,-0.40182,1.15341,-0.09622,-24.474,4.874,-47.467,313.716,-33.408,-61.096,3.770197828,7.136936091,1.689052825,2.5
2.56958,5.89618,3.96452,6.8228,5.25942,4.68597,-3.0944,1.53004,0.07444,0.71777,0.58722,0.80232,-18.536,5.247,-47.467,312.21,-32.889,-55.907,2.884870428,6.214308346,3.185120594,2.5
6.64764,6.48509,7.98782,7.04476,4.7286,4.91752,0.77635,2.54415,3.88943,0.75879,0.05992,1.07397,-11.162,1.186,-46.217,302.962,-29.657,-54.612,7.307899755,7.072101495,6.828818334,2.5
6.30585,4.93265,6.7861,7.20306,4.35522,5.03174,0.28436,1.29184,2.57975,0.66611,0.39174,0.95839,-7.474,-1.003,-43.654,292.304,-26.888,-54.951,6.87674162,5.389755396,5.814369693,2.5
8.84634,4.43802,3.3055,7.80055,3.87852,4.50322,2.38509,0.88357,-0.74181,0.21762,-0.24475,0.79274,-9.724,-5.814,-39.78,281.115,-23.297,-60.002,9.078562489,4.603771937,2.294574091,2.5
6.78372,4.5218,4.91389,8.01507,3.54328,4.40162,0.05263,1.54614,1.21739,0.67889,-0.38324,0.58395,-9.724,-5.44,-35.591,281.904,-21.443,-60.305,7.140839515,4.783774818,4.090935922,2.5
10.17671,5.76103,4.0405,8.47056,3.27429,3.70122,2.05868,2.77884,1.34362,0.55692,-0.84396,0.50832,-13.037,-5.064,-36.467,274.273,-19.759,-65.514,10.41631261,5.944399489,3.040572273,2.5
6.00957,4.90486,2.43675,8.44779,3.47538,3.56749,-1.12584,1.96939,-0.57651,-0.42101,0.17976,-0.4435,-11.911,-8.002,-30.029,274.281,-20.504,-67.483,6.149549558,5.020600196,1.756971167,2.5
5.94127,3.98285,1.05507,8.61243,3.15228,3.47269,-1.50743,1.31773,-1.59268,-0.53392,-0.36938,0.59779,-11.537,-5.814,-27.904,274.081,-19.341,-67.774,5.994269077,4.01494554,0.473187688,2.5
6.90176,3.97508,4.25398,8.70279,2.42961,3.81167,-0.2782,1.80391,-0.42742,-1.06761,0.29268,0.46411,-12.662,1.561,-24.966,284.597,-14.344,-66.347,7.169285449,4.131992602,3.613845768,2.5
9.22722,3.74095,5.13355,8.90761,1.67255,3.74533,1.17066,1.62034,0.70974,-0.54723,0.03435,0.37675,-13.037,4.123,-22.342,297.03,-11.004,-67.476,9.542845807,3.871278655,4.408733027,2.5
9.6209,4.2348,6.38641,8.97169,1.14049,3.79188,1.74107,3.18903,3.35411,0.45305,-0.2831,0.43161,-13.411,6.747,-16.841,310.697,-6.678,-67.089,10.02218777,4.34813389,5.650749014,2.5
8.7661,4.07904,4.93356,8.99206,1.29031,3.69436,0.87971,3.25018,-0.07723,1.02563,-0.27777,-0.13084,-13.037,8.936,-15.967,318.905,-7.561,-67.665,9.065773247,4.17615091,4.265514015,2.5
8.09883,4.42773,4.07649,8.9247,2.03995,3.51551,0.25868,2.65348,1.00263,0.89301,0.09187,-0.48824,-14.474,8.936,-17.654,316.744,-10.602,-68.776,8.333555209,4.552081475,3.412333933,2.5
5.7954,4.18387,4.41641,8.79376,2.48997,3.5553,-1.65151,1.79653,1.11382,0.47276,0.2751,-0.03923,-13.411,9.311,-18.092,323.515,-13.636,-68.517,6.058116225,4.355806032,3.862937774,2.5
7.60548,5.80095,4.04434,8.68514,2.58844,3.74683,0.24175,3.40882,0.34488,0.03067,0.77098,0.15572,-13.786,7.811,-21.967,313.903,-15.205,-67.22,7.853512901,5.954843812,3.273103,2.5
6.98009,4.19881,3.13066,8.46938,2.2478,4.40312,-0.25943,2.41762,-0.83877,0.38594,0.66339,0.89767,-11.537,7.123,-24.904,307.868,-14.017,-63.086,7.199840027,4.29698767,2.418862214,2.5
8.5979,4.07347,7.55095,7.91263,1.71872,5.53233,2.36382,2.47828,3.33266,0.29326,1.16406,0.85187,-5.287,5.998,-30.029,294.205,-11.548,-57.739,9.285818384,4.272195777,6.561692491,2.5
8.84486,4.68333,4.78299,6.95404,2.42695,6.4747,3.07159,2.63579,-1.15555,1.12897,1.98911,-0.64111,2.463,-1.376,-30.467,287.387,-12.247,-49.619,9.327796762,4.838141046,3.55340969,2.5
6.10152,3.68776,7.81059,5.50291,3.89708,7.12048,1.22324,0.34548,2.19054,0.76997,1.38724,-1.79532,10.588,-4.689,-28.342,273.291,-20.466,-40.53,7.022634415,4.154578579,6.727222233,2.5
2.76984,2.07697,5.65756,2.6979,5.44796,7.6949,0.31883,-2.27727,0.10648,0.67569,2.19577,-2.15538,22.401,-4.689,-23.654,278.678,-33.748,-19.321,3.502434062,2.564677695,5.014896522,2.5
4.12289,3.65559,3.85526,0.67267,6.16045,7.60044,3.56176,-1.82245,-2.60365,0.39606,0.90733,-1.29997,28.651,-3.627,-18.967,286.027,-37.583,-8.988,4.596580755,3.986046326,2.86486822,2.5
0.61441,6.14624,5.76065,-0.2084,6.15604,7.63087,1.40752,0.81616,-0.63129,-0.03751,-0.3273,-0.97932,30.151,0.436,-16.841,288.825,-39.351,-1.759,1.373928332,6.714330529,4.936490726,2.5
-0.64301,7.85053,5.72208,-0.02469,6.05231,7.71617,-0.62177,2.64465,-0.91496,-0.5957,-0.77844,-0.59903,27.588,3.748,-18.967,293.862,-38.615,0.489,0.131092529,8.413727225,4.896783802,2.5
-1.77979,7.73686,6.67654,0.16592,5.89631,7.83431,-1.92187,2.75568,0.10924,0.20432,0.11371,0.01563,25.713,4.874,-19.405,300.986,-36.815,-1.223,-0.853106382,8.400319077,6.025752267,2.5
-2.69585,8.65762,9.65068,-0.03389,6.03657,7.72846,-3.89323,2.4981,-0.64925,1.0251,-0.4594,1.56558,27.214,3.81,-18.092,300.269,-37.993,0.251,-1.373553628,9.653416622,8.960050988,2.5
0.42093,9.68375,8.3284,0.83619,6.46837,7.32335,-0.11658,4.10441,2.15573,-0.48811,1.91934,0.69847,27.588,0.061,-18.529,289.06,-41.269,-6.514,1.479108142,10.54664077,7.063642841,2.5
-2.84673,7.50388,8.46043,0.24799,6.26133,7.54352,-3.11908,2.12571,1.94818,0.40298,1.43997,1.67371,32.713,-0.627,-12.529,281.56,-39.678,-1.883,-1.711413606,8.414614827,7.890265098,2.5
-1.36998,5.48325,7.6808,0.6673,7.21573,6.60745,-2.17458,-0.7921,2.03914,2.05681,0.88443,1.77864,33.838,-8.002,-8.279,266.572,-47.375,-5.767,-0.4770786,6.417968191,7.037019591,2.5
0.71605,6.01973,5.26878,0.83173,7.9566,5.67196,-0.13227,-1.0248,0.70818,1.87997,1.44102,0.75012,34.213,-16.127,-1.03,249.618,-54.228,-8.342,1.233272587,6.677732869,4.289153999,2.5
1.12517,7.00902,4.6335,0.51973,8.7627,4.37211,0.67094,-0.64942,0.81236,1.27544,1.2301,0.06303,34.964,-18.752,7.095,239.437,-62.305,-7.473,1.475124642,7.617966662,3.413543961,2.5
1.47955,8.03188,2.06386,-0.35565,8.99668,3.88635,1.8833,0.34903,-0.9054,-0.18877,1.20773,-0.56866,37.901,-19.064,13.908,246.853,-66.833,0.685,1.616031248,8.239384055,0.678731193,2.5
0.92653,8.57382,3.58121,-0.92543,8.83485,4.15444,1.6761,0.73387,0.21955,-0.16054,0.91266,0.16797,37.901,-16.502,15.659,250.329,-64.47,11.924,1.183536809,9.010365531,2.146267902,2.5
2.6319,8.55388,3.76639,-0.78463,8.70837,4.44061,3.31836,0.93495,-0.11869,-1.13313,-0.19894,0.15358,37.151,-16.127,16.908,247.879,-64.1,11.522,2.915614858,8.99295555,2.215264042,2.5
1.29268,5.3297,4.41303,-0.57255,8.36614,5.08431,1.70869,-1.86554,0.0867,-0.14349,-0.87859,0.28142,36.026,-16.876,14.783,244.983,-58.697,7.429,1.678683441,5.895878275,3.460086519,2.5
4.29671,4.87827,3.81351,0.71772,7.87937,5.79404,3.67222,-1.97751,-1.22784,-2.05032,-1.5188,0.13867,37.151,-17.627,8.783,237.53,-56.672,-4.126,4.659743721,5.292865161,2.659785777,2.5
3.19475,7.08145,8.09094,1.31328,6.51451,7.21158,2.04355,1.37095,1.7694,-1.18959,-1.41441,-0.25175,35.338,-14.314,1.096,246.609,-42.622,-9.454,4.185163873,7.900920132,6.773221994,2.5
3.43227,5.3938,6.67354,2.28257,5.82133,7.55463,1.42983,0.2869,0.04606,-1.47188,-1.86768,-0.88345,35.275,-12.439,-4.404,249.993,-37.71,-15.038,4.279858073,5.991215757,5.585502712,2.5
-2.29504,4.9348,11.27341,1.61638,4.43494,8.59587,-3.71727,1.03255,3.70999,-0.64684,-0.83438,-1.12047,36.401,-1.003,-9.967,255.694,-29.493,-12.6,-0.584289681,5.808496943,11.073807,2.5
1.86871,4.96294,10.45393,2.66445,4.50131,8.29514,0.13497,1.20745,0.24032,-1.08786,-1.81335,-1.26749,37.151,-1.376,-15.529,268.942,-27.894,-16.095,3.357372407,5.738334074,9.654381157,2.5
3.85878,6.53976,13.44823,3.74445,3.76053,8.24669,-0.19811,3.24216,5.33184,-1.78773,-2.26875,-1.3788,29.776,10.435,-23.654,276.882,-23.353,-23.112,5.747832658,7.362280443,12.2993,2.5
4.44017,6.92271,8.98058,4.70192,3.30312,7.94681,0.24496,3.97556,1.89017,-1.2812,-1.35954,-1.5354,20.901,17.436,-27.467,296.863,-20.652,-27.811,5.639129566,7.388316583,7.867835555,2.5
1.38611,4.5367,7.14127,4.63965,3.45118,7.92044,-2.82433,1.63551,0.55622,-0.09236,-0.43491,-0.9969,15.776,23.311,-27.904,311.026,-20.204,-30.379,2.356939415,4.942764077,6.596560081,2.5
1.43404,4.67824,6.27972,4.67354,3.70303,7.78563,-2.45656,1.26822,-0.07658,0.35185,-0.12172,-0.61607,10.963,23.311,-31.779,319.267,-22.185,-30.975,2.271516513,5.057763869,5.71283825,2.5
0.46893,4.51677,6.58221,4.06434,4.40204,7.76361,-3.0523,0.57861,-0.29445,0.67941,0.84927,0.07475,11.713,22.56,-29.218,320.857,-26.672,-27.633,1.353798455,4.999167263,6.092795047,2.5
-0.56235,5.10938,6.12418,3.58716,4.8831,7.7109,-3.88637,0.74443,-0.80073,1.15399,0.92065,1.44522,16.151,19.247,-30.467,314.468,-29.864,-24.948,0.264445363,5.613853209,5.687029363,2.5
2.16982,7.24962,5.25168,3.67408,5.18578,7.46855,-1.16306,2.5132,-1.47698,0.94574,0.79495,1.6391,24.963,11.497,-29.218,296.1,-31.925,-26.194,2.834035973,7.665102672,4.249669744,2.5
3.19022,8.3064,6.75597,3.67098,5.15151,7.49375,-0.06359,3.64739,0.42465,0.35611,1.13956,1.31099,30.151,5.247,-28.342,284.093,-32.006,-26.651,4.044073358,8.836926017,5.511000317,2.5
5.26656,4.50421,4.99966,3.48806,5.06505,7.63866,1.77597,-0.6519,-2.67131,-0.0407,1.37978,0.85985,36.775,-0.627,-21.904,274.322,-31.437,-25.446,5.884405878,4.862302314,3.840956359,2.5
3.50244,2.37079,10.45546,2.61408,3.80741,8.65105,1.16825,-1.02897,2.73067,-0.99518,1.01706,1.12936,43.025,0.436,-15.967,272.225,-25.833,-18.383,5.035263668,3.016949407,9.63060284,2.5
6.69914,4.33749,9.90739,2.73318,3.85345,8.59366,4.24316,0.87485,2.1853,0.32309,0.00133,-0.17719,43.776,-1.752,-12.091,266.907,-22.815,-17.263,8.104349788,4.918758363,8.483749379,2.5
3.76303,1.99704,9.34935,2.67403,4.37423,8.35979,1.40809,-1.96958,1.46701,0.57661,-0.75021,-1.0182,44.151,1.561,-13.405,269.032,-25.225,-17.203,5.082336953,2.654998938,8.525241387,2.5
3.71599,4.73801,9.24181,2.56052,4.83591,8.13807,1.40686,0.35404,1.90694,0.18141,-0.616,-1.18013,42.714,4.874,-16.405,276.241,-28.671,-17.604,4.986831385,5.448059053,8.192590421,2.5
2.81,5.5769,9.19511,2.0322,5.44159,7.90124,0.96678,0.64135,2.02864,0.47169,0.08282,-1.51462,40.088,8.186,-18.529,283.88,-32.632,-15.65,4.04733858,6.378839006,8.153368928,2.5
0.65355,7.5081,5.2422,1.11199,6.17818,7.53419,0.04689,2.06314,-1.31644,0.35931,0.12863,-1.38519,40.839,10.435,-18.529,291.414,-37.908,-10.363,1.335253747,8.014569942,4.273537192,2.5
-1.6763,7.51231,4.44109,0.30065,6.31038,7.50061,-1.94936,1.781,-2.37124,-0.02472,-0.35074,-0.91222,39.026,13.748,-20.216,297.069,-39.875,-3.705,-1.082230988,7.974807744,3.768193353,2.5
-0.0249,5.16484,5.11319,0.12188,6.18615,7.60835,-0.13542,-0.44417,-1.78533,-0.44124,-0.54729,-1.49171,34.589,17.436,-24.467,302.632,-40.144,-2.118,0.652310172,5.681262452,4.485382102,2.5
0.53854,4.85683,5.15468,-0.0023,6.21404,7.58657,0.54062,-0.76568,-1.7097,0.18993,0.30812,-0.24536,30.901,19.623,-27.467,316.861,-39.171,-0.174,1.214367903,5.373671411,4.483136742,2.5
-0.88412,7.91237,18.27245,0.12293,6.26739,7.54156,-1.47004,2.07343,12.58346,1.81978,-1.07619,0.68248,31.963,19.623,-27.467,314.906,-38.867,0.452,1.52170212,9.855270508,17.25768704,2.5
0.87946,7.56169,8.19937,0.64668,7.07307,6.76194,0.88334,2.25773,2.07415,0.54573,-0.34009,-0.50528,27.588,12.248,-29.218,310.179,-46.158,-5.463,1.838772263,8.494001298,7.046497886,2.5
-1.33203,5.76401,5.43169,-0.06257,7.30381,6.54377,-0.90937,-0.87379,-0.15446,0.31616,-0.03223,-0.82646,25.713,11.873,-29.591,319.901,-48.14,0.548,-0.704344323,6.42257465,4.77030454,2.5
0.19063,6.35794,5.89552,-0.15894,7.53052,6.27984,-1.971,-0.90633,-0.89647,0.73268,-1.37765,-0.21553,22.026,11.497,-30.029,323.169,-50.166,1.45,0.834365325,7.068368538,4.955693456,2.5
1.42651,7.1196,1.03629,0.17436,8.06051,5.58285,2.01683,-0.31926,-3.7934,-0.24843,-0.60321,-0.85841,17.589,10.811,-31.779,329.386,-55.28,-1.789,1.520558951,7.174420988,-0.114524552,2.5
-5.31903,7.24135,7.63615,-0.1707,7.91953,5.7812,-3.23054,0.99344,0.01917,0.746,-0.31453,0.57436,17.589,13.748,-30.467,332.529,-53.859,1.691,-4.522787832,8.292882086,7.057798079,2.5
-2.55171,9.61964,3.53706,-0.52954,7.74353,5.99397,-1.87075,2.67552,-2.16091,-0.57973,0.9819,0.28833,17.963,14.124,-30.467,335.427,-52.15,5.049,-2.168406122,10.04179681,2.453532722,2.5
0.04189,9.15207,2.771,-0.14646,7.72376,6.04091,0.27708,2.01356,-2.55499,-0.36401,-0.35767,0.43002,20.526,15.936,-29.591,330.967,-52.224,3.484,0.333273502,9.438792339,1.496231601,2.5
-3.29597,6.74194,10.75169,0.16721,7.50893,6.30542,-3.52399,0.91024,4.06901,0.82483,-1.64931,0.97862,17.213,18.561,-28.78,332.466,-49.969,-1.519,-2.095190517,8.127969198,10.07284987,2.5
-1.29698,8.98279,6.14946,1.89615,7.83885,5.57919,-3.03398,1.8019,1.03856,-0.47905,2.17766,0.63509,11.339,11.497,-30.467,323.047,-53.745,-19.318,-0.692976399,9.750784343,4.962914467,2.5
2.71628,6.74527,11.7029,0.85794,7.1157,6.69337,0.34399,0.56031,5.99248,0.07541,3.21576,0.91525,23.151,16.685,-27.904,321.753,-47.355,-11.018,4.061807795,8.09389765,10.38389383,2.5
9.7097,6.16206,5.1563,0.76426,7.82058,5.86727,9.0004,-1.09615,-0.28906,1.79155,0.25806,0.95679,27.901,9.686,-23.216,306.412,-50.22,-5.119,10.18593386,6.667636499,3.259764129,2.5
3.37651,5.10541,3.87361,0.34177,7.9058,5.7924,3.06096,-2.19404,-1.47453,-0.42686,0.00612,-0.77054,31.963,8.56,-24.904,304.87,-54.058,-4.275,3.750211541,5.540089149,2.777446867,2.5
1.20218,7.01727,6.48457,0.39975,7.56632,6.22587,0.83369,0.04276,0.74566,-0.37306,-1.14597,-0.26187,26.463,12.248,-23.654,312.916,-51.125,-2.758,1.898330032,7.787816293,5.336967637,2.5
1.02878,8.65273,4.53133,0.79611,7.5398,6.21997,0.43515,1.7071,-1.11088,-0.13124,-1.21947,-0.65762,21.275,12.997,-27.467,317.907,-50.25,-7.294,1.513674858,9.154370228,3.219840129,2.5
0.81238,8.54025,5.29106,1.08111,7.56956,6.14031,-0.30555,1.49387,-0.24478,-0.00874,-1.75476,-0.90796,15.401,13.373,-27.029,320.786,-50.157,-7.708,1.373670407,9.147372342,4.003717785,2.5
0.07841,7.66968,5.3548,1.25319,7.53739,6.14717,-1.08002,0.70224,-0.32755,-0.41673,-1.70044,-1.34631,5.775,16.685,-30.467,331.954,-50.432,-11.538,0.651365547,8.300676063,4.263627833,2.5
-0.95114,7.13202,5.39679,1.33256,7.56744,6.09332,-2.18305,0.13613,-0.23631,0.00618,-1.46341,-0.91168,-2.35,16.685,-29.218,346.378,-50.31,-12.024,-0.372906885,7.789904739,4.480406623,2.5
-0.02316,8.56555,9.94949,1.71566,7.60539,5.94853,-1.61129,1.52548,4.44312,0.10045,-1.60776,-0.32259,-8.224,15.936,-26.654,357.434,-51.171,-13.029,1.008080756,9.800238689,8.677593519,2.5
-0.77406,5.75676,5.69861,1.81027,7.66724,5.8401,0.26223,-0.05486,0.9524,-0.25269,-0.83385,-0.1058,-12.662,15.936,-26.216,5.704,-51.429,-17.222,-0.190193982,6.472161077,4.928343308,2.5
2.85921,6.41837,3.98087,3.35406,7.31397,5.60594,-0.27639,-0.48947,-1.19936,-0.70169,-0.58138,0.80074,-15.974,16.31,-23.216,3.49,-48.229,-30.892,3.234410921,6.834955898,2.835462062,2.5
2.34262,8.46257,5.18842,3.78681,6.90763,5.84081,-0.22904,2.43372,1.84583,-0.04869,0.44075,0.09659,-17.787,19.623,-21.529,1.575,-44.78,-32.957,2.858457462,8.993238265,3.869566903,2.5
1.27274,7.91626,5.84726,3.609,6.89895,5.96238,-2.21059,1.55359,0.19074,0.35558,-0.00932,0.07208,-16.35,18.874,-21.904,4.032,-44.708,-31.186,1.873241863,8.541627815,4.691380202,2.5
1.61618,7.79625,6.4908,3.63545,7.10597,5.69729,-1.89777,1.15413,1.16165,0.23308,-0.20853,-0.04243,-18.161,18.561,-24.904,5.024,-45.647,-31.695,2.252555914,8.515497433,5.285483121,2.5
1.68498,8.19307,6.75519,3.5763,7.24422,5.55894,-1.66583,1.4713,1.53292,0.46158,0.00293,-0.20435,-18.161,17.81,-24.53,2.606,-47.253,-32.805,2.331428916,8.954904186,5.474694128,2.5
1.09375,7.73084,4.14384,3.25031,7.78028,5.0073,-2.03446,0.48298,-0.59805,0.15211,-0.16272,-0.67946,-19.287,15.186,-22.78,5.509,-51.246,-33.524,1.451261351,8.205579928,2.94887854,2.5
1.51547,8.40932,4.56631,2.73541,7.98297,4.99602,-1.03526,0.96531,-0.0924,0.03813,-0.04341,-0.50049,-21.162,12.624,-23.216,12.44,-54.233,-29.213,1.907376667,8.94125406,3.206304615,2.5
0.92223,11.23239,4.98509,1.94863,7.85264,5.5416,-0.89663,3.90273,-0.18744,-1.22154,0.07697,-0.40248,-20.412,12.624,-23.216,19.206,-54.574,-23.578,1.399322391,11.79280193,3.292405667,2.5
2.55637,5.14392,0.82994,1.49955,8.27291,5.04784,2.53851,-2.53822,-2.34412,1.17636,1.08577,-0.25336,-21.162,10.435,-25.78,24.467,-53.846,-17.515,2.619479689,5.176982914,-0.144620222,2.5
2.46149,6.75948,0.29465,1.60204,8.26326,5.03213,1.36847,-0.98769,-3.94609,-1.22794,-1.05168,-0.04776,-19.661,9.686,-27.029,19.53,-58.906,-16.642,2.477847639,6.700457738,-0.89468357,2.5
0.09285,6.79317,4.8297,1.19215,7.66984,5.99356,-1.01291,-0.3148,-0.73595,-0.27826,-0.34648,-0.24962,-25.537,16.31,-38.593,21.892,-51.783,-11.527,0.596643898,7.372171813,3.844070847,2.5
-0.67357,6.81218,6.75746,1.30811,7.5997,6.05837,-1.85952,-0.35286,0.74591,0.02374,-0.20055,0.26277,-26.662,13.748,-37.717,24.018,-50.951,-11.736,0.043385253,7.650436301,5.83024019,2.5
-0.78493,7.28877,7.86115,1.46088,7.64784,5.96211,-2.23124,0.36192,2.09423,0.52548,-0.5638,0.44121,-25.224,12.997,-38.155,24.018,-50.951,-11.736,0.035859802,8.275319602,6.859866041,2.5
-0.78493,7.28877,7.86115,1.46088,7.64784,5.96211,-2.23124,0.36192,2.09423,0.52548,-0.5638,0.44121,-25.224,12.997,-38.155,24.018,-50.951,-11.736,0.035859802,8.275319602,6.859866041,2.5
3.28363,7.73125,6.88969,1.46088,7.64784,5.96211,-2.23124,0.36192,2.09423,-0.40555,-0.52545,0.14879,-36.6,18.185,-36.029,24.326,-51.248,-13.768,3.981505811,8.529035232,5.424523049,2.5
4.39453,6.9738,4.68524,2.27532,7.82092,5.46137,2.28004,-0.2943,-0.39009,1.10179,-0.32144,-0.18837,-32.912,17.436,-33.029,24.906,-51.342,-21.44,4.820497523,7.486678127,3.257254744,2.5
5.04489,7.35289,5.00209,2.38298,7.85691,5.36291,4.77295,0.56708,0.95187,0.02269,0.36778,-1.10609,-36.662,14.873,-33.029,23.005,-53.324,-24.607,5.490321524,7.900199894,3.461216844,2.5
2.46107,6.62202,2.78394,1.66887,8.27588,4.9895,0.87889,-1.10916,-1.97116,0.8179,-0.5148,-0.42433,-35.912,11.124,-31.779,30.899,-56.037,-18.047,2.693872361,6.921452446,1.579520209,2.5
0.43663,6.04308,5.07027,1.62646,8.33602,4.90263,-0.75725,-1.84423,0.1181,-0.43698,-0.20267,-0.31567,-38.849,11.124,-30.467,33.807,-58.672,-18.825,0.868351466,6.706213727,4.0853106,2.5
0.75557,7.40579,4.43831,1.71144,8.50357,4.57501,-0.76959,-0.30965,-0.26497,0.599,0.02103,0.42842,-36.662,8.936,-30.467,32.778,-59.228,-18.888,1.10718081,7.969670339,3.220824824,2.5
0.99924,8.05786,2.78674,1.80014,8.51122,4.52647,-0.5883,0.27503,-1.40583,0.30019,0.02477,0.53229,-36.662,9.311,-29.591,32.778,-59.228,-18.888,1.216051993,8.368606276,1.476873298,2.5
0.99924,8.05786,2.78674,1.80014,8.51122,4.52647,-0.5883,0.27503,-1.40583,0.30019,0.02477,0.53229,-36.662,9.311,-29.591,32.778,-59.228,-18.888,1.216051993,8.368606276,1.476873298,2.5
2.12755,7.86852,5.68524,2.14559,8.46313,4.46568,-0.74655,0.4937,-1.34257,-0.08917,0.3486,-0.04349,-34.787,12.248,-33.905,25.652,-59.655,-25.662,2.56375503,8.592631596,4.284375362,2.5
2.3226,7.90022,4.14786,2.43661,8.61299,4.00622,-0.17326,-0.16025,0.43527,0.39394,0.09613,0.39806,-35.162,12.624,-33.905,13.492,-61.436,-31.308,2.606714058,8.406487504,2.747489592,2.5
2.74191,8.74315,3.34016,2.68768,8.72642,3.57719,0.20447,0.65672,0.56633,0.46584,0.26978,0.47635,-35.536,12.624,-26.216,17.596,-62.766,-36.071,2.944971115,9.121754964,1.799484013,2.5
2.0549,8.96526,2.80067,2.76704,8.74827,3.46145,-0.50869,0.86019,-0.40627,-0.01833,0.64368,0.37408,-32.974,12.997,-23.216,15.489,-63.14,-38.987,2.220247137,9.267275847,1.276853298,2.5
3.04268,7.97847,1.88274,2.93759,8.68247,3.48649,0.09006,-0.03664,-1.49072,-0.27826,0.59894,0.33681,-28.912,14.81,-24.904,8.087,-62.886,-40.586,3.151543961,8.142794455,0.470387246,2.5
4.93744,8.51041,4.63829,3.11887,8.33547,4.11862,2.04702,0.7855,0.82135,-0.8519,-0.151,0.02309,-29.974,18.498,-24.467,8.993,-60.167,-38.398,5.257818527,9.039770753,2.99282731,2.5
3.49007,7.70682,4.24794,3.05337,8.18296,4.45943,0.68095,0.13995,0.08149,-0.67346,-0.84662,-0.47758,-30.35,19.623,-22.78,16.004,-56.556,-34.399,3.809795269,8.192527757,2.82641227,2.5
3.2897,6.62775,5.55277,3.0296,7.97271,4.84023,0.47856,-0.77007,1.06155,-0.78532,-1.31268,-0.76521,-34.412,20.749,-15.092,28.804,-54.924,-32.596,3.746497542,7.292618272,4.285315126,2.5
2.36449,6.99498,6.13092,3.05285,7.96302,4.84157,-0.30366,-0.48774,1.65592,-0.32353,-1.57047,-0.87227,-39.6,19.247,-8.655,41.53,-54.292,-32.233,2.873508058,7.746195892,4.883455626,2.5
1.51599,7.39133,5.7265,3.19784,8.08543,4.53543,-1.42916,-0.29349,1.792,-0.20155,-1.34782,-0.51009,-42.537,17.81,0.783,50.029,-55.536,-35.187,1.964069165,8.103902772,4.493548629,2.5
2.39964,8.67122,2.81131,3.70838,8.18707,3.92303,-1.04366,1.06937,-0.8313,-0.10408,-1.51189,0.14879,-44.786,15.561,5.908,51.786,-56.693,-41.181,2.586356823,8.958875169,1.378806159,2.5
3.60413,9.05547,2.26947,4.06978,8.03444,3.88009,0.07472,1.59323,-1.42048,-0.59091,-0.35555,0.25319,-43.661,17.436,11.407,51.777,-55.013,-46.367,3.749440714,9.248968995,0.734881563,2.5
4.20071,8.25975,4.90143,4.06321,7.33237,5.08891,0.90296,1.5923,0.28676,-1.06975,1.28604,0.04865,-42.912,18.498,11.034,55.707,-50.724,-43.159,4.61891625,8.767730915,3.418473036,2.5
3.25528,6.91431,5.97572,3.62033,6.88974,5.96616,0.07667,0.72904,-0.0393,-0.04337,0.54515,0.50246,-41.786,19.623,8.846,60.999,-44.633,-31.25,3.858770569,7.536750827,4.735085727,2.5
4.36101,5.80959,5.05261,3.78869,6.86119,5.89409,0.72826,-0.4213,-0.40227,0.29752,0.39601,0.26064,-41.412,20.374,7.596,57.119,-44.399,-32.733,4.856807537,6.314900572,3.851241788,2.5
4.69159,6.09099,5.16658,3.85214,7.1345,5.51637,1.12066,-0.57085,0.09264,0.72736,0.0386,0.06517,-40.724,21.498,6.72,52.09,-45.071,-33.115,5.166526456,6.626527695,3.898828016,2.5
4.65106,6.44357,3.49947,3.76966,7.43628,5.1635,0.87187,-0.9513,-1.12792,0.3412,0.26978,-0.52713,-39.973,20.749,3.72,49.963,-49.314,-36.132,4.947131594,6.786276617,2.206939605,2.5
6.77231,7.6022,6.82057,2.86254,7.81836,5.18165,4.86838,0.83445,0.13261,-0.64417,0.15686,-1.71756,-43.286,15.936,4.596,60.41,-52.868,-28.918,7.360624749,8.372361576,5.089456517,2.5
1.33386,8.3004,5.28821,1.48893,8.11689,5.29808,-0.05921,0.70608,0.33122,-0.47586,-0.20001,-2.05791,-44.037,7.811,5.47,71.536,-55.288,-20.692,1.81646029,8.943326172,3.918976481,2.5
-0.4705,9.02089,8.25276,1.67375,8.08599,5.29015,-1.93946,1.30384,3.37316,0.07062,-2.37048,-0.07864,-41.786,2.686,12.283,88.363,-55.443,-14.929,0.292403963,10.09318894,6.909986334,2.5
2.15747,6.30441,5.17387,2.5292,8.1761,4.78799,-0.47837,-1.39071,0.51854,0.18567,-0.29428,0.12163,-41.412,2.998,21.283,87.047,-56.402,-27.364,2.581798984,6.947959097,4.0285694,2.5
3.48167,6.72551,4.22015,2.62715,8.48818,4.14961,0.76723,-0.82587,-1.25005,0.21283,-0.16486,-0.05095,-39.973,4.498,20.033,82.45,-59.946,-32.338,3.777917458,7.235937734,2.921082259,2.5
2.5123,5.88472,5.0417,2.72151,8.60605,3.83401,0.24187,-2.34097,0.4432,-0.46733,-0.91479,-0.58891,-38.1,2.31,25.97,85.455,-61.234,-35.366,2.843796665,6.546074324,3.927091944,2.5
0.6508,6.74748,4.3055,2.56436,8.52288,4.11765,-1.23117,-1.55787,1.16116,-0.70383,-1.0421,-0.65921,-34.412,-4.002,29.846,98.21,-60.635,-32.581,0.958275377,7.302487193,3.20074153,2.5
0.30888,8.34076,4.51163,2.47908,8.17423,4.81732,-2.00186,0.7216,0.02143,-0.81035,-1.28764,-0.47865,-32.599,-7.689,32.846,112.589,-57.165,-27.339,0.686671541,8.891546687,3.238420787,2.5
-0.08185,9.59393,3.53101,2.52192,7.95528,5.15013,-1.21343,1.52097,-0.08759,-0.86575,-0.25061,-0.3423,-26.662,-12.439,35.345,119.997,-54.215,-26.09,0.235444271,9.989338183,2.162385847,2.5
1.73189,9.82079,6.51178,2.67868,7.58598,5.60785,-1.11138,2.65395,0.53891,-0.81514,-0.11638,0.15251,-25.537,-15.065,34.471,122.806,-50.674,-25.532,2.359927755,10.56802642,4.959656894,2.5
2.79822,8.52007,7.47815,2.87048,7.14376,6.07433,0.10753,1.82376,1.78429,0.0083,0.38962,0.39859,-24.849,-15.439,34.471,123.839,-47.027,-25.306,3.573836738,9.341864246,6.025082471,2.5
1.89359,6.17688,5.38864,2.90632,7.37336,5.77557,-0.83475,-0.74492,-0.03322,0.95479,0.48495,0.47849,-28.537,-14.314,34.471,121.897,-46.693,-25.336,2.426247895,6.789386248,4.335265413,2.5
1.52794,6.76157,4.84117,2.91539,7.62027,5.4408,-0.83644,-0.98636,-1.56373,0.50578,0.59042,0.22708,-29.974,-12.064,33.595,116.276,-50.991,-28.184,1.980082657,7.321726224,3.736569851,2.5
2.57867,8.60977,5.81891,2.85705,7.94607,4.98674,-0.40849,1.00441,0.94704,0.90952,0.83969,0.35918,-31.85,-9.502,32.721,111.209,-54.123,-29.81,3.074719394,9.297484519,4.329003844,2.5
2.41628,7.72255,5.76878,2.61715,8.36789,4.3931,-0.04738,-0.04863,1.80729,1.3532,1.28816,0.37143,-34.036,-6.564,29.784,103.615,-58.571,-30.784,2.851063632,8.450457164,4.383630928,2.5
2.73509,6.24812,3.17221,2.46581,8.63211,3.94676,0.6954,-1.96228,-0.34328,0.78328,1.30414,0.40605,-35.536,-1.376,26.408,93.994,-61.67,-31.996,2.946945262,6.624075083,2.004938912,2.5
1.05194,9.51872,8.05226,1.94184,8.71728,4.05077,-0.53675,0.93119,1.41891,-0.32939,0.99149,0.04865,-38.1,-1.003,19.096,89.126,-63.603,-29.918,1.618127132,10.61484325,6.423259818,2.5
3.679,10.37048,5.35494,1.95548,8.69361,4.09483,1.82488,2.16903,1.56988,0.23094,0.16805,0.33148,-38.1,-1.003,17.845,90.47,-62.437,-25.527,4.05199108,11.01895876,3.452708362,2.5
2.66174,6.06696,4.37784,1.8162,8.56977,4.40805,0.94865,-2.0163,0.22003,-0.19836,-1.26581,-0.33804,-39.6,-5.44,19.971,97.325,-60.998,-21.719,2.990343509,6.619166559,3.209801598,2.5
4.87856,4.92046,6.22397,1.93778,8.35184,4.76048,3.20641,-2.83712,1.23954,-1.02394,-1.28339,-0.71887,-37.036,-6.94,22.595,99.119,-59.81,-22.94,5.37826114,5.710391144,5.021435745,2.5
2.38937,6.0546,6.71149,2.52474,8.38524,4.41405,-0.20678,-2.04806,1.75484,0.31084,-3.59874,0.06357,-33.287,-10.626,32.408,110.5,-58.189,-24.869,2.898823034,6.938880642,5.555189342,2.5
2.62628,9.15999,9.17722,4.11247,8.21939,3.42048,-1.26458,1.24167,4.99134,-1.70251,-3.87463,-0.34763,-20.787,-12.502,45.659,110.468,-56.945,-50.249,3.16914385,10.35317061,7.602138907,2.5
2.02998,8.00598,4.784,4.51118,8.0584,3.29876,-1.96431,0.87007,1.49422,-1.99387,-2.86797,-1.20676,-8.224,-23.189,48.221,120.305,-55.441,-54.398,2.301899505,8.580073364,3.490958365,2.5
0.02544,9.19103,2.9142,4.45013,7.81361,3.91333,-4.16403,1.83509,-0.76991,-1.23112,-2.23306,-0.12233,3.963,-32.065,46.095,145.895,-53.53,-47.722,0.22426735,9.500725025,1.629162195,2.5
2.88155,10.80452,6.54678,5.16575,7.21148,4.18091,-1.99152,4.00163,2.60276,-0.87108,-1.19017,-0.10368,9.464,-40.128,39.658,153.688,-48.091,-50.487,3.351180802,11.51232327,4.912973769,2.5
2.57056,8.46025,5.04024,5.1934,7.23962,4.09717,-2.33604,1.62044,1.16933,0.44666,-0.314,-0.17932,12.839,-41.628,39.221,157.497,-47.153,-51.317,2.924106566,9.003202406,3.73892702,2.5
4.36302,8.22266,1.23613,5.03543,7.5851,3.64433,-0.39443,1.05627,-2.20702,-0.38158,0.16591,-0.91222,13.152,-40.128,40.909,153.331,-49.944,-54.915,4.432769072,8.276941836,-0.137442975,2.5
1.59439,8.28116,7.52455,4.10535,7.60613,4.63285,-2.12708,1.01327,3.25893,0.13135,0.67297,-0.14575,15.025,-41.252,36.658,164.826,-50.794,-43.857,2.196941909,9.183965723,6.210214406,2.5
5.40282,7.85097,3.2343,4.12336,7.97183,3.95199,1.50175,0.30891,-0.50463,1.92046,0.77364,0.55092,11.339,-38.315,43.033,163.498,-51.186,-41.225,5.612882756,8.170945525,1.737839688,2.5
5.52177,7.15268,0.80386,3.82463,8.34595,3.44787,1.90462,-0.74054,-2.45697,0.3934,0.32144,-0.33058,6.526,-33.878,46.471,150.531,-57.465,-48.033,5.560119659,7.145198272,-0.572867391,2.5
5.80969,7.22522,2.55215,3.71031,8.40535,3.42843,2.37377,-0.79412,-1.10556,0.21603,-0.02211,-0.64005,6.902,-32.376,47.72,146.741,-58.993,-47.261,5.951915206,7.469219966,1.120370495,2.5
5.05693,6.80306,1.93987,2.81349,8.83326,3.19816,2.50451,-1.53549,-0.99748,-0.02951,-0.40508,-0.87494,7.275,-32.376,48.596,152.101,-64.256,-41.339,5.157278419,6.976470467,0.590424544,2.5
3.06926,7.57724,3.31372,2.48471,8.88635,3.32106,0.89466,-0.97768,-0.80523,-0.31288,-0.57338,-0.57666,14.276,-33.878,47.345,163.187,-64.979,-36.803,3.25607258,7.969849002,1.922280272,2.5
2.67955,9.97151,4.04868,2.28731,8.94286,3.31117,0.46736,1.48203,1.0759,-0.0732,-0.20587,-0.50635,17.589,-34.251,46.909,168.508,-65.772,-34.636,2.908923104,10.45455073,2.289835174,2.5
-1.08765,10.21646,4.91153,2.28782,8.8501,3.55134,-3.25491,1.83273,1.54733,0.27356,-0.3598,0.4705,19.838,-35.315,44.72,173.249,-64.562,-30.484,-0.781326858,10.85937794,3.338503197,2.5
0.95918,9.14465,2.63512,2.74407,8.85576,3.19624,-1.8935,0.89515,0.80906,0.72096,-0.31239,0.71338,18.713,-35.689,45.221,166.302,-64.48,-38.454,1.104611691,9.432442936,1.139017373,2.5
1.06595,9.17749,2.87048,3.19104,8.81622,2.87435,-1.63434,1.02977,0.78641,0.39713,0.29321,0.3938,14.651,-34.627,45.596,155.472,-64.016,-47.326,1.208551602,9.500258163,1.373581231,2.5
1.78339,8.071,3.26871,3.50848,8.72145,2.79236,-1.55552,0.18761,0.11598,0.17076,0.83649,0.50671,10.588,-32.376,48.158,147.54,-63.01,-51.488,1.940512934,8.459551743,1.917388802,2.5
1.00839,7.77698,3.18549,3.78629,8.59485,2.82187,-2.55823,-0.38716,-0.30226,0.62723,1.44902,0.96851,3.589,-29.065,47.284,139.545,-61.215,-53.303,1.163992214,8.15770706,1.93456778,2.5
4.49315,9.67206,2.66357,4.50048,8.45163,2.118,-0.51686,1.59204,0.33145,1.4006,0.5526,0.9962,-3.412,-24.252,50.783,122.883,-59.522,-64.798,4.588519767,9.933827502,1.047045476,2.5
4.35727,8.14136,0.34723,4.63232,8.55446,1.23825,-0.04419,0.01323,-0.82931,0.88129,1.45221,-0.3407,-10.1,-14.314,52.47,100.946,-59.942,-75.106,4.363756082,8.088418629,-0.960848644,2.5
5.11026,7.41692,1.8652,4.34837,8.66862,1.45503,0.28205,-0.94204,-0.91878,-0.33737,0.87485,0.12003,-14.474,-13.565,52.032,101.909,-62.078,-72.435,5.155974063,7.593667092,0.597144996,2.5
4.54117,5.98215,2.46341,4.14575,8.57354,2.34043,0.60872,-2.15028,0.24339,-0.76242,1.3345,-0.11113,-17.85,-14.314,47.72,101.977,-61.307,-64.203,4.637979829,6.254590963,1.358663836,2.5
3.73608,7.01563,5.38484,4.24401,8.21773,3.26003,-0.28509,-0.77064,2.29598,-0.41354,0.24155,0.84068,-18.912,-17.252,42.596,111.836,-57.839,-52.692,4.036256864,7.681663498,4.107862744,2.5
5.87822,8.02296,4.9026,4.94904,7.65123,3.62437,1.18296,0.76409,1.46408,-0.90196,-0.52118,0.32616,-19.287,-16.876,44.72,111.948,-52.355,-53.979,6.176381191,8.553495625,3.412751421,2.5
6.91303,8.11551,3.53981,5.436,7.14765,3.94099,1.74623,1.32184,-0.20601,-0.97653,-0.5574,-0.14256,-17.474,-19.127,43.033,115.325,-47.336,-54.235,7.139970992,8.432729905,2.022775756,2.5
4.41097,7.63126,3.63087,5.26682,7.1049,4.23691,-0.23665,1.01276,-0.23488,-0.34644,-0.17072,-0.60808,-17.474,-23.877,41.721,116.988,-46.19,-52.752,4.667166367,7.980216577,2.325877033,2.5
4.93016,7.6676,2.81973,4.68115,7.49847,4.24619,0.1295,0.65759,-0.95983,0.24213,-0.03169,-0.99583,-14.099,-23.877,42.596,123.924,-48.037,-49.248,5.12540628,7.921355733,1.425404672,2.5
3.8277,7.22702,2.67925,3.61904,8.09648,4.18569,0.491,-0.47076,-1.29293,-0.00981,0.5771,-1.07573,-11.537,-26.126,41.721,130.593,-54.889,-42.498,4.013046666,7.491975517,1.351016376,2.5
2.52979,7.08226,4.72928,3.12358,8.26409,4.25659,-0.33177,-0.80274,0.14346,0.75505,0.03116,-0.36414,-10.411,-25.377,40.033,138.332,-57.427,-36.272,2.873834361,7.659622038,3.463466439,2.5
3.38673,7.40923,1.6765,2.87298,8.69999,3.49666,0.64775,-0.96448,-1.77293,0.02641,0.01944,-0.23683,-14.85,-25.752,42.596,130.339,-62.517,-39.408,3.48267548,7.545851072,0.32921821,2.5
3.48746,9.72107,4.66153,2.77079,8.75422,3.44336,0.8554,1.40517,1.39058,0.58195,0.11159,-0.05894,-11.537,-24.252,40.909,135.48,-62.925,-38.602,3.761143944,10.28412941,2.912373542,2.5
3.24735,11.42775,5.26958,3.42623,8.75387,2.79305,-0.02288,3.07245,2.6037,0.85732,-0.59735,0.53548,-13.037,-22.064,43.909,123.487,-63.091,-48.24,3.500271764,12.07157405,3.306421486,2.5
2.42566,9.99281,3.43727,3.34204,8.82328,2.67413,-0.78128,1.52622,0.87125,-0.33472,0.38055,-0.75722,-12.286,-22.064,44.408,118.378,-63.432,-53.82,2.583385937,10.38385732,1.748292695,2.5
-0.98032,8.07263,2.85927,2.9154,9.01052,2.54587,-3.77499,-0.56479,0.41881,0.95479,0.00984,0.31444,-11.537,-22.064,43.033,125.401,-66.328,-46.752,-0.852345881,8.427195371,1.599903758,2.5
2.33029,8.91241,0.37016,3.46468,9.07245,1.36276,-1.12285,0.1969,-0.76611,1.26372,0.45673,0.47955,-13.037,-15.439,46.471,101.323,-67.688,-68.529,2.338434196,8.850526101,-1.094639282,2.5
1.52539,8.2287,0.06226,3.60583,9.10202,0.56704,-2.34696,-0.2572,-0.18962,1.07677,0.70973,0.19139,-16.35,-11.377,46.471,85.297,-68.148,-81.063,1.525931458,8.132546527,-1.255155295,2.5
1.93602,7.84706,-0.47203,3.49098,9.15936,0.29928,-1.3889,-0.90226,-0.58087,0.53241,1.35262,-0.15961,-21.536,-9.502,45.659,74.501,-69.066,-85.1,1.933527987,7.670258419,-1.7250918,2.5
3.13776,9.0544,-2.22766,3.25007,9.23257,0.6059,0.03915,0.2521,-2.80532,-0.51474,1.61839,-0.468,-25.224,-7.689,41.783,70.545,-69.834,-83.084,3.11402759,8.57438743,-3.684138791,2.5
2.82578,9.09764,-0.8181,2.23983,9.31414,2.09769,0.71144,0.14371,-2.68391,-0.72354,1.42186,-0.70715,-27.786,-11.752,33.658,90.464,-71.736,-55.198,2.79394109,8.828635772,-2.381272221,2.5
2.47182,8.87802,2.83806,1.49694,9.18764,3.08494,1.04282,0.10736,-0.10687,-0.66016,0.91638,-0.4371,-29.599,-15.439,28.033,109.685,-69.959,-29.335,2.620972053,9.195373175,1.248733548,2.5
0.92882,9.23972,6.74123,0.94415,8.95364,3.88734,0.02592,0.67727,3.02373,-0.4407,-0.09775,-0.1058,-28.537,-18.002,25.096,122.692,-66.746,-15.361,1.383703865,10.16408948,5.143536034,2.5
2.66306,8.09396,5.29861,0.97821,8.8601,4.08805,2.0842,-0.20035,3.2451,-0.46468,-0.60002,-0.70769,-25.537,-19.502,23.784,128.086,-64.619,-13.457,3.03401924,8.782165043,3.787829112,2.5
-0.05595,6.87271,5.17207,0.6978,8.70597,4.45976,-0.7133,-1.0669,0.55775,-0.59038,-0.97232,-0.68372,-22.6,-22.44,25.908,134.304,-62.874,-9.28,0.34639416,7.574676145,4.061018791,2.5
0.17697,6.58176,4.19975,0.60639,8.58486,4.70138,-0.49392,-1.90634,0.10446,-0.06627,-0.8381,-0.52713,-20.787,-25.002,28.908,141.438,-61.188,-7.576,0.52059678,7.130656488,3.141894362,2.5
0.48558,7.88097,2.98294,0.59053,8.6241,4.63105,-0.57292,-0.67867,-0.71775,-0.03377,-0.76939,-0.29756,-18.536,-26.126,30.157,147.637,-61.009,-6.479,0.72483468,8.231819423,1.719061021,2.5
0.77138,8.87082,3.40216,0.53243,8.51855,4.82921,0.19189,0.68898,-1.26821,-0.37999,-0.42159,-0.36253,-17.099,-27.252,31.908,152.614,-60.302,-6.292,1.055055524,9.265509016,1.974428464,2.5
1.41446,10.05612,2.75594,0.50527,8.50656,4.85319,0.92907,1.87923,-2.1652,-0.24683,-0.47005,-0.53246,-13.786,-28.314,31.471,156.507,-60.161,-5.944,1.642549394,10.33399485,1.109970147,2.5
4.2981,9.68822,2.64746,0.27507,8.47682,4.92324,4.03513,1.58453,-2.05907,-0.10196,-0.85834,-0.80675,-10.1,-28.314,33.221,161.858,-59.626,-3.368,4.509450328,9.916827694,0.815905051,2.5
0.34181,7.53575,6.97855,0.08843,8.36361,5.11983,0.34932,-0.40423,2.14207,0.00191,-0.69908,-0.362,-7.1,-30.19,33.221,170.081,-58.695,-1.106,0.963205489,8.462183185,5.750496776,2.5
0.08568,8.12682,8.34213,0.97561,8.49648,4.79879,-0.84893,-0.01258,3.74503,-0.38052,-1.75316,0.08701,-4.161,-28.314,34.908,167.219,-60.337,-9.653,0.783255849,9.264787041,7.013836944,2.5
-0.45819,8.5892,8.49612,1.30209,8.27724,5.09533,-1.648,0.58574,3.52818,-0.47267,-0.74223,-0.18144,-2.35,-29.065,34.471,166.44,-57.57,-14.335,0.29818781,9.723880009,7.178132861,2.5
-0.79272,7.6109,6.15047,1.28271,8.06183,5.43434,-1.98184,0.02095,0.37774,-0.36401,-0.32465,-0.34444,-0.85,-32.002,33.595,170.477,-55.293,-13.281,-0.206676621,8.404887931,5.069282856,2.5
0.25566,7.39735,3.95587,1.26929,8.17647,5.26352,-0.89382,-0.50158,-0.96961,0.35239,-0.1819,-0.15215,1.338,-30.939,33.221,171.272,-56.488,-13.558,0.617480158,7.879059585,2.823861688,2.5
0.07524,7.44103,4.03885,1.1999,8.28722,5.10417,-1.13003,-0.59675,-1.83846,-0.00874,0.09134,-0.03604,-0.099,-29.814,34.096,170.939,-57.55,-13.469,0.434265311,7.942199006,2.901686826,2.5
0.2505,8.14682,3.84311,1.24609,8.38924,4.92323,-0.92423,0.05341,-0.55337,0.5388,0.1803,0.29953,0.652,-28.69,35.345,170.232,-58.811,-14.203,0.579395002,8.615141128,2.578093408,2.5
0.78114,9.87585,4.52304,1.42134,8.57771,4.53576,-0.58141,1.65292,0.17488,0.70338,0.37897,0.61272,-1.224,-27.565,36.595,165.127,-60.064,-15.468,1.136381574,10.42867178,2.924367545,2.5
0.21994,10.06204,2.67311,1.38232,8.61986,4.46738,-0.08863,2.15133,-2.98372,-0.58398,1.0341,0.06943,-4.536,-24.626,37.471,159.348,-61.52,-17.193,0.427484455,10.34523989,1.109868597,2.5
-0.04007,7.94887,3.41034,1.1828,8.4564,4.82292,-1.17545,-0.1685,-1.21922,0.35664,1.25514,0.84387,-8.6,-24.626,35.345,157.191,-59.426,-13.481,0.246801324,8.362683739,2.195715962,2.5
0.44759,7.43083,4.55898,1.60902,8.5705,4.48643,-1.09439,-0.78254,0.25949,0.33746,1.22052,1.06279,-14.099,-21.315,36.159,146.076,-60.766,-18.019,0.802835698,8.019960116,3.352247682,2.5
3.7751,8.25566,11.38518,1.83369,8.64958,4.24178,0.73649,0.28192,7.12842,1.18915,0.94196,0.59993,-18.161,-17.627,32.721,138.487,-60.682,-20.112,4.60686922,9.827309869,9.707232479,2.5
0.59076,7.15251,3.71451,1.3529,8.87401,3.94866,-0.70985,-1.3785,-0.08153,-0.34058,1.72865,-0.17932,-23.349,-14.69,32.346,130.289,-64.959,-23.051,0.845148465,7.632266955,2.517778072,2.5
1.88969,7.98125,5.36255,1.16409,8.8403,4.08221,-1.29815,-1.58834,0.27244,-0.62021,1.07191,0.19885,-25.537,-14.314,27.596,129.63,-64.351,-15.916,2.266643715,8.687794252,3.925911317,2.5
1.68465,7.76321,5.53053,0.47766,8.50212,4.86377,1.13649,-0.34979,1.07556,0.60059,0.92917,0.25266,-27.786,-14.69,23.721,132.785,-59.579,-6.113,2.147500361,8.471500306,4.161028956,2.5
2.65469,7.17262,4.79274,0.36519,8.5966,4.70484,2.29757,-1.12573,0.0692,0.45891,0.5249,0.39699,-29.599,-13.939,20.409,125.188,-61.236,-4.438,3.038858547,7.773478725,3.435488409,2.5
3.37854,7.5159,2.53687,0.46144,8.83811,4.22436,1.58034,-0.6498,-1.06459,-0.04976,0.31291,-0.05148,-29.224,-12.439,19.908,123.192,-64.321,-6.234,3.556232873,7.77713573,1.099255354,2.5
1.34752,9.66954,2.64304,0.66833,8.8941,4.07661,0.66996,1.14177,-1.25468,0.00404,-0.8152,-0.11859,-29.599,-10.626,21.22,119.965,-65.087,-9.31,1.532005076,9.946063631,1.015013845,2.5
2.81264,10.17867,5.14786,0.75027,8.91804,4.0095,1.57945,1.74665,1.99784,0.66025,-0.83971,-0.35081,-28.537,-9.502,22.533,118.656,-65.081,-10.299,3.165704153,10.82120953,3.300980289,2.5
-0.79944,9.5443,3.88178,0.36733,9.13446,3.54923,-1.15275,0.7584,0.46798,0.09192,-1.28925,-0.58252,-27.786,-9.877,25.97,127.607,-68.33,-7.324,-0.557600535,10.04617887,2.358888413,2.5
-0.2718,9.48821,5.83313,0.64908,9.14266,3.48725,-1.53316,0.74811,3.56834,0.2352,-2.30923,0.15305,-21.536,-11.752,32.784,138.098,-68.795,-10.544,0.083511865,10.29542542,4.257070699,2.5
-1.33246,8.18924,6.57014,1.09563,9.02564,3.67529,-1.50754,-0.11141,2.03334,-0.83752,-0.53503,-0.24855,-18.912,-12.814,33.658,127.922,-68.065,-17.293,-0.908560765,9.129822864,5.275101218,2.5
-1.79631,7.98337,2.39162,0.88435,9.03459,3.71005,-2.43734,-0.60846,-1.63876,0.09245,0.70546,-0.52925,-20.412,-13.19,31.534,137.628,-67.113,-13.407,-1.637789988,8.277349274,1.218156535,2.5
-1.86211,7.62683,2.34782,0.38309,9.09409,3.64983,-2.77356,-1.21073,-1.76367,0.19685,1.01865,0.29419,-23.724,-13.565,31.096,139.295,-68.024,-5.992,-1.708874448,7.92003244,1.225186731,2.5
-2.23999,9.28201,2.6893,0.07466,9.13026,3.57816,-2.31175,0.50649,-0.74983,0.21815,1.22638,0.37836,-25.911,-9.877,25.97,135.338,-68.383,-2.176,-2.067783819,9.612496396,1.315211943,2.5
-1.6769,9.5847,2.20792,0.02116,9.15936,3.50373,-1.58943,0.61894,-1.7886,-0.31393,1.26367,0.60258,-29.599,-8.377,21.22,126.513,-69.066,-0.346,-1.538831755,9.829604555,0.751165455,2.5
0.94427,8.81261,3.32173,0.2974,9.04607,3.775,0.6584,0.11709,-0.30698,-0.33791,0.80667,0.88275,-32.224,-5.814,14.409,112.411,-67.689,-3.295,1.160919091,9.214363904,1.826306585,2.5
2.6825,8.8985,5.26437,0.91742,9.08912,3.56604,1.89817,0.16133,3.2877,0.65811,0.86313,0.77037,-33.287,-0.314,10.533,93.715,-67.946,-14.427,3.00474456,9.590417187,3.617749065,2.5
2.02724,8.92358,6.02184,1.60019,9.26983,2.77129,0.48571,-0.00637,3.35215,1.09061,-0.26712,0.89182,-33.287,1.561,9.283,79.004,-70.36,-25.741,2.31602086,9.760144156,4.402064567,2.5
2.69614,8.43359,4.84218,1.87944,9.25492,2.64284,2.07807,0.23404,1.07162,-0.57759,0.77577,0.06357,-33.287,1.936,5.408,67.944,-70.689,-35.418,2.916544864,9.081739134,3.295011183,2.5
3.57884,8.58481,5.05418,2.01993,9.09127,3.07231,1.63012,-0.18597,2.09018,0.07968,0.05406,0.15837,-32.599,4.498,4.533,67.007,-68.734,-31.273,3.84458121,9.244110208,3.437646831,2.5
2.81964,8.0661,3.63324,1.94677,9.06407,3.19736,0.97661,-0.63714,0.48796,-0.10515,0.06525,-0.16972,-34.036,3.061,0.72,60.538,-67.56,-31.336,3.017896627,8.51208683,2.156258238,2.5
3.33347,7.44196,2.785,1.9581,9.09868,3.09034,1.31741,-1.34639,0.16802,0.02269,-0.21332,-0.18517,-34.036,3.374,4.596,65.839,-68.096,-32.359,3.478763072,7.759669337,1.391673508,2.5
4.8331,7.5715,2.40549,1.75113,9.17654,2.98245,3.07796,-1.22905,-0.46784,-0.34216,-0.82053,-0.64909,-32.224,1.561,4.158,65.277,-68.847,-32.168,4.951711513,7.817594878,0.915758377,2.5
3.38434,6.47299,2.51045,1.30629,9.09902,3.4164,2.19967,-2.341,-0.86509,-0.68199,-1.7276,-0.84297,-32.974,-2.127,7.158,82.947,-68.101,-20.925,3.52792844,6.755943343,1.251665471,2.5
1.52179,8.69632,2.59781,1.37006,9.00215,3.64068,0.20602,0.0509,-0.8986,-0.63405,-1.79897,-0.70076,-31.85,-4.002,13.971,95.041,-67.363,-20.895,1.683677541,8.979745652,1.104464169,2.5
0.47916,9.6481,4.29015,1.35663,8.9134,3.85763,-1.09504,0.44774,0.1497,-0.32832,-1.91776,-0.67039,-31.099,-8.064,18.658,102.741,-65.715,-19.596,0.766705009,10.18980757,2.701999286,2.5
1.64973,14.49852,6.93965,1.59513,9.04171,3.44578,0.11136,5.77849,3.61647,0.40884,-2.02693,-0.52765,-30.724,-12.064,25.908,111.327,-66.29,-22.649,2.063848112,15.39140016,4.464612569,2.5
0.04475,7.77852,6.02277,0.74869,9.21263,3.27679,-0.55535,-1.00324,3.1084,0.17181,-0.17871,-1.17853,-24.849,-15.752,27.22,125.809,-69.675,-15.563,0.388936126,8.640437329,4.687505293,2.5
0.9071,7.24937,4.14825,0.45735,9.40251,2.74844,1.16133,-1.52614,0.83576,0.25224,-0.26233,-0.42113,-22.224,-17.627,29.346,137.698,-73.494,-9.448,1.104969097,7.821785648,2.860574495,2.5
0.52158,7.08063,0.67561,0.65208,9.52763,2.22924,-0.10541,-2.08041,-1.46785,0.18195,-0.39549,0.31976,-23.724,-16.127,30.22,131.681,-75.949,-13.198,0.547464994,7.091345327,-0.526231226,2.5
0.83705,8.43549,2.00305,0.89325,9.46997,2.38584,-0.02067,-0.65783,-0.28789,-0.12752,0.01144,0.2191,-22.6,-15.752,32.346,126.113,-75.191,-19.659,0.919708866,8.644075245,0.551771966,2.5
0.00798,7.93031,1.07837,1.06268,9.39313,2.60963,-1.0107,-1.0739,-1.4232,-0.54723,0.23195,0.13921,-25.911,-16.502,32.346,124.558,-73.965,-22.73,0.057070891,7.999734739,-0.231838838,2.5
-0.38023,8.41617,2.51295,1.3144,9.29411,2.8394,-1.63867,-0.48227,-0.20557,0.12921,0.84874,0.78528,-26.662,-15.439,30.595,123.188,-72.012,-21.951,-0.25528015,8.714076403,1.136272203,2.5
2.39648,9.62555,2.06178,1.83748,9.29582,2.52621,0.63653,0.72194,-0.35783,0.72842,0.99628,0.79488,-28.912,-12.439,26.784,104.335,-71.289,-33.539,2.485026886,9.814799623,0.373651852,2.5
3.27905,9.50592,1.38611,1.94791,9.12599,3.01536,1.41288,0.76287,-1.50272,-1.00529,0.79016,0.25105,-32.599,-12.064,22.47,95.05,-69.602,-34.735,3.347424552,9.577776643,-0.311333157,2.5
3.36206,10.05624,4.36644,1.61047,8.94164,3.69105,1.60118,1.30595,0.97226,0.04027,1.67966,0.00658,-34.036,-12.064,17.346,101.519,-65.888,-26.941,3.63618195,10.57764865,2.527595417,2.5
0.73804,9.13033,5.64883,1.34595,8.92024,3.84554,0.55677,0.66753,-0.55452,-0.18398,1.62318,0.32509,-35.536,-12.814,12.659,99.775,-65.452,-19.29,1.115228273,9.88615712,4.103300212,2.5
4.14235,7.59636,7.57703,1.33104,8.48285,4.73708,2.85968,-0.57818,3.01211,-0.8242,0.9787,0.13335,-35.912,-11.002,7.909,93.303,-63.246,-18.13,4.75393814,8.576689123,6.009626298,2.5
2.74162,7.4984,6.02592,1.34333,8.44609,4.79891,1.25203,-0.61843,1.56464,-0.12433,-1.00162,-0.2166,-36.974,-10.626,5.408,91.776,-59.458,-15.638,3.236131078,8.265365187,4.611441055,2.5
3.53944,6.1897,7.29398,0.99171,8.1894,5.30288,3.15755,-1.55058,1.17014,-0.27773,-0.94569,-1.14764,-34.787,-12.439,8.408,102.26,-56.625,-10.593,4.198405947,7.114535106,5.983221839,2.5
1.55409,6.11362,5.52605,1.01415,8.4238,4.91747,0.57683,-2.00374,0.78747,0.61604,-1.78087,-0.52606,-33.662,-18.376,15.659,110.795,-57.557,-9.259,2.022066862,6.834701455,4.418922432,2.5
2.04958,7.35121,3.31442,1.42919,8.62884,4.4352,0.75782,-0.85601,-1.39363,0.69913,-2.05251,-0.14896,-31.85,-17.627,22.034,116.243,-61.63,-17.861,2.299751761,7.740005178,2.007463141,2.5
2.45796,9.42955,3.33868,2.12974,8.52282,4.35846,0.41035,1.23543,-0.85169,-0.28998,-1.52679,-0.19476,-29.599,-19.127,29.721,119.574,-61.079,-24.026,2.704578734,9.791107573,1.710038323,2.5
1.55893,9.57713,1.15884,2.25276,8.44852,4.44049,0.89267,0.37905,-0.85567,-0.86522,-1.03891,-0.94684,-26.286,-22.064,31.908,124.226,-59.486,-26.9,1.64397215,9.625215054,-0.38364393,2.5
-0.24777,7.89442,2.84425,1.74669,8.51436,4.54149,0.05819,-0.26412,-3.6678,-0.24097,0.46098,-0.50528,-23.724,-23.877,31.409,133.531,-59.975,-22.779,-0.021781467,8.230108451,1.654646675,2.5
-0.93178,8.86757,7.51616,2.03742,8.43864,4.56165,-3.21475,0.73621,1.8933,-0.50037,-1.26741,0.52962,-21.849,-23.502,36.159,133.324,-59.373,-24.067,-0.331054977,9.881945248,6.183221938,2.5
2.96719,7.88086,9.07097,2.965,7.852,5.07202,0.10393,0.29827,4.17298,-0.25215,0.8839,0.49074,-22.974,-22.815,34.033,127.336,-56.265,-30.911,3.757517073,9.005509757,7.614231874,2.5
3.98721,7.69331,1.75444,3.85202,8.16265,3.83452,0.10025,-0.15475,-1.51982,2.02858,0.35233,1.1006,-26.662,-15.752,36.533,114.753,-55.059,-37.99,4.095612372,7.826054053,0.376509379,2.5
2.74214,7.57742,0.67685,3.68696,8.53158,3.12872,-0.81909,-0.72552,-2.03396,1.19554,0.56219,0.15678,-29.974,-10.626,35.283,97.752,-59.439,-48.415,2.774994701,7.571630796,-0.603790575,2.5
5.22748,7.96585,1.12367,3.68167,8.69033,2.66343,1.67866,-0.41089,-1.44365,0.39499,0.17177,-0.21713,-32.224,-8.377,34.845,89.144,-62.008,-53.677,5.274048659,8.007290591,-0.334149329,2.5
2.03462,7.65474,3.50075,3.35945,8.76196,2.84827,-1.2013,-0.78504,0.75721,-0.01407,0.0775,-0.00514,-32.224,-9.126,34.409,92.033,-63.316,-50.015,2.206063088,8.082615733,2.189653429,2.5
4.18221,8.87132,-0.12288,3.71032,8.72182,2.51672,0.61148,0.47765,-2.54491,0.08447,0.46365,0.31497,-31.85,-6.94,34.845,86.489,-62.795,-55.851,4.172780269,8.722271207,-1.648086265,2.5
2.97836,10.81389,0.30301,3.68027,8.68075,2.69638,-0.62145,2.41551,-2.18487,0.13614,0.86899,0.08701,-34.036,-5.064,33.971,85.456,-62.513,-55.365,2.989317112,10.71454836,-1.471426822,2.5
2.67581,10.46864,2.50105,3.14375,8.83999,2.8534,-0.35767,1.9387,-0.25227,0.70499,1.64076,-0.19637,-38.474,-6.564,27.095,86.341,-63.424,-49.293,2.796996389,10.70769042,0.727880971,2.5
1.13097,9.87599,4.63399,2.82507,8.98642,2.72648,-0.20197,1.08553,-0.91816,0.03334,1.93639,-0.48984,-39.224,-6.564,21.971,81.358,-66.4,-46.017,1.350119913,10.46937453,2.976156589,2.5
2.21985,8.94524,8.18471,2.49865,9.07223,2.76075,-0.54788,0.25564,5.68067,1.36917,-0.24901,1.06598,-40.662,-6.94,16.47,73.968,-67.685,-42.147,2.611494668,10.10554233,6.556877328,2.5
3.98788,6.46593,3.50444,2.94101,9.08625,2.22731,2.30023,-2.08112,1.05195,0.16649,-0.15527,0.46304,-41.786,-3.627,18.221,63.904,-67.902,-52.862,4.12106415,6.913325382,2.283703091,2.5
5.4527,6.9053,1.05411,3.60918,8.83221,2.26633,2.05763,-1.63764,-1.23472,-1.24338,-0.19681,-0.22086,-40.349,-0.627,18.596,60.691,-64.242,-57.874,5.490119311,6.952034003,-0.232521928,2.5
4.12053,7.66948,2.78569,3.6459,8.69895,2.6844,0.59693,-0.73766,0.19134,-0.18611,-0.85675,-0.1857,-38.849,-1.752,23.283,66.482,-62.832,-53.222,4.246474787,7.972921146,1.399907146,2.5
3.96034,7.58725,1.98856,3.59202,8.71309,2.71106,0.77407,-0.79276,-1.02247,-0.69104,-0.75981,-0.59157,-38.474,-2.502,25.034,70.422,-62.638,-53.512,4.049964913,7.772214355,0.628883597,2.5
4.22856,8.52863,1.26622,3.18318,8.77592,3.0035,1.15719,0.06099,-1.63177,-0.68625,-0.69749,-0.78705,-38.474,-5.814,22.034,77.299,-63.377,-48.026,4.28909748,8.587900158,-0.27051086,2.5
2.56268,9.76622,1.35796,2.45524,8.8801,3.35947,0.22322,1.37279,-2.21663,-0.52113,-0.55847,-1.06882,-35.162,-13.19,28.845,99.965,-64.653,-37.739,2.6378529,9.835239981,-0.316581469,2.5
2.12781,9.5537,0.88744,1.63975,8.9133,3.74629,1.71281,0.85381,-2.99455,-1.1326,-0.60747,-1.72235,-29.974,-17.252,31.409,118.828,-65.354,-23.639,2.181247236,9.553993692,-0.74274751,2.5
-0.82103,8.73514,5.55345,0.57876,8.78408,4.3215,-1.38176,0.22461,1.36652,0.71245,-1.08844,-0.63737,-23.349,-23.502,31.471,139.845,-62.776,-9.024,-0.400226948,9.487795435,4.199895731,2.5
0.33643,6.90134,3.45277,0.30904,8.77049,4.37647,0.03722,-1.59001,-0.7844,-1.88254,0.39867,-1.18759,-18.912,-24.252,35.658,148.38,-65.836,-8.944,0.598928487,7.341660927,2.324779368,2.5
-1.93105,7.15938,8.86481,-0.54803,7.8083,5.90767,-1.25695,-0.38778,3.01778,-1.34512,0.75021,0.00497,-14.85,-30.565,29.283,162.366,-55.282,4.284,-1.00837717,8.317971266,7.960217455,2.5
-1.24573,7.56119,8.6133,-0.54803,7.8083,5.90767,-1.25695,-0.38778,3.01778,-1.3073,0.8269,0.09019,-14.85,-30.565,29.283,162.366,-55.282,4.284,-0.352583727,8.672484183,7.587890165,2.5
-1.24573,7.56119,8.6133,-0.54803,7.8083,5.90767,-1.25695,-0.38778,3.01778,-1.3073,0.8269,0.09019,-14.85,-30.565,29.283,162.366,-55.282,4.284,-0.352583727,8.672484183,7.587890165,2.5
-1.20238,7.58978,8.5126,-1.67925,6.02419,7.55378,0.38358,1.71619,1.2842,-0.6692,0.657,0.13121,-17.099,-30.876,28.908,166.857,-37.901,12.533,-0.072906484,8.4500857,7.752778416,2.5
-2.16531,5.82845,4.85396,-1.8151,5.52176,7.89848,-0.67974,0.82066,-2.24763,-0.9547,0.04341,0.29633,-18.161,-29.814,19.408,160.484,-34.268,12.942,-1.477744859,6.292671654,4.520937742,2.5
-3.70569,5.83151,6.54671,-2.43927,4.68881,8.26047,-0.48102,1.31591,-1.94977,-0.95683,1.2104,0.24626,-20.412,-30.502,13.033,151.58,-30.006,14.807,-2.726655079,6.385116752,6.511044097,2.5
-1.92056,5.56311,6.95529,-2.40122,4.30673,8.47683,0.39649,1.40734,-1.22441,-0.30222,0.20107,0.58342,-23.349,-28.314,9.659,148.997,-26.191,16.062,-0.874303034,6.08526954,6.724424987,2.5
-0.45146,4.99606,10.85759,-2.09804,4.69595,8.34965,1.57705,0.45574,2.78464,1.37238,-0.3044,0.92963,-25.224,-25.377,10.095,146.154,-25.878,15.681,1.12999602,5.864124472,10.36276244,2.5
1.22806,5.92107,8.45169,-1.39032,5.5905,7.93623,2.57358,0.51069,0.77116,0.37688,0.28842,0.91418,-25.537,-22.752,15.158,143.532,-33.802,10.657,2.383230587,6.691849057,7.585356507,2.5
1.81795,4.68478,11.06096,-1.38289,5.06103,8.28517,3.1573,-0.2169,3.03665,-1.23166,0.18668,0.23134,-30.724,-20.564,11.783,133.207,-32.347,9.586,3.392862101,5.608984668,10.22862257,2.5
1.73732,5.24434,7.1608,-1.24813,4.93161,8.38402,2.94803,0.46058,-0.97188,-0.12859,-0.14674,-0.2166,-29.224,-19.44,10.909,131.73,-30.315,8.657,2.762849317,5.812160063,6.35483269,2.5
0.68338,3.39092,8.48122,-1.18362,4.85052,8.44049,1.83029,-1.30915,0.30254,0.46902,-0.36087,0.04492,-27.786,-20.189,10.909,133.509,-29.138,8.421,1.920869971,4.079669115,7.972640581,2.5
1.11658,4.44452,5.95825,-0.68462,5.21333,8.27785,1.7782,-0.5937,-2.04154,0.20006,-0.67725,0.15305,-28.912,-19.064,13.47,135.228,-30.81,7.044,1.962778285,4.94727889,5.307841838,2.5
4.18059,6.24326,6.0645,-0.42959,5.26144,8.26457,2.8603,-0.30955,-1.94488,-0.11261,-1.10016,-0.34816,-27.786,-19.815,16.846,131.735,-32.447,2.976,5.008911532,6.712190951,4.805318546,2.5
1.7083,10.03546,7.17784,0.79855,5.46759,8.10174,1.12589,4.68377,-0.57928,0.66718,-1.07672,-0.7471,-26.286,-21.315,20.284,130.653,-33.091,-4.959,2.702832825,10.64395971,5.8780056,2.5
0.96175,9.15694,6.71083,0.77645,6.20248,7.55624,0.33906,3.2459,-0.55311,1.3484,-0.4626,-1.07254,-24.849,-20.94,19.034,134.778,-39.233,-5.867,1.835868265,9.808432006,5.498545427,2.5
-0.97644,8.27789,5.65881,0.6853,6.94709,6.88757,-0.98286,0.71174,-0.84391,1.05865,-0.11691,-0.08876,-18.912,-21.689,28.409,147.427,-45.105,-5.682,-0.290780337,8.910788363,4.691729541,2.5
2.17778,7.89629,7.68913,1.2502,7.44269,6.26209,0.95888,0.63992,1.58381,-0.06413,-0.14568,-0.57985,-15.599,-19.44,31.409,145.968,-48.8,-10.228,3.00349066,8.789057533,6.320470963,2.5
0.57004,6.6577,5.69873,0.95488,7.31868,6.45721,-0.49632,-0.34894,-0.27211,-0.35762,0.04288,-0.47758,-16.35,-22.064,29.721,150.02,-48.271,-8.412,1.207309773,7.316637622,4.70474819,2.5
0.57004,6.6577,5.69873,0.95488,7.31868,6.45721,-0.49632,-0.34894,-0.27211,-0.35762,0.04288,-0.47758,-16.35,-22.064,29.721,150.02,-48.271,-8.412,1.207309773,7.316637622,4.70474819,2.5
0.57004,6.6577,5.69873,0.95488,7.31868,6.45721,-0.49632,-0.34894,-0.27211,-0.35762,0.04288,-0.47758,-16.35,-22.064,29.721,150.02,-48.271,-8.412,1.207309773,7.316637622,4.70474819,2.5
-1.06241,7.4463,5.15752,1.03874,6.73191,7.05499,-1.94033,0.84895,-1.35146,-0.67081,0.33902,-0.00993,-15.599,-21.315,30.034,150.181,-45.892,-9.575,-0.420909577,8.010264928,4.339885039,2.5
-0.55405,7.86423,4.98431,0.7107,6.70194,7.12385,-0.93777,1.34066,-1.89881,0.1862,0.82477,0.58289,-15.974,-21.689,27.47,155.407,-42.881,-6.197,0.068354198,8.395710651,4.0624871,2.5
0.11002,8.73677,3.36761,0.45369,6.93951,6.91432,-0.3911,1.95589,-3.40549,0.2661,0.84821,0.56531,-18.912,-21.315,26.596,148.531,-44.781,-4.074,0.51462961,9.075086798,2.249890558,2.5
0.36922,9.91602,3.87474,0.48089,7.16994,6.67316,-0.5162,2.51717,-3.79353,0.39394,0.17177,0.6468,-22.224,-19.064,26.221,146.575,-46.981,-4.122,0.816984807,10.31346527,2.53817966,2.5
0.54218,10.0687,4.76134,0.96092,7.74705,5.93551,-0.56125,2.60208,-1.13686,1.29941,0.16751,0.61751,-23.724,-17.627,21.158,132.034,-52.184,-9.196,1.031638947,10.60763113,3.279774421,2.5
1.82678,9.15225,2.99428,1.0517,8.32314,5.07835,0.69749,1.03733,-3.32403,-0.04337,0.7534,0.39912,-25.911,-13.565,29.659,131.453,-58.073,-11.7,2.084656682,9.464183791,1.466270655,2.5
4.88886,7.6862,4.97186,1.10578,8.43058,4.88599,3.80925,-0.54483,0.20152,0.08501,0.59894,0.1898,-30.724,-9.502,13.47,106.787,-58.923,-13.084,5.294564486,8.268376531,3.361480453,2.5
3.77817,7.29016,3.90906,1.16671,8.45981,4.82087,2.78621,-1.14488,0.79351,0.65279,-0.1313,0.19673,-30.35,-12.064,10.471,103.485,-59.193,-12.788,4.093324719,7.737175236,2.46628538,2.5
3.49464,7.53963,4.10158,1.25444,8.39206,4.9163,2.27155,-0.64273,-0.69187,-0.45668,-0.22345,-0.17133,-31.85,-10.626,15.596,108.886,-59.325,-14.631,3.833290122,8.011597054,2.646070153,2.5
3.22639,8.3019,3.15179,1.58629,8.20811,5.12651,1.4335,0.23512,-2.32622,-0.20528,-0.50201,0.40126,-29.224,-12.439,14.284,109.772,-57.18,-16.381,3.49511264,8.623874171,1.636428477,2.5
3.57716,8.35674,1.87422,2.26191,8.16313,4.94141,1.40646,0.40662,-2.92236,-0.24203,-0.72252,-0.05042,-31.85,-9.502,16.47,105.941,-56.509,-22.101,3.725304522,8.493451618,0.356740155,2.5
2.99216,8.30817,2.50525,2.31268,8.05308,5.09606,0.74463,0.48194,-2.44726,-0.49344,-0.66499,-0.56441,-27.412,-13.19,14.783,106.816,-55.398,-24.712,3.202863446,8.5385817,1.043683901,2.5
1.55278,8.71376,3.02333,2.03361,7.92947,5.39984,-0.4219,1.01407,-2.22003,-0.56108,-0.62718,-0.79984,-22.224,-18.002,17.72,122.521,-54.24,-21.566,1.830401313,9.025515661,1.634307634,2.5
0.19412,8.67456,1.73215,1.67409,7.89203,5.57527,-1.42864,1.02448,-3.67219,-0.46628,-0.4919,-0.65921,-17.474,-21.315,18.596,136.681,-53.836,-17.663,0.361485914,8.826520846,0.497870551,2.5
0.10905,7.95465,2.61201,1.46602,7.85328,5.68746,-1.30984,0.3538,-2.89263,-0.20795,-0.44289,-0.32579,-15.224,-24.252,19.408,143.33,-53.307,-14.803,0.367368612,8.233708281,1.477170611,2.5
3.09917,8.08466,4.27943,1.84033,7.94221,5.45022,1.31849,0.39989,-0.99411,0.37636,-0.1739,0.17383,-13.037,-25.002,21.596,145.934,-53.773,-18.105,3.491623187,8.555072024,2.810589494,2.5
2.10464,9.38852,5.8761,2.10348,7.8283,5.51937,0.06885,1.81209,0.53431,-0.26175,-0.06631,0.44174,-13.786,-24.626,20.721,142.765,-53.494,-20.199,2.660059156,10.07009689,4.315043739,2.5
1.92236,9.81162,6.89378,2.21145,7.58141,5.81396,-0.22313,2.45633,1.25323,-0.06839,0.10573,0.48434,-15.599,-25.002,20.284,136.327,-51.281,-20.454,2.610802696,10.60500979,5.310841214,2.5
2.35175,8.82491,4.72075,2.23437,7.58249,5.80378,0.2698,1.49519,-0.93708,-0.12006,0.40613,-0.06053,-17.787,-24.252,19.47,138.09,-50.7,-21.499,2.81706658,9.336090312,3.255272448,2.5
1.67055,8.3803,4.17578,1.83761,7.74298,5.73061,-0.09826,0.86217,-1.47077,0.18353,0.355,-0.20702,-18.912,-22.44,20.721,138.226,-51.801,-18.439,2.0791586,8.841207437,2.822667988,2.5
1.11057,7.91101,4.08484,1.2388,7.72634,5.91096,0.07214,0.45335,-1.73484,-0.25429,1.1662,-0.32419,-19.287,-23.502,21.22,140.62,-51.987,-11.837,1.525333725,8.370067134,2.849332548,2.5
-0.90036,7.99673,3.61447,0.70805,7.70048,6.03089,-1.22908,0.30824,-1.64689,-0.16747,1.60188,0.17969,-21.536,-24.626,28.471,144.571,-51.742,-6.696,-0.515623756,8.41893014,2.584275458,2.5
-1.81731,8.5304,4.92346,-0.26246,7.73854,6.01802,-1.61962,1.0187,-0.94881,0.53667,1.31799,0.69101,-25.537,-24.626,24.22,145.645,-51.115,-0.832,-1.291112854,9.137671657,3.891886748,2.5
-1.56454,8.2489,4.57645,-0.68447,8.07184,5.52696,-0.86658,0.36621,-0.84685,0.63895,1.45488,0.76344,-30.724,-20.94,20.845,138.819,-55.396,7.06,-1.116489504,8.827948417,3.500972602,2.5
0.23865,8.84708,5.24594,-0.56394,8.3555,5.10275,0.78614,0.7353,0.29203,0.30711,1.25407,0.90512,-34.036,-16.502,16.533,129.827,-57.971,6.46,0.704289318,9.509379105,3.863075256,2.5
0.72934,8.96878,5.13904,-0.4702,8.42039,5.00463,1.18619,0.78759,0.27658,-0.28571,0.99149,0.98129,-36.974,-12.814,10.533,118.508,-59.301,5.989,1.174870237,9.612449181,3.687978352,2.5
3.51065,8.0457,5.14917,-0.18787,8.51543,4.86031,3.88693,0.33713,0.56831,0.21336,0.88124,0.57277,-38.849,-8.064,6.72,107.59,-59.794,2.764,3.934298926,8.672685631,3.588553958,2.5
1.47134,6.5304,4.73471,-0.26778,8.63845,4.6342,1.86117,-1.81813,0.87083,0.85306,0.58882,0.56105,-36.662,-5.44,3.72,101.943,-61.748,3.307,1.849065737,7.147286284,3.567309772,2.5
1.76491,6.61452,3.62523,0.16402,8.89917,4.11682,1.68569,-2.26806,-0.70184,-0.09024,0.21439,0.52589,-36.287,-2.876,2.47,94.829,-65.132,-0.474,2.020612384,7.074656581,2.423929567,2.5
3.35634,8.65851,5.02243,0.63356,8.64699,4.58241,2.74346,0.2939,0.58967,-0.20422,0.53395,0.41936,-36.287,0.81,-1.404,81.244,-62.174,-7.461,3.746867991,9.272467023,3.382595496,2.5
3.63545,8.79587,3.12308,0.38417,8.59101,4.71352,3.18621,0.4221,-1.58752,-0.1158,0.67137,-0.28052,-35.912,1.561,-3.529,78.909,-61.363,-6.982,3.879790076,9.11750188,1.468278882,2.5
1.11066,8.35127,3.03139,-0.22234,8.50564,4.87596,1.48063,0.11599,-1.63898,-0.09715,0.36671,-0.3636,-32.974,0.81,-6.967,81.417,-60.295,1.145,1.364305411,8.692194428,1.658622426,2.5
0.02957,9.69104,3.73843,-0.51375,8.52062,4.82758,0.55612,1.5143,-0.95995,0.06157,0.47696,-0.04776,-34.787,1.186,-7.841,83.299,-60.327,6.075,0.344082184,10.13564832,2.245713716,2.5
1.0468,9.09183,3.86847,-0.62761,8.66129,4.55615,1.65393,0.71311,-0.53903,0.37476,-0.03436,-0.17239,-33.287,0.436,-8.217,84.479,-61.474,7.349,1.350788139,9.556346608,2.360896871,2.5
-0.39746,10.62088,4.53041,-0.5585,8.84999,4.18761,0.14329,2.05219,0.47591,-0.18237,-1.24397,0.02415,-32.974,-2.502,-7.404,77.362,-64.256,9.01,-0.065576756,11.19403253,2.859198583,2.5
2.24829,9.06215,5.56746,-0.3691,8.91851,4.06133,2.60702,0.39416,1.62022,-0.07372,-0.20587,-0.5479,-34.036,-2.127,-6.091,85.513,-64.373,4.293,2.636955386,9.788854813,3.924126544,2.5
-1.08124,6.12251,2.99944,-0.92537,8.75668,4.31679,0.2164,-2.01313,-0.50367,-0.46733,0.77524,-0.57773,-32.599,-4.689,-8.717,87.851,-64.663,7.21,-0.852401885,6.518870018,2.104422407,2.5
-1.13325,7.06537,4.69188,-1.11065,8.5281,4.71257,0.00841,-1.07249,0.07219,-0.05241,0.23355,0.62869,-31.85,-4.002,-12.091,90.695,-60.305,14.253,-0.743947231,7.694484698,3.668636598,2.5
-0.49689,8.13181,4.32526,-0.91592,8.5159,4.77608,0.44707,-0.11578,-0.41125,-0.20955,1.06873,0.61804,-32.599,-2.502,-12.967,83.126,-60.271,10.856,-0.135035488,8.686559153,3.099445615,2.5
-0.75031,8.53934,2.93933,-0.72714,8.61711,4.62462,-0.47256,0.12209,-1.02787,-0.03004,0.7518,0.74533,-27.412,0.061,-17.216,69.308,-61.486,8.936,-0.510877087,8.890977177,1.677045922,2.5
-0.28877,8.82298,4.18243,-0.58728,8.65603,4.57151,0.26215,0.46327,-0.50136,0.34865,1.03729,0.41457,-22.974,3.748,-19.78,57.814,-61.279,6.589,0.045502182,9.353409824,2.816511869,2.5
-0.54437,9.15422,3.40126,-0.64284,8.72079,4.43903,0.07799,0.68503,-1.05991,-0.06573,0.92278,0.41298,-20.036,4.123,-21.092,52.083,-62.782,8.24,-0.2794855,9.56892618,2.005540256,2.5
0.22264,9.46359,5.37029,-0.58564,8.74171,4.40568,0.76298,1.12337,1.04754,0.33427,0.63037,0.45772,-14.85,4.874,-22.78,48.138,-63.05,7.572,0.634516547,10.1648243,3.837037219,2.5
1.12468,8.66554,8.39415,-0.8766,9.05069,3.67246,2.04803,-0.32616,4.95649,0.15584,1.34836,0.04013,-13.411,3.748,-24.03,39.028,-66.802,10.396,1.660038182,9.864075578,6.838313319,2.5
0.57863,9.03781,5.90392,-1.21521,9.27885,2.93201,1.75713,-0.06323,3.87765,0.34174,1.50388,0.45825,-10.786,0.061,-27.904,45.545,-71.117,22.512,0.879863466,9.865480115,4.332578449,2.5
0.9361,7.95581,4.15247,-1.32093,9.40213,2.45467,1.94329,-1.11003,1.91028,0.35451,0.88336,-0.0126,-4.912,-1.003,-29.155,39.608,-73.486,28.286,1.113087137,8.520118987,2.753690711,2.5
1.64114,7.5679,2.74554,-1.4562,9.32574,2.6609,3.05304,-1.47411,0.1656,-0.67825,-0.00879,-0.26666,-3.787,-1.376,-28.342,38.888,-72.819,29.104,1.766831631,7.899956206,1.404791348,2.5
0.7077,7.01428,3.65825,-1.68015,9.07075,3.32701,2.33282,-1.75937,0.44021,-0.38318,-0.56061,-0.29916,-3.787,-1.003,-29.591,37.277,-68.723,27.493,0.918812577,7.495853052,2.46002576,2.5
-0.57628,8.52919,3.56569,-1.75897,8.89318,3.74002,1.05826,0.0967,0.15201,-0.16107,-0.48763,-0.26027,-7.1,0.81,-27.904,41.451,-65.429,25.304,-0.342465072,8.982521764,2.233908304,2.5
0.45737,10.09854,2.89301,-1.63599,8.89977,3.77994,2.0398,1.49012,-0.76319,-0.21167,-0.33583,-0.29863,-11.162,0.436,-29.591,46.318,-65.165,23.403,0.647095514,10.41888747,1.25986333,2.5
0.59003,8.97452,3.91393,-1.63458,8.92158,3.72879,2.17154,0.34257,0.30619,0.55478,-0.70973,0.00179,-10.786,-1.003,-28.342,48.924,-64.878,23.998,0.843318532,9.465688393,2.428693019,2.5
-2.1627,10.1562,7.27634,-1.54622,8.86034,3.90819,-0.93274,1.76577,3.61739,0.183,-0.87645,0.17223,-12.286,-1.752,-27.467,50.617,-66.181,23.498,-1.66173046,11.17585072,5.7541121,2.5
-2.08243,8.72104,8.53732,-1.10222,8.90833,3.94933,-1.10171,0.22263,4.45687,0.12335,-0.97711,0.17062,-17.474,-2.127,-24.904,50.175,-65.205,19.768,-1.489483254,9.956950748,7.205515776,2.5
0.40399,7.50662,4.58197,-0.87025,9.02062,3.7472,1.37031,-1.24565,0.81469,-0.28252,0.18242,-0.22511,-20.412,-5.814,-22.78,56.683,-67.11,12.755,0.702578182,8.126509331,3.312586725,2.5
-1.46228,8.16434,5.01897,-0.84148,9.00068,3.80133,-0.76125,-0.68339,1.46611,0.32416,-0.57712,0.34053,-20.787,-4.689,-30.029,52.467,-66.609,12.482,-1.12631977,8.862446409,3.764733419,2.5
-0.28009,8.02211,3.21265,-0.73338,8.95226,3.93568,0.93786,-0.66847,-0.68919,-0.32246,0.03062,-0.02965,-20.787,-5.064,-24.092,57.447,-65.906,10.556,-0.058924104,8.426125233,1.9366881,2.5
-0.40132,7.92133,3.17534,-0.4604,8.80282,4.29754,-0.03643,-0.64455,-1.15694,-0.18718,0.05779,0.1866,-21.536,-3.252,-24.092,53.626,-63.849,6.115,-0.162244526,8.317196055,1.946596343,2.5
-0.95142,10.79907,6.0121,-0.74122,9.00235,3.81821,-0.15656,1.86695,0.59486,1.17264,1.72226,0.11736,-21.849,-1.003,-25.342,51.749,-63.964,6.756,-0.548956124,11.61461524,4.297652773,2.5
-2.08252,9.59621,2.52902,-1.20142,9.37753,2.60556,-0.727,0.40529,-0.09052,1.25732,0.88922,0.19034,-13.037,-7.626,-30.904,49.927,-69.584,18.208,-1.965397895,9.895043362,1.022451006,2.5
-0.1368,8.43263,0.74474,-1.38918,9.54658,1.76162,0.97549,-0.86123,-1.13291,0.78754,1.0032,-0.31461,-10.1,-12.064,-30.029,55.436,-75.752,31.655,-0.113841115,8.440001022,-0.660320806,2.5
-0.74785,9.57547,3.35168,-1.57973,9.60853,1.16233,0.57211,-0.26847,2.3583,0.44347,0.89082,0.13014,-5.661,-15.752,-30.029,71.11,-78.463,53.655,-0.679706946,10.00300225,1.720641928,2.5
-0.1936,9.81296,3.38661,-1.4181,9.6794,0.68459,1.44258,0.59158,2.69819,-0.17386,1.16246,0.15837,0.276,-19.127,-29.591,67.175,-80.521,63.401,-0.153122726,10.24301851,1.690537597,2.5
-0.1646,9.14259,3.60202,-1.03586,9.72489,0.72382,1.01449,-0.30248,2.70215,0.11377,0.88922,0.65318,4.338,-17.252,-29.591,53.55,-81.805,57.146,-0.119083586,9.619959929,2.007681052,2.5
1.33855,7.80405,1.57906,-0.93908,9.71478,0.9548,2.25049,-1.62992,0.65185,-0.68997,0.94196,-0.30554,8.026,-15.439,-29.591,37.395,-82.903,45.955,1.364677032,7.954795225,0.217330446,2.5
1.80032,7.41835,-0.34225,-1.10329,9.65068,1.34815,2.8692,-1.93128,-1.64835,-0.45135,0.24367,0.41138,9.839,-14.69,-35.155,30.668,-80.321,43.032,1.791769368,7.248906467,-1.622689572,2.5
5.36113,11.59375,-4.0806,-0.82311,9.67297,1.38802,6.15776,2.23195,-5.42396,-2.03435,-0.20746,-0.75882,11.713,-15.065,-30.904,15.345,-83.192,35.592,5.26071189,10.72166025,-6.097455382,2.5
0.67859,10.43604,4.16655,-1.61211,9.23705,2.872,2.24122,1.48248,1.3827,-1.5161,-1.28018,-1.35536,7.651,-10.252,-31.779,17.529,-72.639,29.245,0.886502191,10.96322723,2.39860724,2.5
-3.00345,8.48909,7.29123,-1.99925,8.92869,3.52873,-1.06192,-0.1818,3.86439,0.64267,-1.84372,-0.1154,8.713,-9.126,-33.029,18.778,-65.459,30.407,-2.548987314,9.544403433,6.054289605,2.5
-0.41307,5.68991,10.09323,-1.55241,8.77906,4.08517,1.09366,-2.8308,6.12828,-0.96002,-0.77632,-0.36839,-1.974,-9.126,-33.029,18.453,-65.772,23.291,0.307014171,7.164301966,9.110297147,2.5
-0.76303,6.0677,13.56242,-1.54309,8.63791,4.37902,0.34987,-1.96355,10.04947,-0.26175,-1.42879,-0.65921,-1.974,-9.126,-34.341,29.873,-62.569,20.075,0.274741995,8.038613502,12.51573586,2.5
-0.76303,6.0677,13.56242,-1.54309,8.63791,4.37902,0.34987,-1.96355,10.04947,-0.26175,-1.42879,-0.65921,-1.974,-9.126,-34.341,29.873,-62.569,20.075,0.274741995,8.038613502,12.51573586,2.5
-1.75838,6.5919,14.02736,-1.54309,8.63791,4.37902,0.34987,-1.96355,10.04947,-0.13338,0.87271,-0.75029,-2.661,-8.752,-32.591,31.773,-61.742,19.412,-0.682202342,8.637907161,12.97046777,2.5
-4.89824,7.24066,3.94879,-4.62654,7.75603,3.82225,-0.30178,-0.25293,0.338,-0.15895,0.85992,-0.18944,5.026,-15.376,-29.654,62.26,-53.013,48.313,-4.624112729,7.750210928,3.250333342,2.5
-4.36916,6.68935,3.75932,-4.86646,7.73288,3.56238,0.34202,-0.83695,0.01499,-0.41408,0.90147,0.14133,8.401,-15.002,-29.218,62.573,-52.207,53.272,-4.127131411,7.169904345,3.086860442,2.5
-2.37996,8.71048,4.26285,-4.62669,8.00123,3.27788,1.89811,0.82204,1.20943,0.36996,0.40187,0.60898,7.275,-12.064,-32.591,60.18,-53.953,54.45,-2.132322418,9.237020241,3.136753055,2.5
-1.75697,9.94441,1.32942,-4.69631,8.08568,2.95582,2.80327,2.093,-1.54076,-0.52859,0.30759,-0.40195,9.839,-11.69,-27.53,54.584,-56.059,57.151,-1.686079731,10.04503345,0.005432508,2.5
-3.71889,9.28885,5.60645,-4.84072,7.84533,3.34495,0.9844,1.66626,2.35646,-0.04762,-0.05513,0.47423,11.339,-6.94,-27.092,47.04,-52.74,55.871,-3.385433315,9.995499803,4.491545805,2.5
-0.76537,9.26749,3.19743,-4.22508,8.20864,3.30717,3.34354,1.28457,-0.01879,0.15158,-0.22931,0.3725,9.088,-8.752,-27.092,46.079,-55.813,52.847,-0.579638868,9.634609119,1.879906019,2.5
-1.60741,8.39192,2.48471,-4.15433,8.24595,3.30398,3.74694,1.16714,0.01617,0.1862,0.20213,-0.03709,8.026,-6.94,-27.092,45.114,-57.23,51.504,-1.461535899,8.674218588,1.3430252,2.5
-1.89799,7.76614,1.95654,-4.28277,8.26255,3.09168,2.1426,-0.19366,-1.01214,-0.09662,-0.09775,-0.12285,10.213,-6.94,-27.904,47.239,-57.573,54.329,-1.789703789,7.981001866,0.918648399,2.5
-2.23628,8.40404,3.0182,-4.22471,8.2631,3.16914,1.75645,0.3527,-0.10336,0.23894,-0.11745,0.32722,9.088,-7.626,-27.904,46.883,-57.416,53.125,-2.066002602,8.767670961,1.8968255,2.5
-2.19934,8.81036,2.381,-3.9109,8.53936,2.8204,1.57457,0.52362,-0.4302,0.35239,-0.02264,0.10405,7.275,-9.877,-26.654,52.264,-60.548,54.202,-2.079517815,9.081882142,1.150531691,2.5
-4.07822,8.95053,4.39938,-4.01502,8.35969,3.18835,-0.18578,0.91253,1.09666,-1.27534,-0.20161,0.14453,9.464,-7.626,-26.654,43.93,-58.479,51.547,-3.827220315,9.52702953,3.269021724,2.5
-1.88667,8.74506,8.26659,-3.52752,8.33758,3.76984,1.53862,0.64909,4.606,0.06743,-0.57817,1.21191,9.839,-5.44,-27.904,37.49,-57.638,47.401,-1.339070225,9.86672506,7.016176726,2.5
-4.03761,7.88271,5.96964,-3.61684,7.81733,4.68809,-0.37763,0.32415,1.76838,-0.34004,-0.3369,-0.26401,6.151,-0.627,-30.467,32.605,-54.724,38.437,-3.536194883,8.663584693,5.149139656,2.5
-4.54578,6.5737,6.31079,-3.70987,7.60375,4.95885,-0.61799,-0.73385,0.87905,-0.45082,0.11797,-0.2411,6.526,1.186,-26.654,30.182,-50.838,36.801,-3.983258797,7.399817275,5.75152776,2.5
-2.50043,7.50464,4.74809,-3.59285,7.61832,5.02225,1.03601,0.13608,-0.33957,0.03706,0.13821,0.17383,6.526,0.436,-28.342,27.23,-50.645,35.733,-2.07516999,8.094471183,3.910158072,2.5
-3.67921,7.83899,5.49181,-3.73806,7.49613,5.09954,-0.04903,0.54126,0.43,-0.13071,0.30119,0.06622,7.275,1.936,-28.342,19.286,-50.3,35.97,-3.176499981,8.528281369,4.724890716,2.5
-4.60509,7.54956,4.63997,-3.88809,7.43206,5.0811,-0.82095,0.31622,-0.30528,-0.3672,0.62398,0.1653,8.026,3.436,-28.78,25.649,-49.528,37.161,-4.176051012,8.136715706,4.010796325,2.5
-4.19752,7.13988,5.25063,-3.84884,7.54415,4.94395,-0.35425,-0.18867,0.46605,0.0163,0.54887,0.63402,11.713,5.623,-27.904,20.661,-49.565,37.934,-3.729397426,7.812362328,4.607034367,2.5
-2.92097,7.74965,5.84358,-3.80672,7.71287,4.71072,0.81685,0.24868,1.36224,-0.12379,0.67618,0.33041,12.463,6.374,-26.654,16.099,-51.531,38.394,-2.431198988,8.493344986,4.968795679,2.5
-1.57349,8.60571,3.67644,-3.77642,7.85551,4.49443,2.07745,0.9314,-0.65643,-0.38264,0.15154,-0.04137,12.088,6.374,-27.904,18.254,-53.508,40.19,-1.280557469,9.042739268,2.576696637,2.5
-2.73264,8.09207,8.15006,-4.07158,7.61667,4.64532,1.23879,0.66275,3.619,-0.07852,0.79814,0.48595,14.276,9.686,-26.654,13.639,-50.879,40.905,-2.063611709,9.126707018,7.198411074,2.5
0.98561,8.45073,5.03821,-3.53034,8.13002,4.19642,4.36525,0.53656,0.97267,0.27303,0.36298,0.50406,19.089,8.56,-26.654,5.318,-54.996,40.326,1.351643246,9.066191346,3.707702741,2.5
0.27901,8.18814,4.84129,-3.51673,8.17151,4.12667,4.23713,0.31004,0.94559,-0.07053,0.73955,-0.00035,16.463,7.811,-27.092,5.318,-54.996,40.326,0.626674363,8.788493665,3.596002009,2.5
0.27901,8.18814,4.84129,-3.51673,8.17151,4.12667,4.23713,0.31004,0.94559,-0.07053,0.73955,-0.00035,16.463,7.811,-27.092,5.318,-54.996,40.326,0.626674363,8.788493665,3.596002009,2.5
0.02872,8.02872,4.77072,-6.28366,5.50611,5.13505,4.60333,1.95372,1.09954,-1.29239,0.97179,-0.87387,17.213,7.123,-26.216,22.692,-34.157,50.744,0.455601511,8.447351205,3.956718828,2.5
-3.55284,7.47127,5.68626,-6.24276,5.63703,5.04205,2.53863,1.97085,0.76641,1.39207,-0.96381,0.63667,21.651,11.186,-24.53,12.688,-33.126,51.906,-3.039344529,8.022188791,5.213729194,2.5
-1.59541,9.2141,1.80545,-5.37791,6.6763,4.76188,3.6421,2.71207,-2.83212,0.73854,-0.79816,0.53282,17.589,4.498,-26.654,16.618,-40.054,49.825,-1.440023932,9.376192335,0.847331076,2.5
-1.79887,9.44786,3.27068,-4.80254,7.26747,4.50443,2.87381,2.3769,-1.11196,0.66397,-0.20746,0.51151,16.838,1.936,-27.092,23.028,-46.452,46.978,-1.536446954,9.802299451,2.179356727,2.5
-1.78027,9.67673,4.24269,-4.54813,7.42081,4.51846,2.64519,2.45606,-0.1539,-0.58612,-0.11426,0.22389,16.463,1.186,-28.342,20.703,-49.436,46.184,-1.440496447,10.16005988,3.083348254,2.5
-1.74594,8.77338,5.04717,-4.06326,7.75591,4.41658,2.21148,1.2195,0.74563,0.39766,-0.07964,0.7496,15.025,1.186,-28.342,18.757,-50.995,43.334,-1.352085093,9.390374532,3.935372938,2.5
-1.20081,8.27426,4.57608,-3.79691,7.9408,4.32406,2.49692,0.54088,0.36496,-0.24364,0.37843,0.06464,16.463,0.497,-29.218,12.201,-54.234,41.215,-0.852366987,8.837814225,3.465882517,2.5
-1.3653,8.25658,5.18929,-3.99645,7.84962,4.31072,2.56741,0.59027,0.88508,-0.05402,0.64314,-0.02325,18.713,2.31,-27.904,11.107,-53.33,41.883,-0.971382986,8.899945969,4.100154257,2.5
-0.79089,8.37141,2.88011,-4.05226,7.8599,4.23929,2.88688,0.67656,0.0158,-0.01993,0.60747,0.15465,19.775,2.31,-31.779,17.57,-53.272,43.708,-0.575822332,8.693540374,1.758360147,2.5
-0.95735,8.97401,3.42276,-4.03331,7.93754,4.11076,2.94986,1.27908,-0.54784,-0.12433,-0.04182,0.1131,21.651,2.686,-26.216,7.807,-54.026,44.746,-0.709527227,9.368953809,2.209962934,2.5
-1.06963,9.11353,3.4193,-3.97196,7.94372,4.15827,2.8248,1.42748,-0.50831,-0.12166,0.13235,-0.07278,20.526,1.561,-28.342,8.064,-54.099,43.687,-0.818874524,9.508102736,2.194897895,2.5
-2.81874,8.70995,3.26314,-4.0318,7.89641,4.19067,1.40736,0.88804,-0.79163,-0.12645,-0.03169,0.60046,22.026,3.436,-27.904,6.697,-53.631,43.893,-2.572747133,9.102761008,2.23099105,2.5
1.8779,11.05626,3.42903,-3.01666,8.24616,4.36704,4.8116,3.08975,-1.46105,-1.02554,-0.72891,-0.2395,20.526,1.561,-30.029,4.201,-58.175,38.29,2.133553072,11.4118256,1.656450453,2.5
-0.04378,8.80512,7.39568,-3.06425,7.9711,4.82102,3.05278,1.07539,2.6881,0.57715,-0.01518,0.57542,18.713,5.623,-29.654,0.102,-54.373,32.44,0.57793339,9.742513861,6.08091722,2.5
2.49207,7.66983,3.09047,-2.31474,8.62147,4.05989,4.76917,-0.72046,-1.03775,0.4408,0.38536,0.32349,19.089,2.686,-28.78,355.837,-60.925,29.416,2.704619165,8.018831238,1.723685205,2.5
1.43535,7.79298,2.98256,-2.38279,8.68452,3.88226,3.79284,-0.59671,-0.82772,0.12175,0.20639,0.05824,21.651,3.061,-31.342,355.435,-62.155,31.156,1.633994721,8.13827195,1.668838512,2.5
1.25963,8.11336,1.75891,-2.49136,8.6875,3.80669,3.64116,-0.26414,-1.81955,-0.20316,0.18988,-0.31354,21.275,1.561,-30.467,357.264,-62.692,32.492,1.373625704,8.272731519,0.426741445,2.5
0.01128,8.42619,2.59547,-2.72296,8.55015,3.95611,2.57194,0.25488,-1.09752,-0.16533,0.16219,-0.07013,21.651,3.061,-27.904,355.844,-61.005,34.351,0.190320629,8.717388706,1.306974323,2.5
0.31096,9.54837,2.31102,-2.62085,8.58813,3.94278,2.83227,1.2864,-1.48202,-0.12326,0.06737,0.05611,20.151,3.81,-35.591,5.171,-61.122,33.828,0.469130277,9.782403461,0.83269354,2.5
0.5629,10.02373,3.79579,-2.75726,8.51112,4.01605,3.27127,1.81554,-0.08984,-0.17172,0.47591,-0.10262,24.213,5.247,-30.904,353.739,-60.594,33.953,0.827359517,10.46790829,2.222254148,2.5
0.26151,9.12286,6.25961,-2.60079,8.43762,4.26766,2.76895,0.98809,2.14513,-0.28998,0.30119,0.58661,24.963,5.998,-30.029,354.011,-59.483,33.262,0.726599397,9.937202641,4.816818078,2.5
1.06926,8.44072,4.22008,-1.94299,8.80654,3.85228,2.94311,-0.05243,0.50488,0.59419,-0.24794,0.47209,24.963,3.061,-30.904,347.844,-62.883,27.615,1.350367438,8.974842275,2.797652624,2.5
-0.45837,8.37427,5.77892,-1.77911,8.9145,3.67924,1.25734,-0.2226,2.23078,0.28368,-0.05141,-0.02965,23.839,0.124,-33.029,348.66,-65.15,25.714,-0.086587601,9.171330918,4.428725465,2.5
-1.54799,7.88876,3.14598,-2.35134,8.81969,3.58533,0.71785,-0.6102,-0.30896,-0.24522,0.52383,-0.75775,25.339,1.186,-32.591,353.411,-64.854,31.11,-1.348226339,8.291738572,1.988807362,2.5
-1.45418,8.47534,2.76975,-2.80482,8.67454,3.61329,1.23044,0.10502,-0.55328,-0.15735,0.41412,-0.1138,27.525,3.81,-30.092,355.037,-63.071,35.449,-1.276733988,8.809120419,1.544956445,2.5
-0.63629,8.86485,3.93829,-2.80138,8.68773,3.58414,2.06045,0.50164,0.48804,0.08659,0.42531,0.40924,31.589,2.686,-31.342,356.784,-61.893,38.206,-0.388846094,9.362857209,2.585780773,2.5
-0.65695,8.97606,2.93742,-2.68084,8.76554,3.4855,2.45011,0.60988,-0.76339,-0.1467,0.41891,0.16104,30.901,3.061,-30.092,350.961,-63.359,37.565,-0.477151506,9.324117802,1.569339456,2.5
-1.14407,9.32433,4.11543,-2.61148,8.76624,3.53604,1.36967,0.88616,0.71173,-0.12379,0.14673,0.20471,32.713,4.498,-29.654,350.148,-63.339,36.81,-0.888067023,9.852172512,2.708288012,2.5
0.20682,9.40176,4.59285,-2.41572,8.77012,3.66329,2.51991,0.99659,1.08871,-0.4407,0.14619,0.11256,31.589,3.81,-33.467,348.545,-63.419,33.402,0.499848141,9.988663386,3.083324881,2.5
0.16211,8.25797,6.69342,-2.37811,8.63484,3.99431,2.3061,0.06732,2.74024,-0.05667,0.34007,0.17062,33.464,5.998,-28.342,340.162,-61.704,30.768,0.627962705,9.165159117,5.35048976,2.5
2.24977,7.29478,4.08379,-2.34186,8.71042,3.84897,4.42435,-1.02639,0.47837,-0.01193,0.12756,-0.0094,35.275,4.874,-28.78,338.583,-62.474,31.066,2.518826952,7.804830937,2.773579978,2.5
2.29994,7.0186,4.83019,-2.37409,8.59656,4.0784,4.57711,-1.22699,0.91829,-0.41887,-0.04715,-0.08557,33.464,7.874,-28.342,340.771,-61.929,30.917,2.637645863,7.635467262,3.552980353,2.5
1.8065,7.59691,5.0811,-2.05594,8.30115,4.79942,3.7761,-0.35562,0.48324,-0.48437,-0.63943,0.17169,34.901,8.936,-28.342,333.632,-58.799,25.945,2.225290291,8.226511765,3.763860824,2.5
1.57962,7.76308,4.19409,-1.38378,7.93934,5.58771,2.8304,0.19067,-1.22588,-0.49556,-1.04636,-0.16653,30.901,11.873,-31.779,331.47,-54.92,15.698,1.980490413,8.24397981,2.909545664,2.5
0.68384,8.46719,3.94965,-0.89946,7.57734,6.15998,1.53111,1.31201,-1.85115,-0.68785,-1.05063,-0.36574,23.839,14.873,-34.341,332.985,-52.581,11.096,1.103708726,8.901387517,2.703295414,2.5
-0.2608,9.04889,4.99031,-0.88287,7.21713,6.58057,0.83103,2.13072,-1.43357,-0.75229,-0.27031,-0.63951,23.839,18.561,-35.155,334.845,-47.387,7.641,0.31280937,9.60375377,3.810995224,2.5
-1.12242,8.19495,5.66628,-1.21021,6.85906,6.90356,-0.04318,1.50587,-1.12039,-0.14882,0.59468,-0.10315,20.151,22.998,-36.905,343.189,-44.835,8.502,-0.433203535,8.824213883,4.740184094,2.5
-1.05008,6.77916,10.6205,-1.05319,6.7917,6.99528,-0.03887,0.25816,3.90403,0.53188,-0.06313,0.86411,22.401,22.623,-38.155,341.162,-43.208,9.634,0.251182123,7.993345007,9.792754551,2.5
1.4946,6.40656,10.71622,-0.60505,7.22426,6.60411,2.17844,-0.64949,4.11526,0.91805,0.23355,0.92909,22.775,19.247,-43.654,338.496,-46.456,5.927,2.717138527,7.672744433,9.584433336,2.5
3.1057,5.89088,6.35147,0.17049,7.96795,5.71429,2.94146,-1.78513,0.84654,1.24986,-0.39122,1.06918,26.463,11.186,-39.404,326.63,-52.071,1.401,3.722669976,6.667203659,5.136062153,2.5
3.80437,7.18227,3.86794,0.77629,8.18485,5.34565,2.97781,-0.66273,-1.31013,-0.14191,-0.35927,-0.04669,24.213,4.874,-42.342,319.585,-56.742,-7.961,4.148176477,7.606924547,2.438549598,2.5
1.7038,8.30399,3.90321,0.58904,7.97988,5.66966,1.1376,0.63357,-1.54657,-0.50888,-0.17072,-0.53564,22.775,6.747,-42.342,319.439,-55.331,-7.182,2.081074336,8.739427781,2.527006991,2.5
0.76907,8.59898,4.88676,0.46571,7.87187,5.82985,0.55465,1.08012,-1.43866,0.06689,-0.29109,-0.12126,23.463,9.686,-43.217,327.228,-53.389,-4.567,1.2614632,9.173072012,3.560591167,2.5
0.17705,8.29916,5.19537,0.41716,7.99105,5.66916,-0.18948,0.58782,-0.32333,0.35185,0.26445,0.11949,20.151,8.186,-44.467,327.852,-54.235,-4.337,0.68940439,8.934861777,3.948700985,2.5
0.32732,8.95616,4.01631,0.41434,8.06485,5.56389,-0.10443,1.10719,-1.18747,0.29486,0.32837,0.45451,23.151,5.623,-44.467,325.477,-55.324,-4.259,0.71518201,9.423939566,2.669937096,2.5
0.73427,9.89362,4.05121,0.70891,8.3989,5.01261,-0.02962,1.80063,-0.56755,0.3412,0.57603,0.31284,24.213,1.186,-44.467,319.429,-58.92,-8.05,1.085436357,10.36761441,2.483862097,2.5
2.5206,9.81689,7.18085,0.77976,8.51611,4.79981,1.2821,1.545,2.71542,0.14412,1.50868,-0.13031,27.901,-3.252,-44.467,312.979,-60.273,-9.227,3.112615162,10.73708363,5.414427247,2.5
1.8595,5.89652,6.66643,-0.85477,8.59656,4.641,2.66443,-2.37523,2.21824,0.04932,2.4248,0.3922,36.775,-3.94,-36.029,319.513,-61.236,10.436,2.392798769,6.800989414,5.539768438,2.5
2.28018,6.36392,3.18152,-1.86914,8.28506,4.9025,4.08156,-1.62075,-1.54324,-1.63966,1.72919,-0.64484,47.464,-3.252,-31.779,318.164,-59.435,19.214,2.543732188,6.726196713,2.026936714,2.5
0.52303,4.78616,7.10808,-2.13578,7.70526,5.67784,2.78809,-2.32007,0.89175,-0.99678,0.649,0.53282,51.901,0.81,-22.404,310.796,-54.544,21.814,1.223701376,5.684363202,6.316348561,2.5
-0.71823,6.31464,6.5381,-2.78934,6.86947,6.41875,1.97441,-0.36481,0.05353,0.34386,0.11638,0.13121,53.714,4.874,-18.155,305.062,-43.967,23.204,0.017193862,7.0560185,5.774910525,2.5
1.31247,4.96063,3.79433,-2.35329,6.68985,6.77335,3.67683,-1.55209,-2.40504,-1.45377,-0.17604,-0.24908,53.026,1.561,-20.654,303.322,-44.504,20.058,1.750821002,5.347756449,3.010563806,2.5
-0.60181,5.05193,7.54518,-2.62116,5.79023,7.46814,1.90001,-0.47466,0.41709,-1.09584,-0.11212,-0.52393,54.088,8.186,-21.092,304.51,-38.685,19.301,0.383979172,5.788797181,7.011155428,2.5
-0.60181,5.05193,7.54518,-2.62116,5.79023,7.46814,1.90001,-0.47466,0.41709,-1.09584,-0.11212,-0.52393,54.088,8.186,-21.092,304.51,-38.685,19.301,0.383979172,5.788797181,7.011155428,2.5
-0.60181,5.05193,7.54518,-2.62116,5.79023,7.46814,1.90001,-0.47466,0.41709,-1.09584,-0.11212,-0.52393,54.088,8.186,-21.092,304.51,-38.685,19.301,0.383979172,5.788797181,7.011155428,2.5
-2.40759,4.30049,10.36585,-3.00882,4.50147,8.17644,0.59373,0.17315,1.97294,-1.45697,0.14514,0.66864,55.963,-1.003,-20.279,289.989,-27.324,20.203,-0.908864556,5.119389156,10.23266192,2.5
-2.24059,2.43158,11.11162,-3.0639,3.3646,8.68691,0.6024,-0.54823,2.79396,-0.63831,0.14568,-0.32791,54.463,0.81,-20.717,287.968,-20.77,19.269,-0.536642833,3.091905451,11.16033418,2.5
-3.36851,4.92691,4.43468,-3.04961,3.17681,8.76231,0.01492,1.405,-3.00556,-0.38638,0.2032,0.29367,52.65,0.497,-21.967,286.298,-19.293,19.428,-2.653634914,5.190666037,4.615506072,2.5
-3.69312,3.40916,6.93555,-4.31665,2.72627,8.37284,0.66815,0.90578,-1.04592,-0.56854,0.43117,0.86945,56.714,-1.752,-16.405,282.196,-16.465,26.863,-2.64384267,3.757249729,7.228867923,2.5
-1.89711,4.62637,7.46426,-4.22434,2.63878,8.44761,2.81603,2.17385,-1.59612,-0.66814,0.12224,0.2926,55.214,-4.689,-11.717,276.11,-15.61,26.568,-0.779989789,4.974214977,7.440853739,2.5
-2.00183,3.47855,9.44675,-3.44925,2.74717,8.75934,2.18335,0.98648,1.69427,0.07755,-0.85301,0.61111,51.526,-7.253,-13.841,273.092,-15.785,22.972,-0.539887816,3.936653984,9.463614297,2.5
-3.54048,4.69778,12.26437,-3.16251,3.21295,8.70895,-0.49945,1.60825,3.88994,0.51804,-0.56805,1.34775,51.151,-9.126,-11.717,270.684,-18.134,20.563,-1.642645934,5.399899765,12.37585164,2.5
-0.95406,4.3613,12.55068,-2.44271,3.96922,8.62837,1.40131,0.534,4.23083,0.84027,-0.82852,0.04652,48.964,-12.814,-13.841,268.259,-21.922,17.434,0.939653263,5.219679592,12.21976814,2.5
1.84811,3.18187,9.31693,-2.09848,5.16052,8.07068,3.87389,-1.79985,1.52587,1.58383,-0.41093,-0.56813,45.964,-14.314,-13.029,269.667,-29.558,14.276,3.137852729,3.975358717,8.64264978,2.5
1.55066,4.94063,6.09485,-1.63782,5.48928,7.95964,3.18469,-0.38223,-1.66473,-0.04976,-0.70547,-0.27573,46.338,-15.002,-13.029,270.272,-34.16,12.247,2.379708512,5.474845605,5.322088007,2.5
1.74889,4.47199,6.37058,-1.28921,5.31673,8.13884,2.98855,-0.64042,-1.45548,-0.12166,-0.5883,-0.33698,43.025,-13.19,-16.405,272.441,-33.147,9.679,2.633173207,5.014168659,5.618372705,2.5
1.56166,5.15451,6.8557,-1.38164,5.68488,7.87043,2.85169,-0.28817,-0.69289,0.88448,-0.1068,-0.5463,43.776,-12.439,-15.591,272.683,-32.833,8.431,2.485723808,5.780685492,6.034337592,2.5
1.86075,6.00353,5.41151,-1.4302,6.18198,7.47717,3.34078,0.08667,-1.82554,0.48128,-0.30814,-0.47386,41.963,-11.69,-16.405,280.783,-38.227,10.748,2.549133865,6.520335868,4.447059727,2.5
1.48973,7.40909,5.83043,-1.58844,6.20342,7.4273,3.43933,0.88368,-1.82471,-0.20422,-0.1377,-0.40408,37.901,-10.252,-21.529,285.491,-39.24,12.072,2.230919542,7.969639568,4.755593258,2.5
1.46254,8.15533,7.03896,-1.59435,5.89324,7.67451,2.98621,2.52335,-0.29533,-0.05774,0.11371,-0.14096,38.213,-6.877,-17.279,283.648,-37.024,11.527,2.389460013,8.808427577,5.907408315,2.5
3.06572,7.85393,6.54599,-1.48566,5.75171,7.80263,3.74115,1.99193,1.39142,-2.63142,-0.62451,0.68941,36.026,-4.689,-18.529,288.828,-35.91,10.78,3.926027196,8.422629344,5.251520355,2.5
0.02855,0.52887,13.10561,-0.44275,4.9064,8.47948,1.233,-4.64733,4.79943,0.61391,0.7614,-0.62939,34.213,-2.127,-20.654,286.363,-30.021,2.989,1.960728999,1.635219077,12.86542391,2.5
-4.05402,5.4997,3.27365,-0.02802,5.73007,7.95839,-4.02681,-0.06415,-4.45388,1.32071,-1.30362,-0.31567,30.525,-2.876,-21.529,288.663,-34.411,1.179,-3.561725407,5.851960363,3.235310589,2.5
-1.25757,6.54135,-0.00459,-0.0641,6.21285,7.58728,-1.27566,0.98874,-7.63115,-0.16907,0.81786,0.72296,31.213,-5.44,-21.967,286.47,-38.148,-0.003,-1.247165858,6.520408161,-0.547373671,2.5
1.06044,4.49796,6.99744,-1.04359,5.61105,7.9748,2.11026,-1.06932,-0.67177,-0.21008,1.39096,0.58661,35.275,-7.253,-16.405,280.309,-34.902,7.455,2.020992731,5.139580679,6.310359937,2.5
1.38277,4.862,7.95572,-1.20429,5.06048,8.31334,2.63257,-0.05352,0.10744,-0.76401,0.41199,0.93335,38.963,-8.752,-13.841,276.015,-32.339,8.745,2.518530929,5.519791903,7.213423383,2.5
0.89346,6.3748,8.58081,-1.23906,5.27129,8.1761,2.02507,1.35572,0.91225,0.53241,0.66499,0.63509,37.901,-11.69,-11.342,267.328,-31.562,8.224,2.104707986,7.116486889,7.745480277,2.5
0.867,7.24439,8.89769,-0.94326,5.72662,7.90484,1.97502,1.48454,1.21394,0.17555,-0.33849,0.56796,37.151,-14.314,-11.279,265.57,-34.649,8.215,2.082445597,8.075731614,7.927656781,2.5
0.60306,5.28146,6.40839,-0.61368,5.90812,7.80307,1.1961,-0.42798,-1.13228,0.5697,0.44926,0.17009,34.213,-16.127,-13.841,264.501,-36.355,4.096,1.467534883,5.898508715,5.690246022,2.5
0.05772,6.36969,6.2612,-1.12052,6.58107,7.18362,1.13819,0.02392,-0.66557,0.58994,0.81465,0.14346,36.775,-17.252,-4.904,259.9,-40.953,7.517,0.840227802,7.038847929,5.433925359,2.5
0.37294,4.17821,9.57384,-1.20785,6.9324,6.83032,1.53882,-2.51327,2.98089,-0.18504,0.02689,1.01645,37.151,-20.94,-1.093,255.69,-44.852,11,1.508904792,5.289655318,8.888064375,2.5
1.10919,5.41493,10.02303,-1.14987,7.14725,6.61552,2.22083,-1.49465,3.62749,1.17477,0.25273,0.05664,36.401,-22.002,1.033,251.514,-45.481,9.419,2.256520512,6.595715352,9.07841142,2.5
1.3557,6.49477,8.87296,-1.12854,7.40264,6.33228,2.44785,-0.66917,2.74487,0.4424,-0.8903,-0.40302,35.275,-22.377,4.033,250.132,-48.614,10.524,2.326066016,7.557601756,7.760248166,2.5
1.11267,6.88939,6.78763,-1.53084,7.70018,5.87657,2.59395,-0.56152,1.1013,0.78595,-0.58351,-1.10342,38.588,-19.064,2.721,259.615,-51.187,13.519,1.801779635,7.7166932,5.655076155,2.5
1.94748,6.65482,5.67314,-1.8033,7.7331,5.75479,3.69114,-0.82251,0.10869,0.16649,-0.63037,-0.97667,38.588,-15.752,2.721,263.519,-52.26,16.085,2.506517999,7.327545568,4.50425005,2.5
0.61937,6.92638,5.23648,-2.65847,7.8992,5.16774,2.96125,-0.4395,0.14906,1.01657,-0.46686,-1.68773,41.588,-11.314,1.846,270.386,-52.298,19.245,1.088512016,7.569719511,4.158553836,2.5
-1.15028,8.62804,4.05196,-3.2755,7.89216,4.81199,1.66494,1.08342,-0.6678,0.49406,-0.50467,-1.04964,43.776,-8.377,0.221,290.751,-53.925,32.005,-0.806321264,9.113976556,2.910305056,2.5
-1.95335,9.05498,4.63179,-3.5232,7.8869,4.64266,1.44994,1.43651,0.14714,-0.06787,0.07111,-0.15056,41.901,-3.94,1.033,295.353,-53.901,36.907,-1.572038679,9.624502887,3.487026843,2.5
-1.16458,9.41068,3.65446,-3.39317,7.81494,4.85628,1.99244,1.77429,-0.8214,-0.6756,-1.1662,-0.07385,40.463,-3.564,-3.654,301.177,-52.835,34.943,-0.851024971,9.831810665,2.425588194,2.5
0.39612,8.41754,3.56386,-3.24241,7.57626,5.31578,3.90921,0.89027,-0.27033,0.41843,-0.9425,-0.87759,41.214,-1.752,-3.217,297.45,-50.766,31.553,0.724589681,8.807077302,2.371359947,2.5
-2.90312,10.05321,4.59699,-3.91678,7.61559,4.77829,1.24301,2.48244,-1.0957,0.00511,-0.16167,-0.81102,41.588,1.186,-2.779,306.267,-51.176,38.399,-2.510099577,10.60368868,3.447990812,2.5
-2.90312,10.05321,4.59699,-3.91678,7.61559,4.77829,1.24301,2.48244,-1.0957,0.00511,-0.16167,-0.81102,41.588,1.186,-2.779,306.267,-51.176,38.399,-2.510099577,10.60368868,3.447990812,2.5
-2.97386,9.98584,4.80905,-3.91678,7.61559,4.77829,1.24301,2.48244,-1.0957,0.00511,-0.16167,-0.81102,41.588,3.061,-4.466,309.821,-50.948,39.342,-2.56292906,10.56569967,3.672218796,2.5
-2.61359,5.19057,3.67014,-5.70973,7.30609,3.19223,2.89621,-1.85969,0.58969,0.27888,-0.04076,-0.57346,38.963,4.561,-13.092,342.338,-48.636,59.651,-2.40515867,5.632943615,3.118967014,2.5
-2.01317,6.8064,5.15102,-5.97472,7.15946,3.03566,3.57807,-0.3973,1.47048,-0.28358,0.73369,-0.10208,40.088,7.874,-10.529,346.606,-47.53,61.601,-1.737559911,7.407695969,4.3611773,2.5
-4.62576,10.27777,4.40491,-5.75138,7.48862,2.64812,0.90416,3.0775,1.85875,0.09299,0.2506,1.21245,42.276,8.249,-8.405,342.901,-46.552,64.413,-4.417304673,10.79143821,3.235077232,2.5
-2.91107,8.74486,1.80151,-4.92412,8.03647,2.70896,1.87512,0.97544,-0.90937,0.20218,0.94409,1.23856,43.776,4.561,-7.904,339.32,-55.034,61.183,-2.822672678,8.92978985,0.695496539,2.5
-2.42429,9.93811,2.46205,-4.51514,8.44301,2.1212,1.84037,2.05015,0.30193,-0.65323,0.68736,0.19299,45.964,0.124,-2.841,335.489,-59.423,64.836,-2.331499748,10.20482389,1.063287808,2.5
-0.36278,7.27043,-1.67879,-5.00322,8.25614,1.72464,4.13072,-0.66164,-3.42498,0.31937,1.53638,-1.13646,45.276,1.936,-4.967,338.848,-58.154,64.57,-0.413140719,6.955684158,-2.693857868,2.5
-4.01308,10.21419,1.6592,-5.4217,8.09556,1.1124,0.42066,3.06975,1.21202,-1.24126,-0.7646,0.50032,46.338,4.185,4.408,341.256,-55.641,78.405,-3.980112241,10.35698479,0.281079687,2.5
-1.98817,9.45802,8.26961,-5.22309,8.02862,2.10497,2.80114,1.73175,6.31405,0.17181,0.37364,-0.19849,47.089,4.874,4.033,330.169,-55.532,67.78,-1.683082248,10.52973468,6.934358917,2.5
-2.95122,8.99448,5.15251,-5.24704,7.93745,2.37398,2.15312,1.28511,2.75259,-0.92221,-0.63358,0.33255,47.838,7.498,3.595,331.028,-54.382,68.082,-2.735260183,9.636098362,3.977774421,2.5
-0.23427,6.03687,6.33704,-4.61026,7.86642,3.61045,4.30654,-1.60027,3.29188,-2.30705,-0.06099,0.44707,47.089,5.247,2.721,322.104,-54.988,58.843,0.165254676,6.847672818,5.453331611,2.5
-0.05721,5.18785,8.31012,-4.30579,6.90583,5.47176,3.95293,-1.43614,2.80322,-1.3302,-1.86128,-0.56015,45.964,6.374,1.033,309.107,-48.051,42.836,0.735463592,6.14550705,7.59387855,2.5
0.25507,7.40733,4.48239,-3.45391,6.60529,6.37268,3.57071,1.06646,-1.63518,-0.1451,-0.74756,0.60632,43.776,7.498,-5.78,303.757,-42.204,30.01,0.751017302,7.867323079,3.544942755,2.5
0.25507,7.40733,4.48239,-3.45391,6.60529,6.37268,3.57071,1.06646,-1.63518,-0.1451,-0.74756,0.60632,43.776,7.498,-5.78,303.757,-42.204,30.01,0.751017302,7.867323079,3.544942755,2.5
0.25507,7.40733,4.48239,-3.45391,6.60529,6.37268,3.57071,1.06646,-1.63518,-0.1451,-0.74756,0.60632,43.776,7.498,-5.78,303.757,-42.204,30.01,0.751017302,7.867323079,3.544942755,2.5
0.46767,8.56314,5.07825,-4.02661,3.91503,8.03924,4.65507,3.06674,-2.98146,-2.51158,0.97391,-1.00436,43.776,11.56,-10.966,294.435,-23.53,26.605,1.173273995,8.882011831,4.366691987,2.5
-2.82066,6.18572,4.69504,-4.12986,3.03129,8.36217,1.52512,3.62242,-2.54289,-0.33151,-0.64636,-0.13777,41.588,18.185,-15.155,311.066,-18.005,26.284,-2.107873204,6.444397736,4.721150679,2.5
-6.83884,9.61734,11.49785,-3.70732,2.54146,8.71591,5.27448,0.83237,2.64047,-0.27293,-2.14038,-0.94312,43.401,19.31,-11.78,308.273,-16.754,25.314,-5.017533053,10.15778706,11.96274383,2.5
-1.46909,5.10324,9.11592,-1.89768,2.72298,9.22792,0.35537,2.48533,0.24406,-0.69371,-1.20189,0.14719,35.275,19.998,-20.279,309.418,-17.262,13.475,0.011772201,5.536136175,8.980664733,2.5
2.20929,5.59242,3.75507,-0.09485,2.97133,9.34519,2.11016,2.54047,-4.68486,-1.04364,0.26338,-0.16547,29.776,17.81,-27.53,313.632,-18.555,2.087,2.789724647,5.758370742,3.052093914,2.5
-0.37416,4.92044,8.76958,-0.43191,2.42169,9.49312,0.28317,2.27021,0.46772,0.38168,-0.73956,-0.17026,28.276,20.749,-27.53,315.921,-14.297,2.605,1.077324161,5.284127491,8.495506352,2.5
1.0352,5.73431,5.94524,-0.10638,2.63557,9.44525,1.13745,3.2011,-3.1332,-0.09236,0.43063,-0.48026,26.088,19.998,-27.092,315.727,-15.625,0.223,1.996810071,5.990107369,5.425052269,2.5
-0.38982,7.13918,5.3353,-0.87316,2.62541,9.40825,0.33805,4.72379,-3.78418,-0.15735,0.82425,-0.1644,27.525,21.873,-27.53,317.267,-15.67,3.314,0.487574896,7.375706853,4.994646728,2.5
0.10899,7.03464,7.6283,-1.47334,3.00204,9.21886,1.52188,4.15579,-1.21227,0.60005,0.34274,0.51045,33.838,21.498,-23.654,313.688,-17.027,8.864,1.329683056,7.418417286,7.133584483,2.5
0.90599,6.62933,6.35884,-1.49662,3.4042,9.07425,2.33955,3.36857,-2.33308,0.44719,0.07697,-0.21446,33.464,18.561,-24.53,314.751,-20.312,9.366,1.897531666,6.982007429,5.731895508,2.5
1.03267,7.73352,5.17726,-1.36383,4.42191,8.64622,2.22203,3.73465,-2.88302,1.09114,0.26764,0.4444,33.089,14.499,-25.78,311.948,-25.09,8.828,1.799247062,8.093162617,4.352147618,2.5
-0.43903,7.73282,6.30571,-1.42626,4.84268,8.40741,0.92404,3.10472,-1.72917,0.09566,0.58936,0.39061,34.526,11.935,-29.218,311.148,-29.233,8.896,0.48765243,8.237243034,5.626833337,2.5
-1.09903,11.27486,5.95471,-1.73793,5.01187,8.2481,0.56446,6.47766,-1.9401,0.17662,0.98404,0.49287,36.026,10.811,-22.842,309.799,-30.174,9.908,-0.233399891,11.76036128,5.0426514,2.5
0.76819,6.27872,8.64882,-2.0847,4.96691,8.19477,1.48699,2.86254,-0.31638,-0.83804,0.95421,1.00633,33.464,11.935,-31.342,308.51,-30.43,14.273,1.993137289,6.98683485,7.875663187,2.5
2.48663,4.31735,8.21672,-2.26999,4.78699,8.25241,4.6596,-0.26504,0.31702,0.78221,0.34647,0.53654,37.526,10.811,-27.966,314.743,-26.391,14.76,3.640263032,4.951103386,7.387312614,2.5
2.79179,5.55161,7.18169,-2.38048,5.18748,7.97457,5.19554,0.52546,-0.44545,0.73322,0.30547,-0.20381,36.026,9.686,-28.78,317.54,-31.936,16.621,3.761134558,6.13690577,6.195433048,2.5
1.0761,6.36638,6.69334,-2.37559,5.68426,7.62995,3.32847,0.93995,-0.60006,0.33588,-0.55421,-0.42273,38.963,7.498,-30.092,315.708,-35.425,17.294,1.955277787,6.978005538,5.828714554,2.5
2.76411,6.9697,4.52229,-1.4983,5.95658,7.64491,4.07613,1.28123,-3.06268,0.3886,-1.45436,-0.81367,34.526,8.249,-33.905,317.84,-37.402,11.089,3.341156759,7.359037811,3.368881569,2.5
1.52649,8.55879,1.88344,-1.2081,6.04718,7.62512,3.17274,2.05351,-3.65393,-0.02632,-0.67725,-1.06348,30.838,10.435,-37.717,324.782,-37.871,9.712,1.762907495,8.686487189,0.753327086,2.5
-0.16946,7.60555,7.20334,-1.53423,5.50783,7.96746,1.69181,2.78363,-0.59536,-0.93979,0.22397,-0.72792,30.151,14.124,-39.78,328.449,-35.142,10.362,0.830636055,8.257406029,6.394255552,2.5
-0.66055,7.05248,6.89893,-1.90592,5.25442,8.05785,1.18428,1.96364,-0.94734,-0.01514,0.18135,-0.07545,29.401,16.31,-39.029,332.088,-32.67,13.092,0.313014863,7.656879703,6.248459851,2.5
-0.3465,7.78635,8.97136,-1.46825,5.38879,8.06074,1.26224,2.56099,1.49203,-0.07478,-0.96593,0.37036,26.463,17.061,-40.216,336.036,-33.221,11.942,0.914913354,8.590708273,8.160592733,2.5
-0.2493,5.91061,7.58736,-1.1868,5.36413,8.1233,0.98944,0.78996,0.71119,0.18141,0.37097,0.07529,27.525,14.873,-40.216,331.755,-33.161,8.312,0.825324855,6.590206623,6.960855435,2.5
-0.44408,7.19769,4.36166,-1.65269,5.34508,8.05414,1.11382,2.12851,-3.23929,-0.34163,0.60747,0.04759,27.901,17.061,-39.029,331.324,-33.547,10.497,0.171407408,7.574486797,3.691313533,2.5
-0.64606,7.73621,5.96629,-2.0265,5.19187,8.06896,1.28169,2.79735,-1.70944,-0.05455,0.4594,0.32349,29.401,17.061,-38.155,331.846,-31.924,13.661,0.197793951,8.247228664,5.27323923,2.5
-1.04884,7.7782,7.10696,-2.41895,5.15832,7.98191,1.10666,2.81253,-0.57672,0.12122,0.57924,0.05132,32.338,17.81,-39.029,334.127,-31.736,16.86,-0.051802799,8.392576333,6.455332678,2.5
-2.13692,7.10611,5.55499,-2.55778,5.45722,7.73608,0.2959,1.91552,-1.80312,0.16116,0.18349,0.136,33.464,15.248,-36.905,332.225,-33.605,18.158,-1.369712475,7.624743319,5.090021353,2.5
-1.28619,6.61038,6.15326,-2.54747,5.4297,7.75881,1.15255,1.39837,-1.08531,-0.20795,0.24101,-0.23683,27.901,15.248,-27.53,330.759,-33.92,17.982,-0.44370443,7.174068251,5.616928715,2.5
-1.04864,6.86507,6.35313,-3.05843,5.49119,7.5275,1.86082,1.64133,-0.80773,0.13293,0.8024,0.24147,33.464,17.061,-23.654,331.336,-33.632,20.595,-0.207329594,7.449420496,5.749281822,2.5
1.38397,8.83542,6.48218,-3.24677,5.78654,7.22113,4.47737,3.32223,-0.39783,-0.22392,0.10838,-0.34656,33.464,14.499,-21.967,325.059,-36.881,23.592,2.187797484,9.421225561,5.334109878,2.5
-0.75154,6.89659,6.93404,-3.87787,5.91103,6.79649,2.9479,1.25754,0.45027,0.67516,0.66339,0.30537,35.651,15.248,-19.405,328.528,-36.333,28.51,0.074337659,7.578157763,6.226931472,2.5
