,ACCELEROMETER_X_mean,ACCELEROMETER_Y_mean,ACCELEROMETER_Z_mean,GRAVITY_X_mean,GRAVITY_Y_mean,GRAVITY_Z_mean,LINEAR_ACCELERATION_X_mean,LINEAR_ACCELERATION_Y_mean,LINEAR_ACCELERATION_Z_mean,GYROSCOPE_X_mean,GYROSCOPE_Y_mean,GYROSCOPE_Z_mean,MAGNETIC_FIELD_X_mean,MAGNETIC_FIELD_Y_mean,MAGNETIC_FIELD_Z_mean,ORIENTATION_Z_mean,ORIENTATION_X_mean,ORIENTATION_Y_mean,PRT_X_mean,PRT_Y_mean,PRT_Z_mean,ACCELEROMETER_X_std_dev,ACCELEROMETER_Y_std_dev,ACCELEROMETER_Z_std_dev,GRAVITY_X_std_dev,GRAVITY_Y_std_dev,GRAVITY_Z_std_dev,LINEAR_ACCELERATION_X_std_dev,LINEAR_ACCELERATION_Y_std_dev,LINEAR_ACCELERATION_Z_std_dev,GYROSCOPE_X_std_dev,GYROSCOPE_Y_std_dev,GYROSCOPE_Z_std_dev,MAGNETIC_FIELD_X_std_dev,MAGNETIC_FIELD_Y_std_dev,MAGNETIC_FIELD_Z_std_dev,ORIENTATION_Z_std_dev,ORIENTATION_X_std_dev,ORIENTATION_Y_std_dev,PRT_X_std_dev,PRT_Y_std_dev,PRT_Z_std_dev,ACCELEROMETER_X_median,ACCELEROMETER_Y_median,ACCELEROMETER_Z_median,GRAVITY_X_median,GRAVITY_Y_median,GRAVITY_Z_median,LINEAR_ACCELERATION_X_median,LINEAR_ACCELERATION_Y_median,LINEAR_ACCELERATION_Z_median,GYROSCOPE_X_median,GYROSCOPE_Y_median,GYROSCOPE_Z_median,MAGNETIC_FIELD_X_median,MAGNETIC_FIELD_Y_median,MAGNETIC_FIELD_Z_median,ORIENTATION_Z_median,ORIENTATION_X_median,ORIENTATION_Y_median,PRT_X_median,PRT_Y_median,PRT_Z_median,ACCELEROMETER_X_variance,ACCELEROMETER_Y_variance,ACCELEROMETER_Z_variance,GRAVITY_X_variance,GRAVITY_Y_variance,GRAVITY_Z_variance,LINEAR_ACCELERATION_X_variance,LINEAR_ACCELERATION_Y_variance,LINEAR_ACCELERATION_Z_variance,GYROSCOPE_X_variance,GYROSCOPE_Y_variance,GYROSCOPE_Z_variance,MAGNETIC_FIELD_X_variance,MAGNETIC_FIELD_Y_variance,MAGNETIC_FIELD_Z_variance,ORIENTATION_Z_variance,ORIENTATION_X_variance,ORIENTATION_Y_variance,PRT_X_variance,PRT_Y_variance,PRT_Z_variance
17703,0.091,9.511000000000001,2.4087,0.2149,9.5177,2.3469,-0.0832,-0.0086,0.0573,-0.0286,0.0867,0.077,19.61,-10.3,-32.96,320.78,-76.14,-5.23,0.19037284699999998,9.777274562999999,0.7975363759999999,0.39598765399999997,0.374724788,0.616813325,0.1343366,0.026861992999999997,0.11176011,0.31551291600000003,0.35971136600000003,0.51505017,0.12154761300000001,0.205069663,0.15828244800000002,0.882483868,0.763034876,0.497102717,2.922631995,0.7011102309999999,3.230084278,0.37363597200000004,0.37881749200000003,0.6297733670000001,0.129,9.5615,2.3635,0.226,9.519,2.331,-0.1245,0.0805,0.166,-0.0035,0.09,0.1165,19.5,-10.15,-32.95,319.75,-76.1,-6.05,0.211630683,9.898596142999999,0.701921441,0.156806222,0.140418667,0.380458678,0.018046322,0.000721567,0.012490322,0.0995484,0.129392267,0.265276678,0.014773821999999999,0.042053567,0.025053332999999997,0.7787777779999999,0.5822222220000001,0.24711111100000002,8.541777778,0.491555556,10.43344444,0.13960384,0.143502692,0.396614494
10504,1.2092,9.1131,3.0339,0.8946,9.3305,2.7887,0.33,-0.1949,0.3457,-0.1981,-1.3289,-0.3533,-24.75,-27.71,9.67,111.18,-72.7,-16.5,1.3569445830000002,9.472707946,1.448175869,0.900752007,0.785099067,0.420824178,0.475885887,0.19448236100000002,0.573747922,0.617136758,0.667008487,0.5156648460000001,0.256740444,0.806670723,0.22157920600000003,8.009751002,3.494901048,9.869712368,23.91409626,4.155585264,7.10977418,0.9254279740000001,0.7644304390000001,0.462179465,1.188,9.135,3.0155,0.9640000000000001,9.2665,3.0515,0.289,-0.2375,0.35200000000000004,-0.11199999999999999,-1.29,-0.2965,-26.0,-27.25,14.4,111.0,-71.25,-17.6,1.3350337829999999,9.486890853,1.459592061,0.811354178,0.616380544,0.17709298899999998,0.226467378,0.037823389,0.329186678,0.380857778,0.444900322,0.265910233,0.065915656,0.650717656,0.049097344,64.15611111,12.21433333,97.41122222,571.884,17.26888889,50.54888889,0.856416935,0.584353896,0.213609858
3391,0.1598,9.7332,2.3918,0.2568,9.4788,2.4844,-0.1785,0.3211,0.1409,0.0839,-0.0603,-0.0221,35.79,-26.72,-2.92,258.01,-75.31,-5.73,0.26577937,9.992044317000001,0.7472570140000001,0.8566021770000001,1.708542966,0.9710469490000001,0.14652098800000002,0.070513671,0.26246786,0.9035723240000001,1.686246091,1.378089938,0.150733355,0.25754484,0.23142719,0.690330034,0.871524845,1.078888317,3.552917424,1.5169047430000002,3.1538512610000002,0.83974441,1.646274955,1.09231057,0.0475,9.235,2.336,0.29600000000000004,9.488999999999999,2.458,-0.19899999999999998,0.1025,-0.0705,0.084,-0.0195,-0.0175,35.75,-26.75,-3.2,257.15,-75.75,-6.6,0.16522482800000002,9.717264589,0.844733547,0.7337672890000001,2.919119067,0.942932178,0.021468400000000002,0.004972178,0.068889378,0.8164429440000001,2.843425878,1.8991318780000002,0.022720544,0.066329344,0.05355854400000001,0.476555556,0.7595555559999999,1.1640000000000001,12.62322222,2.301,9.946777778,0.705170675,2.710221227,1.193142382
24040,-0.1458,9.4159,3.0096,0.3677,9.3811,2.8199,-0.5038,-0.026000000000000002,0.23800000000000002,-0.0202,-0.5981,-0.1529,-33.83,-18.28,0.09,91.11,-73.1,-7.82,0.0030296470000000003,9.780687133999999,1.436769254,0.532709594,0.47855951700000005,0.8046330009999999,0.145100004,0.07159058,0.24072227,0.462471332,0.504864118,0.772926042,0.24244807,0.241274602,0.154118605,0.7746683879999999,1.522278993,5.456178963999999,10.62339661,1.495920378,2.519170939,0.53227733,0.46284086399999996,0.822185224,-0.332,9.34,2.9019999999999997,0.39399999999999996,9.3595,2.898,-0.569,-0.102,0.043,-0.023,-0.5195,-0.1545,-34.0,-17.9,-0.25,91.9,-72.45,-8.25,-0.22102388899999997,9.714983431,1.3593467909999999,0.28377951100000004,0.22901921100000003,0.6474342670000001,0.021054011,0.005125211,0.057947211,0.21387973300000002,0.254887778,0.597414667,0.058781067,0.058213432999999995,0.023752544,0.600111111,2.317333333,29.76988889,112.8565556,2.2377777780000003,6.346222222000001,0.283319156,0.214221665,0.675988542
5154,-0.2088,9.6034,2.1725,0.2147,9.5613,2.1358,-0.4401,0.1015,0.0065,0.0256,1.3044,0.2268,-18.03,-28.73,18.41,139.83,-77.13,-5.9,-0.126358783,9.831497879,0.55299867,0.610368158,0.43920539399999997,0.905807099,0.381799846,0.035990894,0.121332234,0.44550806200000004,0.38957933200000006,0.639169644,0.142484463,0.335758577,0.09822400699999999,9.757509928,1.8018817319999998,5.616137462999999,14.00428903,1.065676624,10.057722300000002,0.617448976,0.523289777,0.8604237929999999,-0.425,9.431000000000001,2.3515,0.013000000000000001,9.552999999999999,2.162,-0.369,-0.139,0.062,-0.001,1.3045,0.2445,-20.2,-29.4,18.85,141.35,-76.9,-1.25,-0.35942127700000004,9.735791053,0.726807262,0.372549289,0.192901378,0.8204865,0.145771122,0.001295344,0.014721511000000001,0.198477433,0.151772056,0.40853783299999996,0.020301822,0.112733822,0.009647956,95.209,3.2467777780000002,31.541,196.1201111,1.135666667,101.15777779999999,0.381243237,0.27383219,0.7403291040000001
4357,-0.5616,9.702,0.6816,-0.0601,9.7791,0.6573,-0.502,-0.0825,-0.0084,-0.0089,1.3326,0.0407,-12.94,-25.96,24.63,158.85,-85.68,4.23,-0.553784531,9.677887033,-0.969968541,0.511543242,0.155753366,0.639726539,0.330941569,0.005065131,0.078511216,0.361665591,0.15501129,0.605069179,0.14000353199999999,0.29320724600000003,0.083344066,11.40362515,0.618600571,5.8980316870000005,8.591630294,0.407703596,27.69304165,0.5054542320000001,0.22212555899999997,0.62457908,-0.7205,9.62,0.7495,-0.154,9.779,0.6665,-0.389,-0.08199999999999999,0.0685,-0.0055,1.3655,0.018000000000000002,-14.6,-26.1,26.4,157.6,-85.7,12.15,-0.709765268,9.667957113,-0.936844418,0.261676489,0.024259111,0.409250044,0.10952232199999999,2.57e-05,0.006164011,0.130802,0.0240285,0.36610871100000003,0.019600989,0.085970489,0.0069462330000000004,130.0426667,0.382666667,34.78677778,73.81611111,0.166222222,766.9045556,0.25548398,0.049339764,0.39009902799999996
8863,-0.1492,9.3861,3.1214,0.4125,9.2917,3.083,-0.5296,0.0984,0.0708,0.0843,0.7818,0.2079,3.32,-32.9,19.53,181.56,-71.34,-7.44,0.018198407,9.76729456,1.565202011,0.97087587,0.468962318,0.8377974029999999,0.345129364,0.084868591,0.223926575,0.57746288,0.373320595,0.947926134,0.247006095,0.998522998,0.265546167,8.244567235,0.5477225579999999,1.7166181219999999,11.84259731,1.510849651,5.566007945,0.9720578240000001,0.43742785,0.862433102,-0.175,9.304,3.0860000000000003,0.485,9.2975,3.0915,-0.6559999999999999,0.1575,0.198,0.0085,0.893,0.2015,6.45,-33.0,19.85,185.45,-71.4,-8.75,0.001734742,9.677812184,1.528996099,0.9425999559999999,0.21992565600000002,0.701904489,0.119114278,0.0072026780000000006,0.050143111,0.33346337800000003,0.139368267,0.8985639559999999,0.061012011,0.997048178,0.070514767,67.97288889,0.3,2.946777778,140.2471111,2.282666667,30.98044444,0.9448964120000001,0.19134312399999998,0.743790855
4517,1.3289,9.6976,1.3557,1.2055,9.6514,1.2376,0.0691,0.0923,0.1382,0.0578,0.0389,-0.0505,-0.5,-28.95,25.97,141.45,-79.69,-43.99,1.357567815,9.782733695,-0.317947255,0.697060885,0.489461881,0.694128718,0.148922239,0.027146516000000002,0.126000176,0.708524515,0.454372351,0.677694589,0.160743965,0.779989095,0.127547159,3.03937128,0.579750904,0.874388675,6.736674089,0.8595218309999999,3.9031184110000003,0.696605562,0.43823399700000004,0.729048025,1.0105,9.763,1.227,1.266,9.652999999999999,1.2135,0.0915,0.1885,0.0075,0.066,-0.0515,-0.045,0.3,-29.0,25.95,143.6,-79.7,-43.25,1.0282339329999999,9.915901462,-0.389693969,0.48589387799999995,0.23957293300000002,0.481814678,0.022177832999999997,0.000736933,0.015876044,0.502006989,0.20645423300000001,0.45926995600000003,0.025838622000000002,0.608382989,0.016268278,9.237777778,0.336111111,0.7645555559999999,45.38277778,0.738777778,15.23433333,0.48525930899999997,0.192049036,0.531511023
2378,0.3817,9.9386,2.0767,0.6152,9.6256,1.76,-0.1647,0.2121,0.1856,-0.0479,-0.0298,0.0023,10.44,-31.21,26.54,181.93,-79.0,-19.12,0.445863257,10.14369869,0.37276896200000004,0.557726745,2.202932046,1.4476160519999999,0.11756964800000001,0.034593513,0.16766567300000002,0.503292945,2.036387621,1.209798992,0.19122729300000002,0.122557741,0.204261842,0.916757571,0.896226658,0.64670103,3.070305812,0.94985379,3.103331543,0.5589357,2.329138456,1.234599902,0.612,9.869,1.671,0.5935,9.63,1.754,-0.11599999999999999,0.27399999999999997,-0.188,0.0145,-0.0495,-0.0665,10.6,-31.3,26.45,182.75,-79.15,-18.45,0.653076477,10.20727261,-0.045894320999999995,0.31105912199999997,4.852909599999999,2.095592233,0.013822622,0.001196711,0.028111777999999997,0.253303789,4.146874544,1.4636136,0.036567878,0.015020400000000001,0.04172290000000001,0.8404444440000001,0.803222222,0.41822222200000003,9.426777778,0.902222222,9.630666667,0.312409117,5.424885947000001,1.5242369169999999
431,0.825,9.5796,0.7782,0.7837,9.7179,1.0231,0.0448,-0.1844,-0.1919,0.0321,0.0503,-0.054000000000000006,33.22,-29.91,-14.97,250.29,-82.4,-38.33,0.84224493,9.570418165,-0.865296403,0.47599136299999995,1.733424818,1.3352085809999998,0.150457118,0.031288798,0.23493235399999998,0.387492165,1.7546720619999998,1.187427326,0.25263168199999997,0.325021042,0.137753403,0.6908931420000001,0.43063261,0.758727004,7.251888642999999,1.1508451000000002,7.4347607,0.48828249700000004,1.8837499359999998,1.109753776,0.7865,9.6455,0.5565,0.8255,9.724,1.015,0.0615,-0.1,-0.2875,-0.061,0.0055,-0.001,33.05,-29.9,-15.15,250.4,-82.35,-37.75,0.796358929,9.60235977,-1.045827324,0.226567778,3.0047616,1.782781956,0.022637344,0.000978989,0.055193211,0.150150178,3.078874044,1.4099836559999999,0.063822767,0.10563867800000001,0.018976,0.47733333299999997,0.18544444399999999,0.575666667,52.58988889,1.324444444,55.27566667,0.238419797,3.548513822,1.231553444
3316,-0.2593,9.9227,1.2646,-0.2453,9.7106,1.2753,0.0434,0.2024,-0.2079,-0.0423,-0.0661,-0.1133,32.9,-16.59,-12.06,296.7,-82.31,9.52,-0.23257429,9.99478117,-0.42209355600000004,0.926189212,2.26635503,1.522978529,0.365622468,0.030884012000000002,0.271043682,0.825909357,2.2370130980000003,1.5283632090000001,0.40102979899999996,0.649782947,0.233813815,3.795904225,2.583903163,1.825254929,20.02509537,1.230582518,17.65476329,0.92049956,2.399384228,1.306769764,-0.1525,9.9875,0.643,-0.2875,9.708,1.3095,0.1425,0.2835,-0.5175,-0.069,-0.04,-0.0375,33.45,-15.85,-12.3,298.35,-82.4,10.0,-0.101283985,10.0208065,-0.9865698759999999,0.857826456,5.136365122,2.3194636,0.133679789,0.000953822,0.07346467799999999,0.682126267,5.0042276,2.3358941000000004,0.1608249,0.422217878,0.0546689,14.40888889,6.676555556,3.331555556,401.00444439999995,1.5143333330000002,311.6906667,0.8473194390000001,5.757044673999999,1.7076472169999999
14402,0.299005,1.2062700000000002,10.325379,-0.09526699999999999,1.084639,9.658251,0.44004799999999994,0.09212000000000001,0.45017399999999996,0.051179,-0.344086,-0.08631599999999999,33.9257,-16.0202,-9.1858,246.3925,-6.2738,1.1836,2.024452506,1.3986181999999998,10.10847066,1.765096021,0.420842229,1.326587448,1.331268197,0.27814714,0.20652573100000002,0.67766335,0.445994118,1.20614554,0.142920713,0.509227424,0.950035713,3.659087289,1.4598791269999998,2.868573505,3.010501296,1.6324427369999999,7.09251233,1.858052295,0.47120212200000006,1.136528735,-0.33205500000000004,1.055,9.923865,-0.6142449999999999,1.181525,9.72369,0.276265,-0.10442,0.032095,0.048780000000000004,-0.21625500000000003,0.105645,35.213,-15.814,-7.904,247.4615,-6.75,4.038,1.23860531,1.24803756,9.847118834,3.115563963,0.177108181,1.7598342569999998,1.772275012,0.077365831,0.042652878,0.459227616,0.198910753,1.454787064,0.02042633,0.259312569,0.902567855,13.38891979,2.131247067,8.228713956,9.063118056,2.664869289,50.30373116,3.452358331,0.22203144,1.291697565
8773,-0.021,9.9551,1.0528,0.3076,9.7166,1.1735,-0.3456,0.2478,-0.1658,-0.1327,0.8125,0.0097,-16.42,-20.07,-30.09,116.29,-82.64,-22.54,0.000898425,9.989933675,-0.642777656,1.130433447,0.74649335,1.002746207,0.270068798,0.041950235,0.495063015,1.056200339,0.614075963,1.083254848,0.32930096,0.814172688,0.166403826,7.734741251,2.314231334,6.630644346,164.8022414,2.260874954,24.968299899999998,1.129573963,0.786134041,0.9734961529999999,0.22,9.899,0.804,0.2775,9.689,1.4975,-0.071,0.24,-0.6305,-0.2005,0.9109999999999999,-0.027999999999999997,-15.95,-19.65,-32.1,20.4,-81.35,-10.55,0.243769647,9.970599678,-0.8711123390000001,1.277879778,0.5572523220000001,1.005499956,0.072937156,0.001759822,0.245087389,1.115559156,0.377089289,1.173441067,0.108439122,0.662877167,0.027690232999999998,59.82622222,5.3556666669999995,43.96544444,27159.77878,5.111555556,623.4159999999999,1.2759373379999999,0.618006731,0.94769476
3242,0.0983,9.8767,2.4458,0.1679,9.5173,2.3039,-0.0784,0.4721,-0.1288,-0.1324,0.2064,0.0406,36.18,-20.7,-9.72,272.8,-76.75,-4.57,0.203018571,10.14179773,0.769245214,1.044438611,1.95545613,1.958541453,0.165649194,0.125615861,0.48948577299999996,0.868211085,1.973480313,1.6672234940000001,0.54944744,0.49425279200000005,0.259029471,1.6890497,0.795822426,1.869521626,4.392417709,3.034706649,5.110131549,1.0850976079999999,2.043625124,1.8585603309999998,0.4635,10.19,2.003,0.1635,9.58,2.0869999999999997,0.258,1.0635,-0.314,-0.127,0.1745,0.03,36.45,-20.65,-10.25,273.45,-77.55,-3.75,0.5390839510000001,10.64557109,0.289469934,1.090852011,3.8238086780000002,3.835884622,0.027439656,0.015779344,0.239596322,0.753790489,3.8946245439999996,2.7796341780000002,0.301892489,0.24428582199999999,0.067096267,2.852888889,0.6333333329999999,3.4951111110000004,19.29333333,9.209444443999999,26.11344444,1.17743682,4.176403646,3.454246504
13584,-2.4136439999999997,8.887819,3.8710980000000004,-4.526101000000001,7.667161999999999,3.82131,2.072461,1.3957979999999999,-0.106735,-0.06046,-0.001873,-0.141604,41.7508,2.5486,-5.9666,322.7636,-51.4076,49.431999999999995,-2.142375918,9.337865653,2.783915445,1.3161100540000001,1.68239036,1.070154195,1.011299164,0.36460337600000003,1.18176396,1.046006954,1.5343326030000002,1.111487539,0.36960463,0.69067098,0.811647785,1.9633064969999998,3.8682121680000003,3.7496268610000003,20.032552399999997,3.7484729389999996,13.85305478,1.343345263,1.6905268119999999,1.159276113,-2.758355,9.674395,4.037525,-4.21596,7.615589999999999,3.98526,1.857745,1.91222,-0.5458649999999999,0.00511,-0.101215,-0.33776999999999996,41.588,2.1235,-4.06,322.655,-51.062,49.4965,-2.457629124,10.01831728,3.177022123,1.732145675,2.830437323,1.1452300009999998,1.0227259990000002,0.132935622,1.396566058,1.094130549,2.3541765359999998,1.23540455,0.136607582,0.477026403,0.658772126,3.8545724000000003,14.96306538,14.0597016,401.3031556,14.05104938,191.9071267,1.804576495,2.857880904,1.343921106
6569,-0.1753,9.7558,0.4805,-0.3758,9.7511,0.6265,0.2277,-0.032,-0.1622,0.0311,1.2005,0.0626,29.57,-23.47,1.88,267.95,-84.25,40.41,-0.16471171199999998,9.694927356,-1.185529769,0.948892928,0.641549478,1.0440968720000001,0.369098541,0.043390859000000004,0.68899996,0.8889136999999999,0.619102756,0.962168015,0.379119286,0.669134972,0.30341508100000003,2.631877235,1.29704793,12.02514033,98.27231157,2.65507899,48.57009711,0.949496785,0.61512019,1.066146275,-0.0885,9.7665,0.46799999999999997,-0.4815,9.77,0.757,0.2285,-0.027000000000000003,-0.2655,0.134,1.168,0.17600000000000002,30.5,-23.3,-1.5,291.7,-84.7,23.25,-0.056668755,9.697316249,-1.095851752,0.9003977890000001,0.41158573299999995,1.090138278,0.136233733,0.001882767,0.474720944,0.790167567,0.383288222,0.925767289,0.14373143300000002,0.44774161100000004,0.09206071099999999,6.926777778,1.682333333,144.60399999999998,9657.447222,7.049444444,2359.054333,0.901544145,0.378372848,1.136667881
2681,0.7267,10.1893,1.9898,0.6703,9.6751,1.4038,0.0533,0.3127,0.3774,-0.006,-0.1169,-0.0052,22.32,-30.47,21.63,197.14,-80.81,-26.46,0.777625795,10.37603538,0.234043831,1.148222496,2.400600159,1.879757242,0.24108967899999997,0.035132922000000004,0.317483438,0.9332722659999999,2.29451864,1.848257931,0.5400465,0.21699843800000002,0.379461548,2.1389509369999997,0.812472222,1.750587203,14.1700937,1.377154877,11.76588288,1.103461236,2.516566393,1.746516543,0.9795,10.08,1.8015,0.6829999999999999,9.6665,1.4795,0.31,0.36,0.248,0.005,-0.1025,-0.1125,22.65,-30.45,21.35,199.45,-80.7,-24.85,1.0241566020000001,10.12833299,-0.318997411,1.3184148999999998,5.7628811220000005,3.533487289,0.058124233,0.001234322,0.10079573300000001,0.870997122,5.264815789,3.416057378,0.291650222,0.047088322,0.143991067,4.575111111,0.660111111,3.064555556,200.79155559999998,1.896555556,138.436,1.217626698,6.333106412,3.0503200360000005
1871,0.3716,10.0421,1.8735,0.4316,9.6474,1.6981,-0.0947,0.3918,0.1516,0.046,0.1312,0.054000000000000006,10.56,-30.87,27.1,186.29,-79.61,-13.94,0.426356234,10.21195734,0.151261465,0.949933237,2.0042666959999997,1.383499368,0.088958417,0.029639312999999997,0.15601314,0.8802610790000001,1.965174281,1.456764543,0.287151528,0.157339548,0.158262089,2.138119631,0.559861094,1.343296112,6.697503681000001,1.136710654,3.104548634,0.9588891359999999,2.175261541,1.088932493,0.3605,10.267999999999999,1.8219999999999998,0.4525,9.658,1.651,-0.201,0.5885,0.095,0.07,0.134,0.046,10.95,-30.9,27.55,189.1,-80.0,-13.75,0.454922867,10.43193048,-0.081017014,0.9023731559999999,4.017084989,1.9140705000000002,0.007913600000000002,0.000878489,0.0243401,0.774859567,3.8619099560000003,2.1221629330000003,0.08245599999999999,0.024755733,0.025046889,4.571555556,0.313444444,1.804444444,44.85655556,1.2921111109999999,9.638222222000001,0.919468375,4.731762773,1.185773974
3182,0.6529,10.2261,0.1008,0.6938,9.7768,-0.0258,-0.0344,0.504,0.0606,-0.0081,0.0667,0.0369,33.71,-26.17,-12.1,194.15,-85.57,-94.89,0.650565983,10.09485772,-1.636961638,0.793091343,1.713068037,1.50316376,0.096698615,0.0066633330000000005,0.314980352,0.723792819,1.721765631,1.458018915,0.320620735,0.243252064,0.192076634,0.49766119700000006,0.6429964579999999,0.783156008,23.82483531,0.5292552420000001,25.920453100000003,0.796012616,1.794589051,1.403388206,0.9279999999999999,10.347000000000001,-0.2455,0.7,9.7755,-0.064,0.158,0.56,-0.1485,-0.1015,0.0025,0.106,33.75,-26.2,-12.15,193.45,-85.45,-95.75,0.929331204,10.27604653,-2.131982784,0.628993878,2.9346021,2.259501289,0.009350622,4.44e-05,0.09921262199999999,0.523876044,2.9644768889999997,2.125819156,0.102797656,0.059171567,0.036893432999999996,0.24766666699999998,0.41344444399999997,0.6133333329999999,567.6227778,0.280111111,671.8698889,0.6336360839999999,3.2205498610000003,1.969498456
2500,0.9838,9.4975,0.9139,0.914,9.6956,1.1354,0.2096,-0.1864,-0.3061,0.0236,0.0176,-0.0029,5.3,-29.49,29.54,154.66,-81.43,-39.03,1.001037538,9.512533128,-0.71767883,0.708159084,1.727450868,0.9555022470000001,0.093135505,0.025855152000000003,0.19182526800000002,0.7737558040000001,1.7184808669999998,0.9165962940000001,0.252692259,0.18144922800000002,0.167396037,1.102522361,1.015928694,0.485798312,5.564410721000001,1.084281636,4.573364917,0.709219808,1.7431752619999998,0.9257868579999999,0.8640000000000001,9.2375,0.679,0.9470000000000001,9.699,1.1005,0.106,-0.457,-0.3885,0.0795,0.0135,0.0465,5.1,-29.3,29.8,155.05,-81.35,-38.75,0.868439882,9.362679388,-0.9315409490000001,0.501489289,2.9840865,0.9129845440000001,0.008674221999999999,0.000668489,0.036796933,0.598698044,2.9531764889999996,0.8401487670000001,0.063853378,0.032923822,0.028021433,1.215555556,1.0321111109999999,0.23600000000000002,30.96266667,1.175666667,20.91566667,0.502992736,3.038659993,0.857081306
15635,-0.179779,2.149652,9.713017,0.169759,1.951817,9.597119000000001,-0.31037600000000004,0.276805,0.6989850000000001,-0.125865,-0.209972,-0.41543100000000005,42.1923,-6.4947,-20.0238,266.9128,-11.6947,-0.7864,1.441273707,2.47944728,9.529478795,0.723993214,0.588654913,1.2962212020000001,0.356222889,0.34849155,0.064808817,0.626423716,0.8002087,1.475428754,0.24561074600000002,0.178725773,0.582392542,2.424440923,8.742691081,2.661236672,10.47745116,2.079033325,1.995073945,0.711305805,0.535729471,1.3090479940000002,-0.29096,2.3435650000000003,9.31973,0.11756,1.95773,9.608495,-0.41222,0.33252,0.123575,-0.110205,-0.225845,-0.36813,42.3045,-4.0445,-21.1175,268.381,-11.575,-0.6375,1.178549979,2.689908012,9.084713466,0.524166174,0.346514606,1.680189404,0.126894747,0.12144636,0.004200183,0.392406672,0.640333964,2.176890009,0.060324639000000006,0.031942902,0.33918107299999994,5.877913789,76.43464734,7.082180622,109.7769828,4.322379567,3.980320044,0.505955949,0.287006066,1.71360665
15233,1.3078969999999999,1.181555,9.741311,5.253305,3.6854739999999997,6.85999,-3.590029,-2.179886,3.659243,-0.305843,-0.00091,0.10548800000000001,39.4632,18.9167,-5.4418,287.8888,-23.3576,-37.0959,2.486369641,1.760466883,9.328030223999999,1.539041817,1.949222229,3.0228446360000003,1.3827432430000002,2.447611272,0.9536228809999999,0.707345349,1.1831582729999999,2.983808256,0.841757677,0.777981041,0.481234764,2.237314601,1.389711645,3.6557264910000002,9.192280189,17.58926957,5.958524956000001,1.801331579,2.077028228,3.105292927,1.53551,0.88945,9.627335,5.1519699999999995,3.70191,7.001060000000001,-3.3044849999999997,-2.28385,2.99575,-0.47878999999999994,-0.38963000000000003,0.19726,38.8695,18.623,-5.9355,285.9455,-22.4655,-37.001,3.097023594,1.684559015,9.327353652000001,2.368649714,3.7994672999999994,9.137589696000001,1.911978875,5.990800938,0.909396599,0.5003374420000001,1.3998635,8.903111707999999,0.708555987,0.605254501,0.231586898,5.0055766219999995,1.931298456,13.36433618,84.49801507,309.382404,35.50401966,3.2447954589999997,4.31404626,9.642844165
5936,0.2442,9.8995,0.2603,0.1722,9.7906,-0.1613,0.0473,0.1911,0.3652,0.1651,1.7411,-0.0984,-16.91,-23.51,22.48,152.61,-87.17,5.91,0.24999230600000003,9.800346487,-1.4234227519999998,1.3525201,0.751164762,1.246446153,0.395990685,0.01385801,0.35811204,1.418405133,0.831501112,0.936298955,0.245108343,0.37003947200000004,0.197894585,13.08896482,1.575824299,7.694702362,88.5233108,1.4825278709999998,115.36152299999999,1.3591252980000001,0.817629515,1.192743343,0.4345,9.734,0.669,0.0725,9.7925,-0.012,0.195,-0.0155,0.541,0.1165,1.7919999999999998,-0.121,-18.85,-23.15,24.8,117.35,-87.45,-24.85,0.434639402,9.684894042,-0.9463692990000001,1.829310622,0.5642484999999999,1.553628011,0.15680862199999998,0.00019204400000000002,0.128244233,2.011873122,0.6913941,0.876655733,0.060078099999999995,0.136929211,0.039162267,171.321,2.4832222219999998,59.20844444,7836.376556,2.197888889,13308.281,1.847221575,0.6685180239999999,1.4226366830000001
12829,-1.2564,9.6219,1.8781,-0.8923,9.666,1.3078,-0.3286,-0.0559,0.5396,-0.0399,1.7723,0.2178,-17.23,-27.58,13.2,166.83,-80.59,32.31,-1.2105335,9.805339672999999,0.265628688,0.923869543,0.772105843,0.930853426,0.413977737,0.054699177,0.284129,0.885998395,0.8504537940000001,0.715230996,0.347135084,0.786154925,0.14415408400000002,13.38888843,1.333999833,11.63366762,26.09431824,2.001360648,14.65336139,0.9051009990000001,0.8720325790000001,0.862163797,-1.0775,9.838,1.761,-1.0490000000000002,9.6465,1.4205,-0.1345,0.1065,0.49700000000000005,-0.156,2.0275,0.271,-21.45,-27.85,15.55,168.7,-80.15,37.9,-1.025480474,10.01562662,0.089874337,0.8535349329999999,0.596147433,0.8664881,0.17137756699999998,0.0029920000000000003,0.08072928900000001,0.784993156,0.723271656,0.511555378,0.120502767,0.6180395670000001,0.0207804,179.26233330000002,1.779555556,135.34222219999998,680.9134444,4.005444444,214.72099999999998,0.819207818,0.760440819,0.743326413
4652,-0.3507,9.7307,2.2563,0.1103,9.5754,2.0869,-0.4346,0.1776,0.1702,-0.0656,-0.0815,-0.0046,-1.58,-31.64,24.61,173.76,-77.76,-3.95,-0.266791803,9.971997179,0.617401911,0.392685922,0.330395067,0.885042002,0.17381794399999997,0.06450357400000001,0.301808052,0.30891214100000003,0.360435292,0.832164353,0.201935193,0.293737317,0.047162132,1.26912043,0.9582391259999999,1.6562675580000001,4.0757276110000005,1.746234043,5.57618946,0.398785034,0.41126234799999994,0.852420453,-0.3365,9.717,1.8925,0.1365,9.5845,2.0705,-0.3975,0.2015,0.1295,-0.021,-0.1125,-0.0055,-1.5,-31.45,24.5,173.8,-78.25,-3.5,-0.268300947,9.956057917,0.260685151,0.154202233,0.10916089999999999,0.783299344,0.030212678,0.004160711,0.0910881,0.095426711,0.1299136,0.6924975109999999,0.040777822000000005,0.086281611,0.0022242670000000003,1.6106666669999998,0.918222222,2.743222222,16.61155556,3.0493333330000003,31.09388889,0.15902950400000002,0.169136719,0.726620629
7851,1.5036,9.7657,0.4862,0.8253,9.7591,0.3497,0.6316,0.0646,0.1607,0.1232,-0.0006,-0.0131,-32.19,-21.7,-11.51,148.6,-84.53,-66.85,1.504398747,9.705371777,-1.185256155,0.328831669,0.605684012,0.6928900509999999,0.2427912,0.025597092000000002,0.290716758,0.246498682,0.538175353,0.892832328,0.184256946,0.857540825,0.253079017,0.921894185,1.3735598519999999,3.791056727,170.9337428,1.5832807009999998,17.85168837,0.327474058,0.599689538,0.701745996,1.565,9.668,0.231,0.8505,9.764,0.3835,0.6575,0.09,-0.11,0.07,0.4255,0.0125,-32.3,-21.65,-12.6,37.15,-84.55,-63.55,1.5680428919999998,9.689005548999999,-1.398370476,0.10813026699999999,0.36685312200000003,0.48009662200000003,0.058947567,0.0006552109999999999,0.08451623300000001,0.0607616,0.28963271100000004,0.7971495670000001,0.033950622,0.735376267,0.064048989,0.849888889,1.8866666669999999,14.37211111,29218.344439999997,2.506777778,318.6827778,0.107239259,0.359627542,0.492447443
5055,0.7365,9.7715,1.0312,0.7490000000000001,9.7304,0.87,0.0043,0.0925,0.1184,-0.1189,-0.1327,-0.0251,13.42,-27.98,22.37,164.98,-83.48,-45.75,0.755855956,9.80299436,-0.645685236,0.583757037,0.932061425,1.6787640819999998,0.087863531,0.046835884,0.42618618799999997,0.639042174,1.011289084,1.570448853,0.23673306600000002,1.091444919,0.15050467,5.357196613,1.027186016,3.357925947,20.27613814,1.929190965,11.48518369,0.57381943,0.987766215,1.650461142,0.654,9.6335,1.5645,0.738,9.746,0.772,-0.061,0.061,0.5115,-0.1265,-0.3975,0.018000000000000002,15.25,-27.8,20.85,169.75,-84.25,-46.55,0.696245309,9.664317281,-0.199637595,0.340772278,0.8687385,2.8182488439999998,0.00772,0.0021936,0.181634667,0.40837490000000004,1.022705611,2.4663096,0.05604254400000001,1.191252011,0.022651656000000003,28.69955556,1.055111111,11.27566667,411.1217778,3.7217777780000003,131.9094444,0.329268739,0.9756820959999999,2.724021982
15392,-1.355582,4.396691000000001,8.493667,-7.489463000000001,-3.105182,-5.373542,1.770964,5.664032,10.962551,0.068597,-0.020512,-0.233643,-13.8301,-40.7298,3.8405,197.7457,17.9213,126.3332,-2.1469760780000002,3.934474023,8.551764052000001,1.062468352,1.4769244030000002,1.84368138,0.379674035,0.884497113,0.898998532,1.127667875,1.1645606640000001,1.971634961,0.7026912040000001,0.463995461,0.306973231,3.29499204,2.313080284,4.17816917,1.585466146,5.642306444,5.983619971,1.072963307,1.5610469830000002,1.794337355,-1.515735,4.4338,7.628825,-7.53885,-3.4802800000000005,-5.0536,1.731815,5.90661,10.597475,-0.148025,-0.1329,-0.148955,-12.33,-41.605,6.153,197.7105,18.8575,126.0475,-2.3795188030000003,3.981382305,7.744860066,1.128838998,2.181305692,3.399161032,0.144152373,0.782335143,0.80819836,1.2716348370000001,1.356201541,3.88734442,0.493774929,0.215291788,0.094232565,10.85697254,5.3503404,17.45709761,2.5137028999999997,31.83562201,35.80370796,1.151250258,2.436867684,3.2196465439999997
19913,0.3247,9.4656,2.7018,0.43,9.4279,2.6544,-0.1152,0.0327,0.0184,0.0259,0.4021,0.1715,-34.57,-12.1,-18.32,58.98,-74.02,-8.94,0.45052687799999996,9.777126763,1.097382088,0.46654356700000005,0.316298101,0.615108446,0.184845882,0.040062312999999995,0.15939482800000002,0.33502928600000004,0.286402999,0.5485322229999999,0.20449909,0.186581201,0.099395115,1.790747826,1.599305405,4.284805195,11.40485277,0.854790423,4.244525886,0.47453950100000003,0.278016113,0.6302853070000001,0.177,9.4455,2.819,0.3495,9.425,2.6565,-0.1845,0.0165,-0.0015,0.057,0.4575,0.1785,-34.8,-12.75,-17.75,62.35,-74.0,-7.15,0.282415701,9.726550834,1.2437910890000001,0.2176629,0.100044489,0.37835840000000004,0.034168000000000004,0.001604989,0.025406711000000002,0.11224462199999999,0.08202667799999999,0.3008876,0.041819878,0.034812544,0.009879389,3.206777778,2.557777778,18.35955556,130.0706667,0.730666667,18.016,0.225187738,0.07729295900000001,0.397259569
14204,4.286319000000001,8.059856,2.786052,4.763227,7.892313000000001,3.3383839999999996,-0.313033,0.371514,-0.419505,0.04713,0.05443099999999999,-0.034707,22.0068,-23.1886,-15.6546,229.7437,-53.4527,-55.0157,4.441324955,8.33113635,1.400575828,0.33822001100000004,0.24092231600000003,0.151422153,0.173628864,0.12436310800000001,0.09181982400000001,0.209582188,0.230741657,0.152923894,0.06598358900000001,0.073190818,0.107852066,0.9316299690000001,0.475679444,1.983602962,3.155702072,1.276805567,1.010719661,0.33735689399999996,0.24895151100000001,0.14415577,4.37146,8.050965,2.81708,4.81548,7.86543,3.31359,-0.411685,0.40336500000000003,-0.457005,0.04212,0.07297000000000001,-0.033905000000000005,21.588,-23.375999999999998,-15.03,229.315,-53.3485,-55.2435,4.526509133,8.316440282,1.428485333,0.114392776,0.058043562,0.022928669,0.030146982000000003,0.015466183,0.00843088,0.043924693,0.053241712000000004,0.023385717,0.004353834,0.005356896,0.011632068,0.8679344000000001,0.226270933,3.9346807110000004,9.958455567,1.6302324559999999,1.021554233,0.113809674,0.061976855,0.020780886000000002
12723,-0.2286,9.4938,2.7756,-0.3975,9.4911,2.3847,0.1989,0.0102,0.3499,0.1452,-0.33299999999999996,0.0213,0.11,-32.04,20.87,186.19,-75.39,9.27,-0.11139643,9.822650771000001,1.181194412,0.38256799,0.5732588710000001,0.677279394,0.358330465,0.11390976,0.36466119700000005,0.147348755,0.612347723,0.658538019,0.185814005,0.23712069100000002,0.125553928,2.345894759,1.61740533,2.057533583,2.800972053,2.627398375,6.896706138,0.366385034,0.606288884,0.65407666,-0.1065,9.6765,2.805,-0.2425,9.539,2.2585,0.248,0.141,0.364,0.161,-0.3195,0.0235,-1.1,-32.1,20.95,186.55,-76.3,6.45,0.00038405300000000003,9.877015649,1.275414249,0.146358267,0.32862573300000003,0.45870737799999994,0.128400722,0.012975433,0.132977789,0.021711656,0.37496973299999997,0.43367232200000005,0.034526844,0.056226222,0.015763789,5.503222222000001,2.616,4.233444444,7.845444444,6.903222222,47.56455556,0.134237993,0.367586211,0.427816277
7623,-0.0753,9.5547,2.7673,-0.0145,9.492,2.4442,-0.0663,0.0652,0.3242,0.1241,-0.2169,-0.0568,3.03,-32.76,20.69,185.67,-75.4,0.19,0.043090885999999995,9.880381507000001,1.155179556,0.517331411,0.534978099,0.7871663740000001,0.109693766,0.077720296,0.301001218,0.5113550729999999,0.592633445,0.758819815,0.27583467300000003,0.43998976,0.087411924,3.595382842,1.2393546709999999,0.965459016,7.782037722,1.882079228,2.4803449580000003,0.519243343,0.581963009,0.7500583740000001,-0.071,9.6095,2.8560000000000003,0.0175,9.4795,2.509,-0.1755,0.168,0.467,0.23,-0.217,-0.0595,3.6,-32.65,20.6,187.8,-75.15,0.0,0.061873076,9.866072581000001,1.2112573629999999,0.267631789,0.286201567,0.6196309,0.012032722,0.006040444,0.090601733,0.261484011,0.35121440000000004,0.575807511,0.076084767,0.193590989,0.007640844,12.92677778,1.536,0.932111111,60.56011111,3.542222222,6.152111111,0.269613649,0.338680944,0.562587564
9067,-0.7476,9.2667,3.6856,-0.2158,9.1836,3.407,-0.5373,0.0794,0.2729,0.0753,1.27,0.3802,-5.18,-33.24,17.6,172.67,-69.28,2.91,-0.526776178,9.741964464,2.196486379,0.929315662,0.59069113,0.55978611,0.397073965,0.072368194,0.18498948899999998,0.61484344,0.5239902879999999,0.5168708089999999,0.287167025,0.207441558,0.219379833,11.55718151,0.798888116,2.976948475,18.43686223,1.268244631,6.879833654,0.91444101,0.553735887,0.624620164,-1.057,9.1005,3.6355,-0.3305,9.18,3.4355,-0.6005,-0.0765,0.12300000000000001,0.127,1.3130000000000002,0.46,-4.65,-33.45,17.75,175.0,-69.5,4.95,-0.8367783529999999,9.559929825,2.1759799330000003,0.8636275999999999,0.348916011,0.31336048899999996,0.157667733,0.005237156,0.034221111,0.378032456,0.274565822,0.267155433,0.0824649,0.043032,0.048127511,133.5684444,0.638222222,8.862222222,339.9178889,1.608444444,47.33211111,0.8362023609999999,0.306623432,0.390150349
22871,-0.4306,8.9745,4.0659,-0.6876,8.809,4.2303,0.2501,0.061,-0.2194,0.0013,0.3354,-0.057,24.49,-0.39,-33.19,329.29,-63.97,8.69,-0.1280172,9.493737682,2.6643569680000003,0.665422205,0.629555443,0.797916795,0.42827307,0.089950604,0.179595255,0.615870378,0.42930797,0.638248158,0.29207877600000004,0.410745717,0.250713205,4.1591799410000005,0.9290975309999999,3.239495846,3.101057167,1.128469957,5.3269649480000005,0.646925028,0.658996896,0.797966838,-0.2475,8.878,3.8045,-0.581,8.818999999999999,4.181,0.21600000000000003,0.0025,-0.243,0.0485,0.168,-0.0605,23.05,-0.45,-34.5,329.65,-63.9,6.6,0.08472161199999999,9.310401596,2.427550745,0.442786711,0.396340056,0.636671211,0.18341782199999998,0.008091111,0.032254456,0.379296322,0.18430533300000002,0.40736071100000004,0.08531001099999999,0.16871204399999998,0.062857111,17.29877778,0.863222222,10.49433333,9.616555556,1.2734444440000001,28.37655556,0.41851199200000005,0.434276909,0.636751075
2300,0.2051,10.4059,0.5162,0.3439,9.782,0.5558,-0.1656,0.6642,0.0762,0.0366,-0.067,0.0146,18.95,-27.0,25.47,184.48,-86.28,-32.4,0.21217278399999998,10.34180981,-1.261449285,0.7215654970000001,1.988603499,1.4650556909999999,0.113799483,0.01645195,0.22406983,0.714462533,2.016102224,1.402893344,0.19434574,0.32853513300000003,0.131679071,1.569323988,0.839311887,2.061849224,11.68539449,1.247931622,10.70524274,0.713161595,2.050870229,1.381709905,0.3195,10.7875,0.1675,0.3545,9.786,0.56,0.0405,1.0935,-0.12300000000000001,0.10400000000000001,-0.0945,0.0235,18.7,-27.0,25.25,187.65,-86.65,-29.35,0.318113623,10.79973721,-1.8340349480000002,0.5206567670000001,3.954543878,2.146388178,0.012950322,0.000270667,0.050207289,0.510456711,4.064668178,1.9681097330000001,0.037770267,0.10793533300000001,0.017339378,2.462777778,0.7044444440000001,4.251222222,136.54844440000002,1.557333333,114.6022222,0.508599461,4.206068696,1.909122261
16680,-0.4586,9.317,3.0189,-0.0035,9.4299,2.6711,-0.4609,-0.0965,0.3229,-0.0741,0.5434,0.1693,-32.67,-22.6,10.71,116.46,-74.26,-0.33,-0.315141289,9.688192028,1.4703196980000002,0.503803577,0.436535095,0.80055598,0.157309497,0.085858346,0.301464739,0.35226834799999995,0.356849252,0.5925801310000001,0.24986016100000003,0.48885107899999997,0.21524046,2.70146051,1.768866555,6.31285285,8.870575579,1.873914501,3.679990942,0.474458954,0.421610266,0.8316684870000001,-0.35700000000000004,9.4165,3.1915,-0.031,9.447000000000001,2.628,-0.522,-0.0665,0.3125,-0.0355,0.5035,0.08900000000000001,-32.25,-23.25,13.05,120.8,-74.6,0.45,-0.20103152,9.730376931,1.635443459,0.25381804399999996,0.19056288899999999,0.640889878,0.024746277999999997,0.007371656,0.09088098900000001,0.124092989,0.127341389,0.351151211,0.062430099999999995,0.23897537800000002,0.046328456,7.297888888999999,3.1288888889999997,39.85211111,78.68711111,3.5115555560000002,13.54233333,0.225111299,0.17775521600000002,0.691672473
17009,0.7334,9.4713,2.819,0.7928,9.3645,2.7662,-0.0445,0.096,0.0443,0.1476,-0.0191,-0.0281,13.81,-8.63,-37.46,319.92,-72.66,-16.09,0.871226816,9.796574957999999,1.200865125,0.265960398,0.45967211700000005,0.573510438,0.166237982,0.116273863,0.418489559,0.20212935899999998,0.400327644,0.41675787,0.18116732600000002,0.26213332100000003,0.07201921,1.550232957,1.551379315,0.49035134799999996,1.7229174219999999,2.364177094,3.895709891,0.27551137600000003,0.435813898,0.602552663,0.6285,9.5855,2.806,0.7815,9.333,2.937,-0.0845,0.184,0.042,0.11,-0.028999999999999998,-0.015,14.1,-8.0,-37.4,319.7,-71.95,-15.85,0.746666961,9.83961412,1.213314193,0.070734933,0.21129845600000002,0.328914222,0.027635067000000003,0.013519611,0.17513351100000002,0.040856277999999996,0.16026222199999998,0.173687122,0.0328216,0.06871387799999999,0.005186767,2.4032222219999997,2.406777778,0.24044444399999998,2.9684444439999997,5.589333333,15.17655556,0.075906519,0.18993375399999998,0.36306971200000004
18002,-0.48200000000000004,9.2995,3.4668,-0.3388,9.2002,3.3685,-0.1315,0.1173,0.0782,-0.0675,0.1812,0.0778,-22.18,-29.28,21.02,148.12,-69.91,5.79,-0.27756415100000004,9.737765651,1.95739273,0.361883345,0.49519272299999995,0.380732277,0.212798183,0.061629357999999995,0.153639007,0.41813640799999996,0.5344883429999999,0.357415973,0.136843991,0.217317893,0.12267826,2.093800373,0.7083627440000001,2.106497884,3.049517266,1.244945336,3.418722958,0.345757296,0.511006262,0.373615549,-0.365,9.323,3.3555,-0.3655,9.195,3.389,-0.031,0.1455,0.106,-0.129,0.245,0.0595,-22.45,-29.25,20.45,149.1,-69.5,6.4,-0.17482220699999998,9.732041199,1.89115898,0.130959556,0.245215833,0.144957067,0.045283067,0.0037981779999999997,0.023604944,0.17483805600000002,0.28567778899999996,0.12774617800000002,0.018726278,0.047227067000000005,0.015049956000000001,4.3839999999999995,0.501777778,4.437333333,9.299555555,1.549888889,11.68766667,0.11954810800000001,0.2611274,0.139588579
12357,-0.0155,9.8479,0.2373,0.2021,9.7813,0.4166,-0.2046,0.0982,-0.1748,-0.1077,-0.0723,-0.0255,5.11,-21.25,-33.8,305.34,-85.93,-45.12,-0.009674677,9.74503522,-1.4392612009999999,0.77008589,0.866591465,0.90800123,0.23934839800000002,0.016486021,0.50626765,0.682407047,0.814989816,0.676059465,0.264920135,0.290933001,0.173593555,0.9757618109999999,2.3377339459999997,1.77263144,57.90064671,1.3333749990000001,58.2534081,0.7657426409999999,0.9922160320000001,0.773355205,0.1415,9.7505,0.1725,0.151,9.7815,0.5415,-0.0955,0.0145,-0.235,-0.0725,-0.0105,-0.022000000000000002,5.05,-20.55,-34.2,332.15,-85.95,-17.55,0.144269783,9.666905989,-1.5145238840000002,0.593032278,0.750980767,0.824466233,0.057287656,0.00027178900000000004,0.256306933,0.465679378,0.6642084,0.45705640000000003,0.070182678,0.084642011,0.030134722000000003,0.9521111109999999,5.465,3.142222222,3352.484889,1.777888889,3393.4595560000002,0.586361793,0.9844926540000001,0.5980782729999999
1403,1.5824,8.9488,2.6508,1.4298,9.291,2.7462,0.1862,-0.3113,-0.0607,-0.0807,-0.0431,0.0197,18.66,-32.37,16.28,195.26,-71.45,-27.53,1.71647595,9.244885676,1.094045749,1.4952331069999998,1.412842273,1.9266806109999999,0.24776862,0.115297682,0.46616372899999997,1.413258394,1.417627208,1.577615926,0.501239364,0.697908693,0.40719257,2.204137523,0.9695932709999999,2.9070030389999997,9.664045622,1.940360791,7.409610876,1.522313205,1.430131906,1.892593975,1.6245,8.696,2.459,1.5115,9.2305,2.9410000000000003,0.4205,-0.5115,-0.23800000000000002,-0.2005,0.0505,0.001,18.5,-32.45,16.35,197.85,-70.75,-27.5,1.81654781,9.185067002,0.666905867,2.235722044,1.996123289,3.712098178,0.06138928900000001,0.013293556000000002,0.21730862199999998,1.997299289,2.0096668999999996,2.4888720109999998,0.2512409,0.487076544,0.165805789,4.858222222,0.9401111109999999,8.450666667,93.39377778,3.765,54.90233333,2.317437494,2.045277267,3.581911955
5461,0.4832,9.7834,1.1621,0.545,9.7415,0.8651,-0.0483,0.0347,0.3177,-0.0295,0.2135,-0.1168,10.71,-27.95,24.83,170.15,-83.85,-34.15,0.5046808629999999,9.836982726,-0.5183023920000001,0.6884058559999999,0.62448916,1.0146743809999998,0.356979613,0.047232875,0.348321196,0.49484499299999996,0.629070575,0.7787210379999999,0.294117229,1.09036765,0.11352219599999999,4.1966785810000005,1.148186977,1.7512217959999998,11.42329491,2.545693531,14.6591079,0.695711964,0.70674424,0.95931729,0.617,9.6215,0.9635,0.5529999999999999,9.751,0.9045,-0.0725,-0.0845,0.2235,-0.0645,-0.048,-0.1365,11.7,-27.8,24.75,168.75,-84.05,-38.05,0.642341825,9.651934746,-0.6273898210000001,0.47390262200000005,0.38998671100000004,1.0295641,0.127434444,0.002230944,0.12132765599999999,0.24487156699999998,0.395729789,0.606406456,0.086504944,1.188901611,0.012887289,17.61211111,1.318333333,3.066777778,130.49166670000002,6.4805555560000005,214.8894444,0.484015136,0.49948742100000004,0.9202896620000001
17071,-0.1926,9.4676,2.8602,-0.3047,9.3898,2.8023,0.0832,0.1046,0.0406,0.0082,0.0273,0.0291,-31.79,-18.94,-4.76,97.53,-73.28,6.3,-0.052290058,9.808215504,1.282653133,0.39456169799999996,0.221943036,0.41976178399999997,0.193278757,0.045040229,0.15538700800000002,0.41783457700000004,0.210345325,0.37046763200000005,0.143094996,0.125055588,0.083212512,1.6216932169999998,0.869482605,1.674116683,2.982187862,0.933095208,4.415628808999999,0.392622167,0.196736434,0.439337975,-0.1725,9.557,2.8635,-0.35200000000000004,9.381,2.8360000000000003,0.171,0.1395,0.024,0.033,0.0275,0.0485,-32.2,-18.9,-4.35,97.7,-73.1,6.9,-0.033486767,9.903438365,1.2866724729999999,0.15567893300000002,0.049258711,0.17619995600000002,0.037356678,0.0020286220000000003,0.024145122,0.17458573300000002,0.044245155999999994,0.137246267,0.020476178,0.0156389,0.006924321999999999,2.629888889,0.7559999999999999,2.802666667,8.893444444,0.8706666670000001,19.49777778,0.154152166,0.038705223999999996,0.193017857
19161,0.0986,9.419,3.3611,0.1709,9.2358,3.2848,-0.0834,0.1748,0.0846,-0.001,-0.013000000000000001,0.0108,-36.59,-19.21,-6.19,88.28,-70.3,-2.92,0.291796469,9.83418557,1.79428215,0.27159046,0.32222042100000003,0.425612356,0.090430391,0.074667857,0.207754556,0.297781874,0.319321085,0.340630526,0.32457356600000004,0.313400702,0.09388740300000001,0.976899858,0.7866242929999999,0.851730265,1.248821667,1.473469074,1.336496248,0.271909599,0.31527163399999997,0.441385101,0.1075,9.3795,3.3339999999999996,0.145,9.251,3.252,-0.1325,0.1625,0.094,-0.11199999999999999,-0.11199999999999999,0.019,-36.75,-19.2,-6.25,88.0,-70.4,-2.9,0.328924841,9.729604684,1.760999727,0.073761378,0.103826,0.181145878,0.008177656,0.005575289000000001,0.043161955999999994,0.08867404400000001,0.101965956,0.116029156,0.105348,0.09822,0.008814844,0.954333333,0.618777778,0.7254444440000001,1.559555555,2.171111111,1.786222222,0.07393483,0.099396203,0.194820808
8506,-0.3491,9.9909,0.5068,-0.1563,9.7958,0.1807,-0.2047,0.2131,0.3131,-0.0512,1.5381,0.0663,15.9,-23.94,-25.2,180.74,-87.45,68.49,-0.34541483100000003,9.931549144,-1.199824912,0.503302085,0.467363159,0.43709643,0.15378704599999998,0.007161626,0.38708283600000004,0.433488703,0.451307102,0.299133359,0.226830235,0.594158312,0.17601392,13.01827775,0.622182538,7.167209282000001,115.0961646,0.97894501,65.73482841,0.505141373,0.44512357799999996,0.46041388,-0.1365,10.0165,0.636,-0.1815,9.7975,0.2075,-0.0815,0.2345,0.38,-0.036000000000000004,1.6625,0.0845,21.3,-24.05,-26.2,152.5,-87.5,66.15,-0.135172352,9.982361221,-1.063702118,0.253312989,0.21842832199999998,0.191053289,0.023650456,5.13e-05,0.14983312199999999,0.187912456,0.2036781,0.08948076699999999,0.05145195599999999,0.3530241,0.030980900000000002,169.47555559999998,0.387111111,51.36888889,13247.12711,0.958333333,4321.067667,0.25516780699999997,0.19813499899999998,0.211980941
19281,-0.0538,9.5795,2.5041,-0.0372,9.517000000000001,2.3624,-0.0134,0.0555,0.1657,-0.0181,-0.7098,-0.17300000000000001,-35.19,-21.71,5.22,106.58,-76.12,0.96,0.049678831,9.861649376,0.885899496,0.359340074,0.18381346199999998,0.40620259,0.13112148699999998,0.010903618,0.043086992000000005,0.287627151,0.17335592800000002,0.36660334299999997,0.06389305299999999,0.210234155,0.11371699800000001,2.4999777780000003,2.420491227,7.956101781,14.50484976,0.21499354,3.2321991139999997,0.346708719,0.201839894,0.409725429,0.0015,9.596,2.3280000000000003,-0.0835,9.5205,2.3485,0.0805,0.095,0.0265,-0.033,-0.7465,-0.17800000000000002,-35.9,-22.25,4.9,107.85,-76.15,2.4,0.11115175699999999,9.853585447,0.729773177,0.129125289,0.033787389,0.165000544,0.017192844,0.00011888899999999999,0.001856489,0.08272937799999999,0.030052277999999998,0.13439801099999998,0.004082322,0.044198400000000006,0.012931556,6.249888889,5.858777777999999,63.29955556,210.3906667,0.046222222,10.44711111,0.120206936,0.040739343,0.167874928
4312,1.0545,8.7999,4.2013,0.7204,8.9054,4.0298,0.3348,-0.08900000000000001,0.1369,0.0432,0.6715,0.3795,-28.13,-27.45,7.89,116.28,-65.29,-9.72,1.347347738,9.330940759,2.704680143,0.7187160229999999,0.19055734,0.373539839,0.311254523,0.078017377,0.119198993,0.5549189729999999,0.22978975899999998,0.37396388700000005,0.096059935,0.223318532,0.11266001,4.739444412,2.777788889,4.384682935,14.8959204,1.015928694,3.90293337,0.7233669159999999,0.171434005,0.379778677,1.0675,8.816,4.3180000000000005,0.6955,8.943999999999999,3.978,0.318,-0.0745,0.0885,0.062,0.594,0.3445,-29.7,-27.25,7.75,114.45,-65.75,-9.55,1.3768801430000002,9.365613551000001,2.8210105619999997,0.516552722,0.0363121,0.13953201099999998,0.096879378,0.006086711,0.0142084,0.307935067,0.052803333,0.139848989,0.009227510999999999,0.049871167,0.012692278000000001,22.46233333,7.716111111,19.22544444,221.88844440000003,1.0321111109999999,15.23288889,0.523259695,0.029389618,0.144231843
17231,-0.4896,9.13,3.9524,-0.3589,9.0466,3.7644,-0.1492,0.0701,0.1937,0.0144,-0.9743,-0.4309,32.69,-8.3,-20.68,301.22,-67.42,5.5,-0.228880867,9.641553243999999,2.49112615,0.17677682100000003,0.399386196,0.43245814200000005,0.071686741,0.06328805400000001,0.156122601,0.190855268,0.40254867200000005,0.43069996,0.13488530099999999,0.162640742,0.056086144000000004,6.821282056,4.18197189,11.11163554,20.72383491,1.097269338,1.117536974,0.16825051100000002,0.377581536,0.45539001100000004,-0.517,9.0155,3.9435,-0.33899999999999997,9.047,3.764,-0.2025,-0.018000000000000002,0.14400000000000002,-0.02,-1.036,-0.423,34.5,-7.85,-21.3,301.9,-67.3,5.35,-0.248029506,9.557807981,2.439969603,0.031250044,0.159509333,0.187020044,0.005138989,0.0040053779999999995,0.024374267,0.036425732999999995,0.16204543300000002,0.185502456,0.018194044,0.026452011,0.0031456559999999997,46.52988889,17.48888889,123.46844440000001,429.47733330000005,1.204,1.248888889,0.028308233999999998,0.14256781599999999,0.207380062
22499,-0.0767,9.4297,2.7094,-0.1156,9.3431,2.9737,0.0099,0.0682,0.0376,0.0048,0.0802,0.0138,39.68,-13.96,-11.33,281.2,-72.4,2.04,0.064578775,9.74428435,1.142735639,0.30038717600000003,0.33327201100000003,0.599757025,0.094522425,0.036473583,0.11264699,0.34561811,0.362815472,0.19733344600000002,0.198038605,0.151114967,0.059644875,0.500666223,0.638052593,1.359779394,1.565602475,0.754247233,1.728326101,0.294890291,0.254910337,0.643812548,-0.1005,9.4505,2.9819999999999998,-0.1255,9.337,2.9965,0.0415,0.1105,0.0425,-0.0335,0.084,0.01,39.75,-14.15,-11.6,281.35,-72.15,2.25,0.074295362,9.754896975,1.451092969,0.090232456,0.111070233,0.35970848899999996,0.008934489,0.001330322,0.012689343999999998,0.11945187800000001,0.131635067,0.038940489,0.039219289,0.022835732999999997,0.0035575109999999997,0.250666667,0.407111111,1.849,2.451111111,0.568888889,2.9871111110000004,0.086960284,0.06497928,0.414494597
11605,-0.36200000000000004,9.686,1.8208,-0.5352,9.6329,1.7042,0.1734,0.0527,0.1141,-0.122,1.4091,0.2899,-27.94,-24.06,-6.72,105.03,-79.45,16.73,-0.305388449,9.85536372,0.18587190399999998,1.059498833,0.683239994,1.040849952,0.41154608200000004,0.052386279,0.18231767100000001,0.919122915,0.7010880509999999,0.912510877,0.269999588,0.825069081,0.211713354,2.849639353,2.739505227,12.39352878,31.17659557,1.663496986,10.37936521,1.027759512,0.7032143909999999,1.0638916999999999,-0.1055,9.632,1.6280000000000001,-0.4405,9.6455,1.704,0.685,-0.013000000000000001,-0.0975,-0.0375,1.0590000000000002,0.275,-28.9,-23.4,-9.3,100.05,-79.7,16.3,-0.050169581,9.777714546,0.029871294,1.1225377779999999,0.466816889,1.083368622,0.169370178,0.002744322,0.033239733,0.844786933,0.491524456,0.8326761,0.072899778,0.6807389890000001,0.044822544000000006,8.120444444,7.504888889,153.59955559999997,971.9801110999999,2.767222222,107.7312222,1.056289614,0.494510479,1.131865548
16285,4.562951,-7.693347999999999,2.2704400000000002,5.233651999999999,-7.957185000000001,1.6735380000000002,-0.277526,0.137823,0.541608,-0.093322,0.370706,0.38879,12.5515,27.3941,-25.4108,303.5442,53.9914,-72.3821,4.643811596,-7.927265198,1.068529982,3.005813719,1.103308451,2.16018866,1.0156155059999998,0.521949841,1.2859192990000001,1.6449270269999998,0.658097423,2.012850488,1.131555539,1.309536822,0.739651869,7.204849729,3.991679052,2.7187974789999996,11.22454044,5.075650067,15.49262753,2.989993613,1.246455683,1.9992119309999998,5.04363,-7.7691,1.63406,5.2683599999999995,-8.12759,1.56676,-0.33228,0.09139,0.449425,0.17875,0.6940149999999999,0.168755,13.208,27.307,-25.160999999999998,301.92400000000004,55.4105,-75.096,5.192190213,-8.123135481,0.6768440240000001,9.034916115,1.217289539,4.666415046,1.031474855,0.272431637,1.653588443,2.7057849239999996,0.433092218,4.051567086,1.280417937,1.714886689,0.547084887,51.90985961,15.93350166,7.3918597329999995,125.99030819999999,25.7622236,240.0215079,8.940061806000001,1.55365177,3.996848347
6959,0.5206,9.797,0.8043,0.3149,9.7289,1.0828,0.2047,0.0591,-0.244,0.0735,0.7020000000000001,0.1352,-31.77,-23.2,-3.09,75.54,-82.75,-14.56,0.536137915,9.790631368,-0.871208037,1.205724328,0.811311832,0.798161645,0.501819235,0.013084766000000001,0.153368692,0.863129068,0.8554504270000001,0.704064707,0.145320527,0.17824515,0.16681446800000002,1.262317093,2.115025611,6.342703595,37.02981381,0.5911382620000001,24.86506697,1.19247384,0.815588529,0.810977013,0.7305,9.789,0.9159999999999999,0.4855,9.731,1.09,0.0585,0.06,-0.2665,0.066,0.7155,0.16899999999999998,-32.1,-22.6,-2.7,69.75,-82.95,-21.4,0.741981817,9.911803313,-0.645027636,1.453771156,0.658226889,0.637062011,0.251822544,0.000171211,0.023521956,0.7449917890000001,0.7317954329999999,0.49570711100000003,0.021118056,0.031771333,0.027827067,1.593444444,4.473333333,40.22988889,1371.207111,0.34944444399999997,618.2715555999999,1.421993859,0.665184649,0.657683716
9661,1.1288,10.112,1.0434,0.9783,9.6579,1.2999,0.1698,0.4372,-0.3128,-0.1712,-0.0729,-0.0412,-4.59,-28.2,26.69,135.04,-80.21,-41.23,1.157578752,10.13941523,-0.68991627,0.878466947,0.761668198,1.4424262890000001,0.22435143600000002,0.049996555,0.474057533,0.7192880429999999,0.750093742,1.146589997,0.517848283,0.37734759999999995,0.260465737,1.557383846,2.273030283,1.792856194,21.66339462,2.109475975,19.25028427,0.858048363,0.835967377,1.410010116,1.2570000000000001,10.075,1.265,0.986,9.6495,1.3659999999999999,0.1705,0.4725,-0.29100000000000004,-0.1405,-0.024,-0.0975,-4.3,-28.7,26.25,135.0,-79.8,-42.6,1.258277239,10.02099974,-0.635563393,0.771704178,0.580138444,2.0805936000000003,0.050333567,0.0024996560000000003,0.22473054399999998,0.517375289,0.562640622,1.3146686220000001,0.26816684399999996,0.142391211,0.0678424,2.425444444,5.166666667,3.214333333,469.3026666999999,4.4498888889999995,370.57344439999997,0.736246994,0.698841455,1.988128527
13254,2.940518,8.318384,4.797276999999999,4.304644000000001,7.843675,3.900174,-1.1042399999999999,0.915875,0.9332889999999999,-0.297745,-1.214461,-0.273378,1.001,-31.3711,41.8333,143.0539,-52.8738,-46.7072,3.26721345,8.866542667000001,3.416709333,1.713702312,1.268464273,2.7492245680000003,0.791429562,0.426615966,0.445121826,1.844879699,1.5950519619999999,2.4044569030000003,1.181519116,1.798879244,0.489654794,16.45781751,11.85343569,4.995316719,21.14074575,4.0039833719999995,8.771611898,1.623611832,1.387415454,2.724485305,2.59842,8.25191,4.91212,4.286745,7.89272,3.93266,-1.6144450000000001,1.03477,1.331775,-0.125115,-0.752085,-0.16253499999999999,7.995,-36.0965,41.971000000000004,151.931,-52.358000000000004,-49.141000000000005,3.046625208,8.791637885,3.614942693,2.9367756160000003,1.609001612,7.558235726,0.6263607520000001,0.18200118199999998,0.19813344,3.4035811039999997,2.544190761,5.781412997,1.395987422,3.2359665339999997,0.23976181800000002,270.8597573,140.5039377,24.95318912,446.9311308,16.03188284,76.94117529,2.6361153809999998,1.924921642,7.422820177999999
18854,-0.6041,9.5146,2.8007,-0.7893,9.3311,2.8892,0.1654,0.1775,-0.0672,0.0623,-0.254,0.0178,19.53,-26.43,26.5,222.92,-72.08,15.4,-0.461263506,9.847088306,1.248947201,0.573426242,0.316410493,0.285156507,0.252035734,0.093398132,0.273336098,0.369287061,0.292157207,0.223926476,0.228886216,0.14747353800000002,0.109475314,1.637783054,0.641266109,1.174734012,2.112818023,1.732563932,3.86839042,0.560679564,0.29549590000000003,0.327279203,-0.5589999999999999,9.492,2.819,-0.878,9.312000000000001,2.9725,0.228,0.154,-0.017,-0.036000000000000004,-0.2225,0.053,19.7,-26.45,26.4,222.8,-71.65,16.6,-0.403961126,9.867583571,1.251834851,0.328817656,0.10011560000000001,0.081314233,0.06352201099999999,0.008723211,0.074712622,0.136372933,0.085355833,0.050143067,0.0523889,0.021748444,0.011984844,2.6823333330000003,0.411222222,1.38,4.4639999999999995,3.001777778,14.96444444,0.314361574,0.08731782699999999,0.10711167699999999
19445,-0.3725,8.9172,4.0482,-0.4734,8.8311,4.2296,0.0633,0.1075,-0.2076,0.0764,-0.0778,-0.0492,-17.66,-32.06,20.48,155.89,-64.09,6.49,-0.072359943,9.435107889,2.646815971,0.702060657,0.38479223799999995,0.34353515100000004,0.065269016,0.114048187,0.24083752,0.637535541,0.388504898,0.33334173300000003,0.177327819,0.20572732800000001,0.136577857,1.65408585,0.64498062,1.383072265,2.9923792089999997,1.517637052,0.968905453,0.691896973,0.384798216,0.380007739,-0.41700000000000004,8.873,4.031000000000001,-0.4815,8.7965,4.3045,0.0635,0.078,-0.1555,0.0865,-0.0415,-0.0245,-17.1,-31.95,20.4,157.05,-63.65,6.65,-0.115963556,9.414087477,2.622099233,0.492889167,0.148065067,0.1180164,0.004260044,0.013006988999999998,0.058002711,0.406451567,0.15093605599999999,0.11111671099999999,0.031445156,0.042323732999999995,0.018653511,2.736,0.41600000000000004,1.912888889,8.954333333,2.303222222,0.938777778,0.47872142100000004,0.148069667,0.14440588099999999
18863,0.2698,9.4784,2.2124,0.0801,9.5761,2.0871,0.2164,-0.0942,0.0924,-0.0066,-0.3892,-0.0342,25.79,-24.64,21.66,222.35,-77.71,-1.82,0.3518239,9.711971734,0.592773851,0.390592086,0.305069828,0.501213904,0.135509286,0.069255485,0.31033868600000003,0.433533082,0.324974119,0.414345588,0.316749884,0.15378614300000001,0.088475734,2.576582577,0.497102717,3.620374443,3.684275897,1.911631066,3.479080338,0.39434310100000003,0.276132261,0.525565511,0.3365,9.5375,2.318,0.107,9.583,2.076,0.2455,0.0075,0.134,-0.11900000000000001,-0.3825,-0.0535,25.7,-24.7,21.85,221.6,-77.75,-2.8,0.413283785,9.788558712,0.67163539,0.15256217800000002,0.0930676,0.251215378,0.018362767,0.004796322,0.09631010000000001,0.18795093300000001,0.10560817800000001,0.171682267,0.10033048900000001,0.023650177999999997,0.007827956,6.638777778,0.24711111100000002,13.10711111,13.57388889,3.6543333330000003,12.104000000000001,0.155506481,0.076249026,0.276219106
18115,-0.4834,9.3902,2.9699,-0.2846,9.3587,2.9042,-0.2035,0.0499,0.0276,-0.0812,0.3966,0.0794,14.57,-6.37,-38.08,342.76,-72.75,5.14,-0.33137083100000003,9.751357627,1.4248432709999999,0.565286201,0.274934255,0.544751411,0.22496034199999998,0.052406637,0.153217202,0.446763485,0.273844421,0.47503782299999997,0.170041694,0.16045020000000002,0.13219699099999999,4.481579583,0.754320887,1.50981971,4.087976951,1.018986425,4.274783945,0.5412224170000001,0.270257346,0.5717562629999999,-0.6715,9.435,2.7555,-0.3645,9.3655,2.8960000000000004,-0.2855,0.046,-0.08800000000000001,-0.105,0.397,0.1175,13.5,-6.15,-38.6,344.4,-72.75,6.75,-0.492888825,9.845152358,1.242240905,0.319548489,0.075588844,0.29675409999999997,0.05060715599999999,0.0027464559999999996,0.023475511,0.199597611,0.074990767,0.225660933,0.028914178,0.025744267,0.017476044,20.08455556,0.569,2.279555556,16.71155556,1.038333333,18.27377778,0.292921705,0.073039033,0.326905225
23340,-0.3335,9.6679,1.9958,-0.4453,9.6215,1.8012,0.0783,0.0156,0.2198,0.005,-0.1057,0.0015,-15.0,-26.2,29.8,170.83,-79.16,16.29,-0.266953524,9.866623367999999,0.36187959299999994,0.9084838709999999,0.462589439,0.938089287,0.210288717,0.053657867000000005,0.35128361399999997,0.716318063,0.5128383329999999,0.661482812,0.300924501,0.308497092,0.182144174,2.476108057,1.0718623459999999,1.270170592,7.449243064,1.6297239030000001,9.798576994,0.89498745,0.545173266,0.9124246709999999,-0.3685,9.638,2.0340000000000003,-0.386,9.6185,1.8625,-0.054000000000000006,-0.033,0.231,0.0285,-0.0255,0.021,-14.75,-26.55,30.15,169.15,-79.1,13.0,-0.29564951899999997,9.836687735,0.404370477,0.8253429440000001,0.213988989,0.880011511,0.044221344,0.002879167,0.12340017800000001,0.513111567,0.263003156,0.437559511,0.090555556,0.095170456,0.0331765,6.131111111,1.148888889,1.6133333330000001,55.49122222,2.656,96.01211111,0.8010025359999999,0.29721389,0.832518781
1112,0.7415,9.3724,1.7455,0.8041,9.6319,1.633,-0.0362,-0.2227,0.0828,-0.0849,-0.1118,-0.0014,13.69,-30.0,25.83,181.31,-79.36,-26.01,0.790675925,9.528908582,0.131632986,0.902479209,1.317172831,1.151380645,0.21591585300000002,0.041070265,0.202379182,0.737677105,1.2646651770000001,1.0963463359999999,0.281448811,0.22722715,0.310231168,1.206878434,0.891939211,0.826034705,7.938856621,1.3167299559999999,6.981316336,0.879545094,1.36790994,1.107129274,0.9925,9.521,1.8459999999999999,0.8440000000000001,9.636000000000001,1.6505,-0.1105,-0.0065,0.248,-0.06,-0.1545,0.0285,13.3,-29.95,25.9,180.5,-79.3,-27.25,1.039673203,9.706649179,0.33128392100000004,0.814468722,1.734944267,1.325677389,0.046619655999999995,0.001686767,0.040957333,0.544167511,1.599378011,1.2019752890000002,0.079213433,0.051632178,0.096243378,1.4565555559999999,0.7955555559999999,0.682333333,63.02544444,1.733777778,48.73877778,0.7735995720000001,1.871177605,1.22573523
11165,0.0998,9.301,3.2186,0.2496,9.2479,3.2355,-0.1812,0.0633,-0.0023,0.147,0.2027,0.1629,11.45,-32.67,16.39,200.57,-70.39,-4.36,0.281846123,9.695497291,1.672141994,0.706799642,0.48887376200000005,0.578395904,0.14541832400000002,0.110896799,0.311776719,0.551763798,0.42559449899999996,0.565074046,0.202492798,0.377538828,0.11866147,3.565342433,0.579367471,2.763431844,9.287871422,2.064218981,2.889136742,0.6950335679999999,0.463483078,0.61235284,0.2115,9.2685,3.2165,0.231,9.269,3.195,0.013000000000000001,0.0465,-0.049,0.1705,0.3285,0.1495,10.8,-32.8,17.5,198.65,-70.85,-3.95,0.34702490799999997,9.709451608,1.704597575,0.49956573299999996,0.23899755600000003,0.334541822,0.021146488999999997,0.012298100000000001,0.097204722,0.304443289,0.18113067800000002,0.319308678,0.041003332999999996,0.142535567,0.014080543999999999,12.71166667,0.33566666700000003,7.636555556,86.26455556,4.261,8.347111111,0.48307166100000004,0.21481656300000002,0.374976001
23572,-1.4427,9.4729,2.2769,-1.2705,9.4217,2.3819999999999997,-0.1888,0.040999999999999995,-0.0965,-0.1418,0.8187,0.1867,3.58,-27.26,28.71,209.83,-74.1,28.19,-1.3442885130000002,9.726803124,0.7541230259999999,0.379990365,0.442220269,0.693672745,0.14303321300000002,0.096313204,0.317596879,0.323342543,0.48252392,0.512883407,0.286409885,0.166521303,0.105714553,8.902658779,2.459539252,1.2404748190000001,15.79930027,2.1348952619999997,1.223337875,0.347784394,0.459308786,0.711237145,-1.3405,9.381,2.3105,-1.347,9.3985,2.441,-0.215,-0.0225,0.1235,-0.08900000000000001,0.8029999999999999,0.1745,3.35,-28.3,28.5,207.65,-74.0,28.1,-1.2703595540000001,9.670242215,0.819794085,0.144392678,0.195558767,0.48118187799999995,0.0204585,0.009276233,0.100867778,0.10455039999999999,0.232829333,0.26304938899999997,0.082030622,0.027729344,0.011175566999999999,79.25733333,6.049333333,1.538777778,249.6178889,4.557777778,1.496555556,0.120953984,0.21096456100000002,0.505858276
19063,-0.409,9.1674,3.6946,-0.505,9.1485,3.4919,0.055999999999999994,0.0047,0.2586,0.0203,-0.0122,-0.0144,13.1,-3.87,-37.81,348.26,-68.95,8.11,-0.182681877,9.640843561,2.207821231,0.522977161,0.205650296,0.5387512720000001,0.047723742,0.058991996,0.149434824,0.454661046,0.16531522099999998,0.5285027489999999,0.20237371899999998,0.18256737,0.062347057000000004,0.8406346809999999,0.585092585,0.42804465,1.2527303509999999,1.0036046140000001,0.6756889490000001,0.508412529,0.16207765400000002,0.571575759,-0.4635,9.176,3.668,-0.514,9.1645,3.452,0.046,-0.0375,0.2945,0.0245,-0.0495,-0.0195,12.95,-3.95,-37.7,348.35,-69.05,8.25,-0.233739516,9.64268782,2.186859561,0.273505111,0.042292044,0.290252933,0.002277556,0.0034800559999999996,0.022330767,0.206716667,0.027329122,0.279315156,0.040955122000000004,0.033330844,0.0038871559999999997,0.706666667,0.34233333299999996,0.183222222,1.569333333,1.007222222,0.45655555600000003,0.2584833,0.026269166,0.326698848
10285,-0.0065,8.8166,3.5645,-0.3019,9.1383,3.2430000000000003,0.2922,-0.3478,0.4195,-0.1192,1.115,0.5627,-26.59,-26.94,1.87,120.5,-69.37,6.52,0.238040495,9.24449484,2.094032735,0.9196880209999999,1.449844758,2.439293443,0.326777005,0.67071389,1.313193478,0.760904987,0.7804774609999999,1.337356617,2.150216258,0.83694192,0.435110216,6.176919405,2.983361266,10.73043957,24.98528456,8.974538057,5.257967498999999,1.069607182,1.249966846,2.605168667,-0.1385,9.1835,2.5655,-0.3875,9.4355,2.6335,0.39,-0.0865,0.1885,-0.0445,1.01,0.5155,-29.0,-26.45,-1.55,116.75,-73.55,8.0,0.14884504,9.71807944,1.256086499,0.8458260559999999,2.1020498219999997,5.9501525,0.106783211,0.44985712200000005,1.724477111,0.5789764000000001,0.609145067,1.788522722,4.623429956,0.7004717779999999,0.1893209,38.15433333,8.900444444,115.14233329999999,624.2644444,80.54233333,27.64622222,1.144059524,1.562417116,6.786903783
12128,0.523,9.6007,2.0006,0.6377,9.6045,1.8235,-0.1123,-0.027999999999999997,0.1783,0.0588,-0.9038,-0.0989,0.63,-29.24,23.41,164.21,-78.31,-19.24,0.590649975,9.796438363,0.354879895,0.647733827,0.512410003,0.904678113,0.23133191600000003,0.071557669,0.390471296,0.537214844,0.49531875299999994,0.6737963840000001,0.427377481,0.9203543759999999,0.142157542,8.958676738,0.760409247,1.826624087,9.838072303999999,1.976781897,9.559893072000001,0.632293736,0.513840892,0.917376768,0.4155,9.4845,1.889,0.7215,9.631,1.6835,-0.2125,-0.115,0.1875,0.107,-1.1325,-0.081,1.9,-29.05,23.9,164.25,-78.8,-23.2,0.46078759799999996,9.651547109,0.148438385,0.41955911100000004,0.26256401100000004,0.818442489,0.053514455999999995,0.0051205,0.152467833,0.288599789,0.24534066699999998,0.45400156700000005,0.18265151100000002,0.847052178,0.020208767,80.25788889,0.5782222220000001,3.3365555560000004,96.78766667,3.907666667,91.39155556,0.399795368,0.264032463,0.8415801340000001
21556,0.7116,9.5449,1.4257,0.5484,9.5644,1.876,0.1081,-0.0081,-0.3587,0.2073,-0.311,0.018000000000000002,-34.99,-15.04,-5.37,63.96,-77.65,-21.72,0.7768487279999999,9.643279359,-0.19311103899999998,0.869420394,0.532390928,1.479496615,0.26466843,0.16890181199999998,0.931948735,0.589591469,0.47976208200000003,0.840765531,0.35058555799999996,0.130023075,0.118737806,1.056671924,0.411501316,4.160675693,13.56000656,4.978676753999999,18.01683164,0.803654223,0.567437735,1.507332175,0.6815,9.637,1.1395,0.654,9.5895,1.925,-0.002,-0.1005,-0.433,0.1785,-0.2725,0.0205,-35.2,-15.0,-5.65,69.4,-76.55,-16.0,0.7139555879999999,9.660171553,-0.515796613,0.755891822,0.2834401,2.188910233,0.070049378,0.028527822,0.8685284440000001,0.3476181,0.230171656,0.7068866779999999,0.12291023300000001,0.016906,0.014098666999999999,1.116555556,0.169333333,17.31122222,183.87377780000003,24.78722222,324.6062222,0.64586011,0.321985583,2.272050285
24126,-0.4709,9.3205,2.3987,-0.3874,9.512,2.3382,-0.0798,-0.0642,0.0888,-0.0307,0.0587,-0.0265,-27.03,-25.9,19.87,141.79,-75.92,9.32,-0.372597729,9.591520836,0.841906499,0.428797142,0.572722009,0.651526762,0.262679441,0.02258318,0.118116515,0.251957139,0.40398289299999995,0.652831236,0.205359874,0.15707043699999998,0.075723547,1.043551628,0.230940108,1.523191095,3.9817500339999996,0.720802022,6.903911935,0.430824175,0.503354483,0.707084505,-0.51,9.3115,2.5955,-0.39299999999999996,9.5165,2.3025,-0.126,-0.128,0.317,-0.0185,0.0235,-0.0205,-26.85,-25.9,20.65,142.75,-76.05,9.1,-0.414109855,9.593290926,1.0254792670000001,0.18386698899999998,0.3280105,0.42448712200000005,0.069000489,0.0005099999999999999,0.013951511000000002,0.06348240000000001,0.163202178,0.426188622,0.042172678,0.024671122,0.0057340559999999995,1.089,0.053333333,2.320111111,15.85433333,0.519555556,47.663999999999994,0.18560947,0.253365736,0.499968497
294,1.2267,9.7195,0.9873,1.5021,9.6414,0.9045,-0.1472,0.0565,0.003,0.0854,0.2459,-0.0968,27.63,-26.17,-24.32,245.36,-79.5,-59.82,1.2446123279999999,9.74334406,-0.67631147,1.651961464,1.312709179,1.062389032,0.21845948,0.048776587999999996,0.326458522,1.5691446219999998,1.17694069,0.651307403,0.407795755,0.523944961,0.306196669,1.769525988,0.843339921,2.222011101,9.97966822,1.706848949,8.931442586000001,1.6621560519999998,1.286607569,1.0829392,1.1325,9.4285,0.657,1.5225,9.6435,0.902,-0.172,-0.1565,-0.0145,0.073,0.2805,-0.129,27.9,-26.2,-24.55,247.8,-79.5,-58.9,1.135778629,9.685937172000001,-0.831135033,2.728976678,1.723205389,1.128670456,0.047724544,0.002379156,0.106575167,2.462214844,1.385189389,0.42420133299999996,0.166297378,0.274518322,0.09375639999999999,3.131222222,0.7112222220000001,4.937333333,99.59377778,2.913333333,79.77066667,2.762762742,1.655359037,1.172757311
10281,-0.5913,8.9492,3.7413,-0.2153,9.1637,3.1467,-0.3785,-0.2298,0.6687,-0.1843,1.4711,0.599,-14.11,-29.77,13.55,153.52,-70.17,3.57,-0.343787623,9.40925002,2.266901849,0.796940685,1.533341145,2.3920662409999998,0.37267562600000004,0.685031394,1.3755434519999998,0.62767866,0.884901853,1.395173032,2.1403552169999998,0.92544025,0.405190764,13.38161674,1.9373808209999999,10.86853256,27.95272994,9.507196105,6.6823232820000005,1.041441663,1.339045808,2.558569386,-0.8055,9.3595,2.9019999999999997,-0.3355,9.491,2.4285,-0.2415,-0.0195,0.504,-0.1315,1.4880000000000002,0.5325,-16.05,-30.8,18.9,159.2,-75.2,2.05,-0.71133683,9.880551954,1.583147826,0.635114456,2.351135067,5.7219809,0.138887122,0.46926801100000004,1.892119789,0.3939805,0.7830512890000001,1.946507789,4.581120456,0.8564396559999999,0.164179556,179.0676667,3.753444444,118.125,781.3551111,90.38677778,44.65344444,1.084600738,1.793043676,6.546277304
8230,0.915,9.8014,0.0325,0.914,9.7486,-0.2128,0.0161,0.0418,0.2779,-0.1879,-1.8169,0.171,-28.51,-22.59,3.67,212.63,-84.48,-100.69,0.9167441709999999,9.665878866,-1.624726643,0.828208508,0.970205385,0.585124346,0.43426233799999997,0.039257554,0.31052350100000004,0.62996604,0.902243845,0.42018367700000003,0.37698672200000005,0.65675337,0.277344952,5.453530966000001,1.5645020509999998,17.37169153,151.6015908,2.724293996,22.87441317,0.829200762,1.0281700520000001,0.469933934,0.6825,9.997,0.0505,1.0405,9.741,-0.2765,-0.18899999999999997,0.1775,0.3745,-0.1815,-1.9525,0.16899999999999998,-29.9,-22.6,3.4,309.35,-83.8,-109.95,0.68716011,9.889288342,-1.6140034980000002,0.6859293329999999,0.941298489,0.34237049999999997,0.188583778,0.0015411560000000001,0.09642484400000001,0.396857211,0.8140439559999999,0.17655432199999999,0.142118989,0.431324989,0.076920222,29.741,2.447666667,301.7756667,22983.04233,7.421777777999999,523.2387778,0.6875739040000001,1.057133655,0.220837902
737,0.5289,9.5999,1.5127,0.5416,9.6722,1.4602,0.0205,-0.071,-0.0782,0.0247,0.0512,0.0729,34.18,-24.42,-16.12,269.08,-80.9,-20.1,0.5703517770000001,9.714251106,-0.13782627,1.0928695609999999,1.8781504759999998,1.7410337319999998,0.11639702199999999,0.078780708,0.43901754,0.956517787,1.977814956,1.5870652019999998,0.48961868399999997,0.41046499399999997,0.18380512,0.805260482,0.782872205,2.661578479,6.501760445,2.659573901,3.409463953,1.101792948,1.938555236,1.672677639,0.5770000000000001,9.354,1.281,0.5670000000000001,9.698,1.3265,-0.0255,-0.281,-0.0175,0.06,-0.04,0.0485,34.15,-24.55,-15.5,269.15,-81.65,-20.75,0.622078349,9.827034832999999,-0.032464898,1.1943638779999999,3.5274492110000004,3.0311984560000003,0.013548267,0.006206399999999999,0.1927364,0.9149262779999999,3.911752,2.518775956,0.239726456,0.16848151100000003,0.033784322,0.648444444,0.6128888889999999,7.084,42.27288889,7.073333333,11.62444444,1.213947701,3.757996401,2.797850485
10310,0.4036,9.5173,3.1717,0.5317,9.2901,3.0698,-0.17600000000000002,0.2333,0.1712,-0.0146,-0.5771,-0.2457,-6.97,-32.29,18.16,158.99,-71.24,-9.93,0.573161179,9.899826532999999,1.565991346,0.6703177020000001,0.305771538,0.521272812,0.221178686,0.11666614300000001,0.331918598,0.5998323839999999,0.25929650600000004,0.586600527,0.326113886,0.66637201,0.156484327,6.718969828,1.2260596320000001,1.7951787280000002,14.71336883,2.133958242,2.703516229,0.68396221,0.340540445,0.496502084,0.585,9.5125,3.193,0.6005,9.256,3.1830000000000003,-0.1035,0.222,0.3155,0.0265,-0.57,-0.273,-3.6,-32.75,18.4,164.95,-70.5,-10.75,0.744474975,9.949333203,1.603159249,0.44932582200000004,0.09349623300000001,0.271725344,0.048920011,0.013610988999999999,0.110169956,0.359798889,0.06723467799999999,0.344100178,0.106350267,0.444051656,0.024487343999999998,45.14455556,1.5032222219999998,3.222666667,216.4832222,4.553777778,7.309,0.467804304,0.115967794,0.24651432
12332,1.2979,9.8241,0.6366,0.9353,9.7233,0.8316,0.3643,0.1014,-0.1635,0.0784,0.8878,0.0002,27.74,-26.65,-2.54,222.94,-82.43,-48.38,1.307145492,9.787396324,-1.05022697,0.489114495,0.700871117,0.698974201,0.216549225,0.02682474,0.144546186,0.533336677,0.6797960809999999,0.7439854020000001,0.171973641,0.374222988,0.20301111100000002,1.0340857479999999,0.552268051,9.651505352000001,11.78286892,1.123536085,7.275193774,0.48090472700000003,0.7431029859999999,0.658284061,1.2595,9.905,0.759,0.9835,9.726,0.848,0.2895,0.201,-0.215,0.0865,0.8805,-0.0015,27.75,-26.4,-3.6,225.6,-82.45,-48.7,1.27019025,9.835165647,-1.0704117290000001,0.23923298899999998,0.49122032200000004,0.488564933,0.046893567000000004,0.000719567,0.0208936,0.284448011,0.462122711,0.553514278,0.029574932999999998,0.140042844,0.041213511,1.0693333329999999,0.305,93.15155556,138.836,1.262333333,52.92844444,0.23126935699999998,0.5522020470000001,0.433337905
23968,-0.0998,9.5913,2.7508,-0.2896,9.4254,2.6206,0.1188,0.1263,0.2604,0.1507,-0.41200000000000003,-0.0272,29.01,-9.14,-28.58,317.11,-74.05,6.14,0.029905296,9.911129642999999,1.142354313,0.854951045,0.529560625,0.7473408859999999,0.33960212,0.144494675,0.5333250420000001,0.7562152540000001,0.364214848,0.556569093,0.434317613,0.200453375,0.136894769,4.230694716,1.329327315,2.692706198,3.3991665639999997,3.2390842330000003,7.198796196,0.857394705,0.504875118,0.785578688,0.0445,9.4945,2.6985,-0.19399999999999998,9.4225,2.653,0.2325,0.0955,0.18,0.262,-0.4465,-0.009000000000000001,29.75,-9.1,-29.15,316.5,-73.85,4.55,0.165264802,9.76158817,1.080256354,0.7309412890000001,0.280434456,0.5585184,0.1153296,0.020878711,0.28443559999999996,0.571861511,0.132652456,0.309769156,0.188631789,0.040181556,0.018740178,17.89877778,1.767111111,7.250666667000001,11.55433333,10.49166667,51.82266667,0.73512568,0.254898885,0.617133876
12836,0.0219,9.7831,1.1815,-0.6355,9.704,1.1851,0.6887,0.0907,-0.0283,-0.0789,0.7284,0.1159,-29.38,-23.87,-9.89,107.55,-81.74,30.15,0.048478219,9.841940516000001,-0.48434853200000005,0.9445454459999999,0.963711051,1.090427465,0.35042648600000004,0.041325268,0.298097095,0.836246913,0.968499647,0.9892366359999999,0.339243423,0.25395983899999997,0.18487860899999997,1.323127608,1.8732325,8.099444425,29.01062066,1.633129239,15.91255619,0.9263370129999999,1.050062777,1.026869712,-0.2695,9.856,1.081,-0.5595,9.7055,1.247,0.5329999999999999,0.127,0.0825,-0.063,0.599,0.17,-29.7,-23.6,-9.4,107.0,-81.8,28.55,-0.239636568,9.705539072,-0.593467381,0.8921661,0.9287389890000001,1.1890320559999998,0.122798722,0.0017077779999999999,0.088861878,0.6993089,0.9379915670000001,0.978589122,0.11508610000000001,0.0644956,0.0341801,1.750666667,3.509,65.601,841.6161111,2.667111111,253.20944440000002,0.8581002609999999,1.102631835,1.054461404
21234,-0.0844,9.5335,2.2884,0.1099,9.5484,2.0952,-0.1068,0.0052,0.0653,-0.1417,0.0017,0.2289,-29.55,-13.17,-25.36,53.94,-77.64,0.89,0.015190798,9.777166972,0.6746212640000001,0.726390498,0.7037942009999999,1.695174144,0.45949887,0.162113266,0.655177805,0.47898128,0.6567507220000001,1.0108634429999999,0.37824067899999997,0.21144006199999998,0.18361823300000002,1.2483322209999999,3.311948067,1.186217143,11.86219017,3.739340405,11.529137,0.740878728,0.6982896009999999,1.7182837709999998,0.061,9.5735,2.4730000000000003,-0.028999999999999998,9.595,2.0035,-0.096,-0.0775,0.2675,-0.18,0.0505,0.2615,-29.3,-13.7,-25.35,52.9,-78.9,1.1,0.085754451,9.503754707,0.95569412,0.527643156,0.49532627799999995,2.873615378,0.21113921100000002,0.026280711000000002,0.429257956,0.22942306699999998,0.431321511,1.0218449,0.143066011,0.0447069,0.033715656000000004,1.5583333330000002,10.969000000000001,1.4071111109999999,140.7115556,13.98266667,132.921,0.54890129,0.48760836700000004,2.9524991189999996
1700,-0.1966,9.9616,1.3663,-0.0282,9.7104,1.3475,-0.1767,0.2531,0.0226,-0.0294,-0.0167,-0.0621,12.1,-29.94,29.18,200.97,-82.01,0.42,-0.163872294,10.04990175,-0.32964951600000003,0.681691067,0.956084631,0.45375814700000006,0.170605979,0.028523674,0.197624925,0.523168987,0.943261652,0.414035211,0.36204978200000004,0.142983332,0.128477797,1.331665624,0.8099382690000001,0.616080803,8.212328131,1.192057046,7.08045824,0.682853264,0.937406014,0.49279728899999997,-0.316,10.022,1.4005,-0.09,9.72,1.2895,-0.193,0.3645,0.0005,-0.0545,0.0295,-0.0795,12.7,-29.9,29.1,203.7,-81.9,3.1,-0.27107113,10.19684313,-0.443673781,0.464702711,0.914097822,0.205896456,0.0291064,0.0008136000000000002,0.039055611000000004,0.273705789,0.8897425440000001,0.17142515600000002,0.131080044,0.020444233,0.016506543999999998,1.773333333,0.6559999999999999,0.379555556,67.44233333,1.421,50.13288889,0.46628858100000004,0.878730035,0.242849168
4928,0.5649,9.6987,1.9299,0.7882,9.7082,1.0595,-0.1478,0.0103,0.8698,-0.0514,-1.9178,-0.3054,-29.49,-23.05,-5.75,120.05,-81.91,-35.63,0.600355255,9.883447945,0.255635044,1.229555606,0.661221773,1.005577054,0.426414196,0.03581992,0.11468144300000001,0.867456537,0.616359212,1.031766963,0.188723313,0.323407139,0.180040242,4.213325422,2.839503086,16.92678679,128.2788564,1.4255213469999999,15.49308448,1.222305226,0.7179544659999999,0.97509811,0.37799999999999995,9.5195,1.8605,0.784,9.7285,1.0979999999999999,-0.124,-0.146,0.7845,-0.0685,-1.835,-0.331,-30.0,-23.5,-7.1,67.15,-82.65,-40.8,0.406569534,9.69563262,0.141567933,1.511806989,0.43721423299999995,1.011185211,0.18182906699999998,0.001283067,0.013151833,0.752480844,0.379898678,1.064543067,0.035616489,0.10459217800000001,0.032414489,17.75211111,8.062777778,286.5161111,16455.465,2.032111111,240.03566669999998,1.4940300659999999,0.515458615,0.950816325
18665,-0.0452,9.61,2.0099,0.1597,9.605,1.9693,-0.1732,0.031,0.0201,-0.0126,-0.24600000000000002,-0.0728,-34.6,-15.81,-21.26,57.59,-78.36,-4.86,0.024204919,9.810658243999999,0.378725749,0.39447596700000004,0.153494119,0.351270535,0.092667926,0.016041613,0.078896627,0.311717037,0.145708995,0.290661105,0.13353168599999998,0.11113655300000001,0.092560851,1.7492855680000001,0.6624030329999999,3.08516162,6.356877291,0.45264653899999996,2.2682347519999997,0.39096237899999997,0.146724603,0.35927630899999996,-0.0635,9.6265,1.986,0.1775,9.607000000000001,1.9535,-0.083,0.0345,0.0295,-0.0085,-0.2365,-0.075,-35.05,-15.6,-21.3,55.7,-78.5,-5.65,0.019073581000000003,9.802900441,0.342688228,0.155611289,0.023560444,0.123390989,0.008587344,0.000257333,0.006224678000000001,0.097167511,0.021231111,0.08448387800000001,0.017830711000000003,0.012351333,0.008567511,3.06,0.43877777799999995,9.518222222,40.40988889,0.204888889,5.144888889,0.15285158199999999,0.021528109,0.129079466
11520,-1.0608,9.2473,3.1204,-0.8084,9.3637,2.7824,-0.22699999999999998,-0.1513,0.3146,-0.1011,0.3459,0.1579,8.43,-30.22,21.87,209.0,-72.91,17.02,-0.907120638,9.639194302,1.620837804,0.42013431700000003,0.509341198,0.52067802,0.138087895,0.07083321599999999,0.28449495199999997,0.392913901,0.424641823,0.47883010200000004,0.146018606,0.42855271899999997,0.155396589,4.395970377,1.382268667,0.607453702,12.57802316,1.534383698,4.473576744,0.415837086,0.512960584,0.531871255,-1.1095,9.0895,3.1125,-0.7979999999999999,9.3515,2.827,-0.2695,-0.247,0.3305,-0.11199999999999999,0.2225,0.1855,6.75,-30.6,22.0,204.25,-72.5,16.5,-0.943116851,9.502813232000001,1.679254738,0.17651284399999997,0.25942845600000003,0.27110559999999995,0.019068267,0.005017344,0.080937378,0.154381333,0.180320678,0.22927826699999998,0.021321432999999997,0.183657433,0.0241481,19.32455556,1.9106666669999999,0.369,158.2066667,2.354333333,20.01288889,0.172920482,0.26312856100000004,0.282887032
13434,-0.109668,8.564839,4.640191000000001,-0.729904,8.735551,4.376768,0.610078,0.13125499999999998,0.466829,-0.024239,0.531828,0.221598,-26.2741,0.0732,-15.2168,69.0918,-62.9267,8.7355,0.238968835,9.172501427,3.2830278330000002,1.056719895,1.252023525,1.596122831,0.223008841,0.16938433100000003,0.33519639,0.96704523,1.1293080979999999,1.801103132,0.249594271,0.765019812,0.47490034,7.911341387,3.7095524380000002,6.629997097,18.59822339,2.125094406,2.7096906030000003,1.1147780059999999,1.319133905,1.4733905319999998,-0.447175,8.74426,4.427835,-0.68499,8.73125,4.4223550000000005,0.239275,0.258125,-0.16953,-0.059070000000000004,0.76352,0.413775,-29.631,-1.033,-15.0915,73.335,-62.916000000000004,8.588,-0.100306122,9.461168002,2.9793220989999996,1.116656936,1.567562906,2.547608091,0.049732942999999995,0.028691052,0.11235662,0.9351764770000001,1.27533678,3.243972491,0.06229730000000001,0.585255313,0.225530333,62.58932254,13.76077929,43.95686151,345.8939133,4.516026233,7.342423167000001,1.242730002,1.7401142580000002,2.170879659
7477,-0.3355,9.6771,1.7731,-0.3135,9.7022,1.3561,-0.0056,-0.0259,0.4248,0.067,0.3144,0.1099,5.07,-28.97,25.92,202.79,-81.77,14.57,-0.290852762,9.838349526,0.124152155,0.547578761,0.73067738,0.9029264090000001,0.13398611,0.04803656,0.306780939,0.533754459,0.712223818,0.759555396,0.272981074,0.842946973,0.177666635,4.796074784,1.4040022159999999,1.3480850619999998,13.28277498,1.728872465,5.895016728,0.539554845,0.8057731140000001,0.848092143,-0.3385,9.657,1.676,-0.301,9.7175,1.291,0.185,0.0255,0.301,-0.027999999999999997,0.4055,0.0925,6.35,-28.8,26.3,203.55,-82.25,14.0,-0.318531004,9.839489842999999,0.011618392,0.2998425,0.533889433,0.8152761,0.017952278000000002,0.002307511,0.09411454400000001,0.284893822,0.5072627670000001,0.5769244000000001,0.074518667,0.7105596,0.031565433,23.00233333,1.971222222,1.817333333,176.43211110000001,2.989,34.75122222,0.29111943,0.649270311,0.719260283
16279,5.924354,-7.413952,1.883432,6.013934,-7.294149000000001,1.911933,0.012974000000000001,-0.056438999999999996,0.40223200000000003,-0.706809,0.263914,0.08977,6.763999999999999,22.2507,-30.2231,290.4898,48.0236,-71.5363,6.007684567,-7.565279894,0.711799326,1.184626391,0.947136877,2.260912364,0.73631011,0.605444745,1.6072934419999998,1.272945432,1.103208932,1.846654848,0.8214310659999999,1.012947362,1.011371594,4.886612073,6.779369441,3.357744761,15.71697963,5.372036531,14.37036554,1.2090520009999999,1.050494246,2.145198164,6.145055,-7.657214999999999,1.19082,5.91924,-7.0814699999999995,1.323405,0.024365,0.04045,-0.18012999999999998,-0.50489,0.654065,0.173285,7.5205,22.119,-30.598000000000003,289.221,47.915,-75.645,6.158949672,-7.700454861,0.082346138,1.403339687,0.8970682640000001,5.111724716,0.5421525779999999,0.366563339,2.583392209,1.6203900740000001,1.217069947,3.410134128,0.6747489959999999,1.026062358,1.022872501,23.87897756,45.95985001,11.27444988,247.02344879999998,28.85877649,206.50740580000002,1.46180674,1.10353816,4.601875164
8898,-0.7514,9.3118,3.279,-0.6207,9.3202,2.9607,-0.1344,-0.0074,0.3312,-0.0966,1.5341,0.5036,24.33,-18.34,-23.06,315.71,-71.99,11.49,-0.578782201,9.724840593,1.76270027,0.49942527,0.434990115,0.621035157,0.216353132,0.116373727,0.33246856199999997,0.429421885,0.462952649,0.430543532,0.23842781300000002,0.5616108679999999,0.170964064,9.526110317,3.443576952,12.81485249,29.13666838,2.27031569,3.236064139,0.479980594,0.43131504,0.64855218,-0.7959999999999999,9.3985,3.4905,-0.6779999999999999,9.3175,2.9815,-0.092,0.1385,0.3535,-0.08199999999999999,1.757,0.5295,29.0,-16.95,-24.15,314.45,-71.7,12.75,-0.58767294,9.838797938999999,2.0102587780000003,0.2494256,0.1892164,0.38568466700000004,0.046808678,0.013542843999999998,0.11053534400000001,0.184403156,0.21432515600000002,0.185367733,0.056847822,0.315406767,0.029228711,90.74677778,11.85822222,164.22044440000002,848.9454444,5.154333333,10.47211111,0.230381371,0.18603266300000001,0.42061993
21185,-0.9265,9.0475,3.9366,-0.6749,9.0168,3.7459,-0.2408,0.0536,0.1715,-0.1896,-0.0033,-0.0623,-34.08,-16.87,-15.01,87.04,-67.43,9.55,-0.6622266729999999,9.558752044,2.5239286080000003,0.644017124,0.295372552,0.7702882870000001,0.264629489,0.248838993,0.540682377,0.49566180200000004,0.272100553,0.524512101,0.095835739,0.279523821,0.129861507,0.676264248,0.834066344,1.9416201709999998,3.8288959819999997,3.593528133,2.590688454,0.598340365,0.22130111800000002,0.8521235779999999,-0.8165,9.027999999999999,3.9085,-0.6759999999999999,9.0635,3.6775,-0.1125,0.0505,0.2615,-0.18100000000000002,0.0545,-0.087,-33.9,-17.15,-14.9,87.95,-67.8,9.6,-0.47265884,9.506179292,2.513869606,0.41475805600000004,0.087244944,0.593344044,0.070028767,0.061920844,0.292337433,0.245680622,0.074038711,0.27511294399999997,0.009184489,0.078133567,0.016864011,0.45733333299999995,0.695666667,3.7698888889999997,14.66044444,12.91344444,6.711666667,0.35801119200000003,0.048974185,0.7261145920000001
11174,0.065,9.4358,2.2269,0.3172,9.579,1.9528,-0.2408,-0.1291,0.2601,0.207,0.8899,0.1788,1.86,-29.34,22.57,178.5,-78.08,-8.06,0.152034733,9.671546054,0.62049358,0.826534398,0.599259691,1.155916803,0.272277963,0.140904223,0.6770926079999999,0.928499482,0.469445406,0.530491481,0.372095866,0.854837795,0.29975427,8.623894454,2.885288355,3.49890459,21.09080895,4.087052728,8.768149431,0.831577456,0.43494475,1.246615673,-0.126,9.462,2.2315,0.408,9.6065,1.9095,-0.159,-0.172,0.358,0.139,0.9390000000000001,0.051,5.05,-29.6,23.05,189.1,-78.1,-9.45,-0.082000767,9.598392947,0.643766565,0.6831591109999999,0.35911217799999995,1.336143656,0.07413528900000001,0.019854,0.4584544,0.8621112890000001,0.220378989,0.281421211,0.138455333,0.7307476559999999,0.089852622,74.37155556,8.324888889,12.24233333,444.8222222,16.704,76.88044444,0.691521065,0.18917693600000002,1.5540506369999998
20464,-0.2432,9.164,3.6999,-0.2673,9.0694,3.7089,0.0172,0.1101,-0.0253,0.0163,-0.3034,-0.1237,-18.78,-30.28,22.01,152.43,-67.72,3.94,-0.001625515,9.633391707000001,2.218464025,0.595056823,0.47119587799999996,0.719674224,0.168637712,0.10386016199999999,0.24748982,0.46375875,0.47470750100000003,0.595429266,0.281809254,0.205786945,0.135444987,2.584913495,0.877876225,2.208795549,4.6399353439999995,1.666533328,2.402868656,0.550096634,0.426711754,0.783088717,-0.23,9.04,3.8895,-0.20199999999999999,9.062000000000001,3.7430000000000003,0.022000000000000002,-0.0205,0.1795,-0.0705,-0.273,-0.16699999999999998,-19.05,-30.3,20.75,153.9,-67.45,3.05,0.033172217000000004,9.525480216,2.450247923,0.354092622,0.222025556,0.517930989,0.028438678,0.010786933,0.06125121099999999,0.215072178,0.22534721100000002,0.35453601100000004,0.079416456,0.042348267,0.018345344,6.681777778,0.7706666670000001,4.878777778,21.529,2.777333333,5.7737777779999995,0.302606306,0.182082921,0.613227938
16857,0.0724,9.7612,1.6142,-0.1422,9.6409,1.7761,0.2216,0.1359,-0.1449,0.0679,-0.2835,-0.0342,28.0,-23.16,19.78,233.9,-79.45,4.72,0.12312053,9.893069623999999,-0.046001108,0.43907787200000004,0.41815914,0.41335801,0.178185172,0.028481767999999998,0.144984635,0.374133428,0.424378094,0.318619749,0.100437322,0.242515635,0.162551052,1.9447936190000001,0.815407192,2.173987632,7.399399375,0.7763876470000001,5.711353216,0.42905688299999994,0.455329896,0.38614049100000003,0.0755,9.874,1.6019999999999999,-0.1705,9.642999999999999,1.7630000000000001,0.3645,0.21,-0.11699999999999999,0.0755,-0.3015,0.0275,28.6,-23.35,18.7,231.05,-79.6,6.55,0.143687497,9.996065384,-0.017626577,0.192789378,0.174857067,0.170864844,0.031749956,0.000811211,0.021020544,0.139975822,0.180096767,0.101518544,0.010087656,0.058813832999999996,0.026422843999999997,3.7822222219999997,0.664888889,4.726222222,54.75111111,0.602777778,32.61955556,0.184089809,0.207325315,0.149104479
16847,0.0713,9.5544,2.2961,-0.0474,9.5523,2.2067,0.1303,0.0173,0.1105,0.0749,-0.4439,-0.1511,12.46,-26.73,29.71,200.83,-76.91,1.2,0.159755903,9.802217229,0.674480595,0.648843424,0.536547233,0.596634534,0.155240459,0.041572026,0.177687022,0.592271344,0.539943217,0.529032713,0.172019669,0.367223653,0.149189253,6.014094556,1.466704545,2.015192299,12.838401600000001,1.099949494,4.067759416,0.64019751,0.546037191,0.597187166,0.188,9.7545,2.339,0.0165,9.568999999999999,2.145,0.231,0.2635,0.0075,0.0685,-0.531,-0.1805,10.75,-26.65,30.35,195.35,-77.4,-0.5,0.278545975,9.981390481,0.726111932,0.420997789,0.287882933,0.355972767,0.0240996,0.0017282329999999998,0.031572678,0.350785344,0.291538678,0.279875611,0.029590767,0.134853211,0.022257432999999997,36.16933333,2.151222222,4.061,164.8245556,1.2098888890000001,16.54666667,0.40985285200000005,0.298156614,0.35663251100000004
21831,0.1131,9.3414,2.7435,-0.0343,9.4731,2.5241,0.0849,-0.1254,0.2893,0.0384,-1.0322,-0.2325,-13.48,-11.34,-35.65,59.64,-74.91,1.14,0.234109924,9.664177287000001,1.160911093,0.5096051739999999,0.386084965,0.530054557,0.22404218399999998,0.027790686000000002,0.10261627599999999,0.410335757,0.372864646,0.5410009339999999,0.175016952,0.257500291,0.10235694599999999,11.2496716,0.8921883209999999,4.49079305,106.01296780000001,0.652261025,5.031279934,0.49432845,0.377646451,0.5527292220000001,0.06,9.408,2.6060000000000003,-0.17300000000000001,9.4765,2.516,0.214,-0.094,0.2285,0.016,-1.0225,-0.24600000000000002,-14.1,-11.4,-36.4,32.4,-75.1,4.4,0.159905447,9.77021261,1.035562849,0.25969743300000003,0.1490616,0.280957833,0.0501949,0.000772322,0.0105301,0.16837543300000002,0.13902804400000002,0.292682011,0.030630933,0.0663064,0.010476944,126.5551111,0.7959999999999999,20.16722222,11238.74933,0.425444444,25.31377778,0.244360616,0.142616842,0.305509593
3693,0.5917,9.7008,1.7168,0.596,9.637,1.6966,-0.0138,0.0476,0.0302,0.0236,0.1767,0.0734,2.41,-29.97,25.45,167.74,-79.33,-19.75,0.641698552,9.848388678,0.050900377999999996,0.387985982,0.42278174,0.5933332960000001,0.153314492,0.03330332,0.22069748,0.388917815,0.42985920200000005,0.680419936,0.11081837,0.572443505,0.085108036,1.177992643,0.485455113,1.397815756,5.542201728999999,0.874388675,5.998194173,0.38126088700000005,0.405348745,0.60772193,0.6965,9.8465,1.494,0.5845,9.6445,1.6205,0.0865,0.223,-0.2505,0.0165,0.16899999999999998,0.0905,2.1,-29.9,26.15,166.2,-79.4,-19.0,0.739749855,9.965625807,-0.190437828,0.150533122,0.1787444,0.35204440000000004,0.023505333,0.001109111,0.048707377999999996,0.151257067,0.184778933,0.462971289,0.012280711000000001,0.327691567,0.007243378000000001,1.387666667,0.235666667,1.9538888890000001,30.715999999999998,0.7645555559999999,35.97833333,0.145359864,0.164307605,0.36932594399999996
1874,0.3067,9.2797,1.5946,0.457,9.6479,1.6884,-0.1636,-0.3784,-0.1438,0.0113,0.1507,0.0677,8.93,-31.09,27.84,182.58,-79.69,-14.59,0.352844566,9.413996314,0.006204508,0.939907212,2.026459093,0.992525421,0.106389223,0.030541229,0.152552505,0.872180053,1.950792557,1.085850491,0.286011674,0.181543414,0.126949728,1.720497344,0.815747782,0.650128192,6.105152651,0.971196284,3.1987671239999997,0.939590218,2.118140055,0.77955205,0.139,9.757,1.4865,0.512,9.658,1.651,-0.348,0.1005,-0.1585,-0.0165,0.1505,0.046,8.15,-30.95,27.95,179.35,-80.0,-15.8,0.227990983,9.849390449,-0.190562636,0.8834255670000001,4.106536456000001,0.9851067109999999,0.011318667,0.0009327669999999999,0.023272267000000003,0.7606980440000001,3.8055915999999996,1.1790712890000001,0.081802678,0.032958011,0.016116233,2.9601111110000002,0.665444444,0.42266666700000005,37.27288889,0.943222222,10.23211111,0.882829779,4.486517291,0.607701398
7917,0.2852,9.7619,1.6079,0.4402,9.6013,1.8278,-0.1178,0.1219,-0.19899999999999998,-0.047,1.2592,0.1722,26.17,-26.72,3.01,238.46,-78.47,-16.2,0.33957791299999995,9.892495378,-0.045138842,1.2035384679999999,0.739135298,0.712800494,0.495202271,0.079485918,0.502985708,0.9514044359999999,0.784125904,0.68801405,0.345355533,0.447021203,0.21233244399999998,3.9471649460000005,2.0048829280000002,11.69724089,17.0400965,2.186346521,16.81903683,1.177330958,0.7934379659999999,0.684016025,0.262,9.837,1.608,0.5325,9.636000000000001,1.7405,0.2925,0.14400000000000002,-0.3775,-0.077,1.291,0.1505,28.15,-26.5,3.2,232.85,-79.05,-16.7,0.320518391,9.941452577,-0.042695407000000005,1.4485048440000001,0.546320989,0.508084544,0.24522528899999999,0.006318011,0.252994622,0.9051703999999999,0.614853433,0.473363333,0.119270444,0.199827956,0.045085067,15.58011111,4.019555556,136.8254444,290.3648889,4.780111111,282.88,1.386108185,0.629543805,0.46787792200000006
10091,0.414,9.3914,2.2171,0.7869,9.5893,1.7943,-0.3564,-0.187,0.409,-0.0696,0.3014,-0.0437,10.0,-30.04,21.14,179.89,-78.01,-25.72,0.487039379,9.627301745,0.61147451,1.2170082629999999,0.845489365,1.5056673269999998,0.532566,0.053452055,0.361347801,0.77711535,0.810074482,1.2693618690000001,0.402668653,1.202192368,0.276171464,5.520265694,0.386436713,2.51272318,15.05386255,1.511768648,15.94565772,1.192340089,0.7700179220000001,1.5609216469999998,0.5795,9.594,1.5119999999999998,0.86,9.594,1.7890000000000001,-0.16899999999999998,-0.049,-0.231,-0.0785,0.588,-0.1055,10.65,-30.05,21.0,182.4,-78.15,-27.05,0.61520076,9.888519333,-0.150768381,1.4811091109999999,0.714852267,2.2670341,0.283626544,0.002857122,0.130572233,0.603908267,0.656220667,1.611279556,0.162142044,1.445266489,0.076270678,30.47333333,0.149333333,6.3137777779999995,226.6187778,2.285444444,254.264,1.4216748869999998,0.5929276,2.436476387
17927,-1.1706,9.4014,3.2388,-0.9087,9.2039,3.2481,-0.2507,0.1734,-0.0394,-0.0556,-0.092,-0.065,39.82,-15.98,-5.49,284.67,-69.94,15.55,-0.9839070659999999,9.807593205,1.7530339659999998,0.463679775,0.498443845,0.490945301,0.142890051,0.094473335,0.254112595,0.57317712,0.507905766,0.34828794,0.205465974,0.19628211,0.13441312800000002,1.266491216,1.15161722,1.078527803,4.194189102,1.5529184,2.5678568669999997,0.47060527,0.51761347,0.48297412799999995,-1.1325,9.2455,3.3985,-0.9329999999999999,9.2335,3.182,-0.1815,-0.048,0.094,-0.0735,-0.106,-0.062,40.25,-15.7,-5.7,285.85,-70.4,16.3,-0.928655385,9.613231667,1.81969772,0.214998933,0.248446267,0.24102728899999998,0.020417567,0.008925211,0.06457321099999999,0.328532011,0.257968267,0.121304489,0.042216267,0.038526667,0.018066889,1.604,1.326222222,1.1632222220000001,17.59122222,2.411555556,6.593888889,0.22146932,0.267923704,0.233264009
22422,-0.9703,9.0373,3.6565,-1.0926,9.0929,3.4896,0.1457,-0.0747,0.1737,-0.0506,0.0061,-0.0786,-2.35,-31.15,28.25,189.22,-68.2,17.0,-0.7429867259999999,9.508945574,2.236443806,0.911306272,0.464770206,0.750509642,0.16947841600000002,0.130130234,0.292180005,0.8537290809999999,0.485923645,0.5412524670000001,0.160383014,0.380654831,0.15272066,2.973307175,0.723033732,0.969822435,4.04359576,2.0472203380000003,1.562761089,0.87134187,0.504194011,0.779733399,-1.001,9.078,3.966,-1.005,9.128,3.4455,0.26,-0.1965,0.3175,-0.0405,-0.05,-0.1415,-2.4,-31.15,28.45,189.3,-68.95,16.95,-0.8033922720000001,9.39513848,2.5849522680000003,0.8304791220000001,0.216011344,0.563264722,0.028722933,0.016933878,0.085369156,0.728853344,0.236121789,0.292954233,0.025722711000000002,0.1448981,0.0233236,8.840555556,0.5227777779999999,0.940555556,16.35066667,4.1911111110000006,2.442222222,0.759236655,0.254211601,0.6079841739999999
14073,3.325647,6.534743,6.274331,3.7355129999999996,7.601358,4.580633,-0.2103,-0.74515,1.819048,0.605703,0.001489,0.490097,-31.1614,3.2418,-9.2045,37.6728,-51.5606,-40.2511,3.8366497460000004,7.261109488,5.05563822,1.3660848490000002,1.204834449,1.370779749,0.829532815,0.736159118,1.6146789119999998,1.5690244830000002,1.302539053,1.2328002809999998,0.514361494,0.526231149,0.7278305820000001,2.032298272,2.441530658,2.928325545,20.55934477,7.444249133,13.99981221,1.4306708869999998,1.2741270679999999,1.291391276,3.077605,6.0235449999999995,6.555244999999999,3.53925,7.276864999999999,4.790245,-0.19959000000000002,-0.9143549999999999,1.6999849999999999,0.6669,0.040215,0.7709,-31.224,4.0605,-8.436,42.754,-48.26,-39.463,3.735610735,6.831969626,5.318088209,1.866187815,1.45162605,1.8790371209999999,0.688124691,0.5419302460000001,2.6071879890000003,2.4618378290000003,1.6966079859999998,1.519796532,0.264567746,0.27691922199999996,0.529737356,4.130236267,5.9610719560000005,8.5750905,422.6866573,55.41684516,195.9947419,2.046819187,1.623399786,1.6676914269999998
17674,0.0671,9.4606,2.6807,-0.0786,9.4999,2.4114,0.1298,-0.0001,0.2268,0.0383,-0.08800000000000001,0.0252,28.66,-11.39,-26.96,311.43,-75.67,2.32,0.18014992,9.77224621,1.076740058,0.447669384,0.32701179,0.7089217240000001,0.234259685,0.055744357,0.233140968,0.399726518,0.31931191600000003,0.861053205,0.28901905,0.313821251,0.09517796199999999,1.811813088,0.56852636,1.967626884,2.728064027,1.3679262490000001,5.949192289,0.44106207,0.332682015,0.7143135829999999,0.255,9.3745,2.6065,-0.145,9.481,2.4945,0.174,0.0445,0.213,-0.026000000000000002,-0.057999999999999996,-0.004,28.95,-11.3,-27.25,312.1,-75.35,4.65,0.38790824,9.686856328,1.018747837,0.200407878,0.10693671099999999,0.502570011,0.0548776,0.0031074329999999997,0.05435471099999999,0.159781289,0.10196010000000001,0.741412622,0.08353201099999999,0.09848377800000001,0.009058844,3.282666667,0.323222222,3.871555556,7.442333333,1.8712222219999999,35.39288889,0.19453575,0.11067732300000001,0.510243894
8251,0.1819,10.0406,0.1899,0.0666,9.8016,0.1582,0.121,0.19,0.0642,0.0106,-0.0913,-0.0623,8.14,-25.4,28.47,168.43,-88.32,-27.29,0.181282453,9.926471281,-1.5217095919999999,0.775570965,0.446393001,0.696046845,0.21648772100000002,0.0035962940000000003,0.176584761,0.625911779,0.49021537200000004,0.87298171,0.202690349,0.861327535,0.150708733,4.513239782,0.962635272,0.801457007,68.90566901,0.6972963659999999,70.8802817,0.7753118440000001,0.40530740600000004,0.720640607,0.0165,10.05,0.0585,0.1585,9.8025,0.2025,0.0495,0.2565,-0.134,-0.0285,-0.474,-0.0915,8.75,-25.25,28.7,169.4,-88.25,-37.5,0.015121713,9.948134759,-1.625107276,0.601510322,0.199266711,0.484481211,0.046866933,1.29e-05,0.031182177999999998,0.391765556,0.24031111100000002,0.762097067,0.041083378,0.741885122,0.022713122000000002,20.36933333,0.926666667,0.642333333,4747.991222,0.48622222200000004,5024.014333,0.601108455,0.164274093,0.519322884
20858,-1.3294,8.7911,4.0446,-1.3278,8.8654,3.9565,-0.01,-0.0896,0.0758,0.0879,-0.2936,-0.2103,-29.79,-16.05,-21.08,84.46,-64.67,18.14,-1.046888841,9.321844885,2.7220133069999997,0.29255434399999997,0.364838305,0.394025436,0.374944085,0.07767911200000001,0.172403435,0.5379200679999999,0.36730496,0.384091945,0.149329204,0.19339206,0.102572522,1.68156673,3.4046536780000003,2.598632119,11.39192697,1.053090689,5.232207947,0.309946079,0.324666678,0.42509662,-1.4175,8.946,3.912,-1.4845,8.8665,4.0255,0.2235,0.003,-0.045,0.019,-0.3175,-0.19699999999999998,-29.65,-15.45,-22.2,83.65,-64.6,19.3,-1.109071916,9.454364809,2.569133009,0.085588044,0.133106989,0.155256044,0.140583067,0.0060340440000000006,0.029722943999999998,0.289358,0.134912933,0.147526622,0.022299211,0.037400489,0.010521121999999999,2.827666667,11.59166667,6.752888888999999,129.776,1.109,27.375999999999998,0.09606657199999999,0.10540845199999999,0.18070713600000002
11258,-0.3502,9.2399,2.847,-0.2448,9.437000000000001,2.6045,-0.1311,-0.1969,0.2606,-0.1024,1.3797,0.4358,24.44,-19.03,-22.66,310.35,-74.44,5.55,-0.216856705,9.582851795,1.30677307,1.204293597,0.6166764770000001,1.05653364,0.38866317899999997,0.100918009,0.37287926299999996,0.89175812,0.645853174,0.889210411,0.260116726,0.639486608,0.25673670000000004,7.990160616,3.537120612,9.949338336,29.02662571,2.428625583,7.653648367000001,1.174877433,0.594660525,1.110403422,-0.217,9.1235,2.9210000000000003,-0.2275,9.4025,2.7795,-0.038,-0.2815,0.332,-0.0605,1.1440000000000001,0.4885,28.75,-17.75,-21.2,311.9,-73.6,7.55,-0.115606372,9.551202597,1.498987564,1.4503230669999998,0.38028987799999997,1.116263333,0.151059067,0.010184444,0.139038944,0.7952325440000001,0.41712632200000005,0.790695156,0.067660711,0.40894312200000005,0.065913733,63.84266667,12.51122222,98.98933333,842.545,5.898222222,58.57833333,1.380336982,0.35362114,1.23299576
683,1.0426,9.7883,1.4079,1.2714,9.6191,1.3708,-0.2199,0.1909,0.106,0.1035,0.2785,-0.0501,29.26,-25.09,-29.76,265.88,-78.58,-43.29,1.078025506,9.88189023,-0.270003478,0.8546448520000001,1.825080153,1.0527683559999998,0.32815856600000004,0.029591477999999997,0.24150491100000002,0.776605355,1.808870639,0.994035546,0.33841567100000003,0.371275654,0.17200029100000003,3.203192852,0.525885497,2.665499745,7.33633272,1.1877148929999999,10.72872054,0.842554515,1.840589751,1.031723342,1.131,9.067,1.3119999999999998,1.416,9.6255,1.3275,-0.2045,-0.5305,0.0725,0.1,0.2385,-0.0365,28.7,-24.9,-29.35,265.5,-78.55,-46.0,1.1800509209999999,9.319678182,-0.413034258,0.730417822,3.3309175669999997,1.108321211,0.10768804400000001,0.000875656,0.058324622,0.603115878,3.272012989,0.988106667,0.114525167,0.137845611,0.029584100000000002,10.26044444,0.27655555600000004,7.104888889,53.82177778,1.4106666669999999,115.10544440000001,0.7098981109999999,3.38777063,1.064453055
5776,1.5172,9.3171,2.4684,1.2690000000000001,9.4888,2.0071,0.2417,-0.1349,0.4538,-0.2417,-1.5398,-0.3578,19.4,-28.85,8.14,205.16,-76.07,-32.42,1.6028925809999999,9.586800423,0.840312189,1.0513647,1.141301153,1.1001831359999998,0.413853973,0.173290251,0.588994143,0.771076599,1.156680447,1.1940956409999999,0.329369448,0.846974983,0.367518344,7.678975626000001,1.303201187,14.07994634,29.90637985,4.210845785,4.148841873,1.048043063,1.2178887520000001,1.029637373,1.7805,9.206,2.458,1.0995,9.475,2.1675,0.4335,-0.325,0.737,-0.2715,-1.665,-0.2185,21.95,-29.3,11.9,205.55,-75.75,-34.1,1.887907744,9.531063422999999,0.86438509,1.105367733,1.302568322,1.210402933,0.171275111,0.030029511000000002,0.34691409999999995,0.594559122,1.337909656,1.4258643999999998,0.10848423300000001,0.717366622,0.135069733,58.96666667,1.6983333330000001,198.2448889,894.3915556,17.73122222,17.21288889,1.098394261,1.4832530130000001,1.06015312
23419,-0.843,9.4606,2.2736,-0.6883,9.4932,2.3448,-0.1768,-0.0154,-0.107,-0.0555,0.3258,0.0648,-18.07,-10.93,-34.28,48.84,-75.59,16.68,-0.746802113,9.710761948,0.713864785,0.410797869,0.406680382,0.813726435,0.138720382,0.05418856,0.247697755,0.406189556,0.425361075,0.631617852,0.34316508799999995,0.361425204,0.11648061400000001,3.5496635210000003,1.208350575,1.801110768,4.676703492,1.31946959,4.539652459,0.40118977100000003,0.345409846,0.857045563,-0.813,9.419,2.4445,-0.7135,9.484,2.4055,-0.1955,-0.07200000000000001,0.004,-0.039,0.3915,0.0365,-18.9,-11.0,-34.3,50.55,-75.3,15.3,-0.7194672459999999,9.70440676,0.8379169009999999,0.168754889,0.16538893300000002,0.662150711,0.019243344,0.0029364,0.061354177999999995,0.164989956,0.180932044,0.398941111,0.11776227800000001,0.130628178,0.013567733,12.60011111,1.460111111,3.2439999999999998,21.87155556,1.7409999999999999,20.60844444,0.160953232,0.11930796199999999,0.734527096
10553,0.2241,9.9462,0.9036,0.3354,9.7327,0.9605,-0.0131,0.1498,-0.1635,-0.1064,-1.3554,-0.0628,-18.21,-27.12,19.07,136.03,-83.76,-5.16,0.245495025,9.95444998,-0.7948114070000001,0.707667287,0.8445667920000001,1.1016651240000002,0.35594699999999996,0.052370581,0.573005381,0.670274977,0.8846954029999999,0.810095913,0.364707554,1.310472281,0.316651859,9.779508053999999,2.17143066,8.905684826,38.41345395,3.2489998460000002,42.10656323,0.702783327,0.8987664670000001,1.066667035,0.14400000000000002,9.9885,1.1745,0.373,9.707,1.236,-0.16899999999999998,0.268,0.0325,-0.1235,-1.2305,-0.0895,-16.55,-27.45,23.1,142.3,-82.55,-21.1,0.184291554,10.10042413,-0.605121179,0.500792989,0.7132930670000001,1.213666044,0.126698267,0.0027426779999999997,0.328335167,0.449268544,0.7826859559999999,0.656255389,0.1330116,1.7173376,0.1002684,95.63877778,4.715111111000001,79.31122222,1475.5934439999999,10.556,1772.9626670000002,0.493904405,0.807781162,1.137778564
11692,-0.1149,9.736,1.5459,0.3447,9.7245,1.1295,-0.4171,-0.052000000000000005,0.4281,0.1403,1.5081,0.23399999999999999,-7.91,-25.9,22.54,149.32,-82.94,-17.0,-0.082890013,9.857170266,-0.12023538199999999,0.507082165,0.43125682,0.739135749,0.225752593,0.053786099000000004,0.421816245,0.52450367,0.40917179200000003,0.70827199,0.300745019,0.53862571,0.291723994,15.0155068,2.387932625,5.36908848,34.35678164,2.273128045,12.67306856,0.510766622,0.441867082,0.736016675,-0.0405,9.6705,1.6655,0.28600000000000003,9.756,0.9309999999999999,-0.2255,-0.0685,0.657,0.12300000000000001,1.607,0.266,-7.1,-25.8,23.55,138.85,-84.15,-13.7,-0.013160682,9.867010968999999,0.009750309,0.25713232199999997,0.185982444,0.546321656,0.050964233,0.002892944,0.17792894399999998,0.27510409999999996,0.167421556,0.501649211,0.09044756699999999,0.290117656,0.085102889,225.46544440000002,5.7022222220000005,28.82711111,1180.388444,5.1671111110000005,160.60666669999998,0.260882543,0.195246518,0.541720546
19283,-0.1385,9.5381,2.4991,-0.053,9.5196,2.3526,-0.0832,0.0142,0.1638,-0.0153,-0.7225,-0.1794,-33.27,-22.92,10.05,115.16,-76.17,1.29,-0.035547141000000004,9.820606575,0.890850547,0.273105698,0.233705632,0.409569001,0.110644576,0.011364663,0.04406359,0.239404261,0.230997258,0.368184676,0.070899068,0.188408687,0.113014453,3.169314682,1.619876539,7.9074156470000005,12.12748944,0.22135943600000002,2.7456834810000004,0.25923324,0.252507665,0.408566207,-0.032,9.596,2.3185,-0.0835,9.5225,2.343,-0.033,0.096,0.0265,-0.0215,-0.7465,-0.2025,-33.55,-23.55,10.85,117.95,-76.2,2.4,0.059153622999999995,9.855297173,0.7535563820000001,0.07458672200000001,0.054618322000000004,0.167746767,0.012242221999999999,0.000129156,0.0019416000000000001,0.0573144,0.053359733,0.135559956,0.005026678,0.035497833,0.012772267,10.04455556,2.6239999999999997,62.52722222,147.076,0.049,7.538777777999999,0.067201873,0.063760121,0.166926346
1443,1.5321,9.2451,2.2702,1.4969999999999999,9.3923,2.3516,0.1767,-0.1597,0.0729,-0.0413,-0.0818,-0.009000000000000001,19.22,-32.28,17.37,192.74,-73.52,-31.34,1.6268941259999998,9.481255869,0.667749927,1.134054031,1.4469047,1.582468592,0.410295828,0.060697886,0.18500762699999998,1.034126045,1.380634399,1.588759016,0.411576117,0.45070655600000004,0.37556890200000004,1.7093208530000001,0.662989861,1.079145753,9.575222655,1.45968033,7.904878943,1.140241523,1.534412705,1.487894153,1.305,8.7835,1.875,1.439,9.4095,2.365,0.044000000000000004,-0.46399999999999997,-0.19399999999999998,-0.002,-0.0275,-0.03,19.45,-32.25,17.55,194.1,-73.5,-30.8,1.34034887,9.280438732,0.13295463400000002,1.286078544,2.093533211,2.504206844,0.168342667,0.003684233,0.034227822000000005,1.069416678,1.906151344,2.524155211,0.1693949,0.2031364,0.141052,2.921777778,0.439555556,1.164555556,91.68488889,2.130666667,62.48711111,1.300150731,2.354422349,2.213829011
939,0.586,9.9382,1.6553,0.557,9.6826,1.4392,0.0461,0.2729,0.1824,0.0832,-0.0038,0.0236,29.74,-31.47,11.48,222.46,-80.63,-20.82,0.6283494629999999,10.07236112,-0.054691882000000004,0.290373323,1.31100545,1.03021185,0.062334225,0.025299099999999998,0.18786863,0.250665536,1.306976107,0.971548043,0.190400047,0.19989819600000003,0.116638282,0.569990253,0.28303906300000004,1.150651989,5.301404426,1.071914176,4.4948859830000005,0.264157816,1.337822249,1.002949658,0.6845,9.7615,1.4705,0.574,9.6825,1.4355,0.0865,0.111,0.1615,0.0695,0.018000000000000002,0.035,29.65,-31.35,11.8,222.8,-80.5,-20.85,0.708865793,9.827090038,-0.392352376,0.084316667,1.718735289,1.061336456,0.0038855559999999996,0.000640044,0.035294622000000005,0.062833211,1.7081865440000001,0.9439056,0.036252177999999996,0.039959289,0.013604488999999999,0.32488888899999996,0.080111111,1.324,28.10488889,1.149,20.204,0.069779352,1.78976837,1.005908017
6121,-0.4672,9.6778,1.7328,-0.3571,9.6976,1.3363,-0.0435,-0.0823,0.2828,-0.0573,0.9719,0.0774,18.07,-27.05,19.79,228.71,-81.89,11.71,-0.421656821,9.832921824,0.09108755800000001,0.6920097620000001,0.6339789339999999,1.214691895,0.298148155,0.06094843,0.380690615,0.52890122,0.672872128,0.9953177940000001,0.20481810399999997,0.411355064,0.161023256,7.763883622000001,1.179689225,6.137036925,11.55907051,2.607872696,11.95700167,0.661235645,0.592525856,1.255834769,-0.6679999999999999,9.311,1.8125,-0.3615,9.6995,1.357,-0.07200000000000001,-0.479,0.055999999999999994,0.02,1.1155,0.0635,17.75,-27.05,21.7,229.95,-82.05,14.85,-0.629125452,9.658545441000001,0.255182001,0.47887751100000003,0.40192928899999997,1.4754764,0.088892322,0.003714711,0.144925344,0.2797365,0.4527569,0.990657511,0.041950456,0.16921298899999998,0.025928489,60.27788889,1.391666667,37.66322222,133.6121111,6.801,142.9698889,0.437232579,0.35108689,1.577120967
12577,-0.5339,8.872,4.2273,-0.5319,8.8688,4.1305,0.0129,-0.0204,0.1141,0.1004,-0.0294,-0.0091,7.63,-34.9,13.62,199.16,-64.66,7.28,-0.228574408,9.422132523,2.836225399,0.209533052,0.306666304,0.397470348,0.14234422300000002,0.18557406399999998,0.367553246,0.246340979,0.489711071,0.641569854,0.13029812,0.079953042,0.102140916,0.531350481,0.8366600270000001,2.196866455,1.8596295930000002,2.614149532,1.426573206,0.207460857,0.309410193,0.388640276,-0.57,8.8265,4.1745,-0.4935,8.892999999999999,4.101,0.040999999999999995,-0.09699999999999999,0.08900000000000001,0.0935,-0.046,-0.009000000000000001,7.65,-34.9,13.45,198.45,-65.05,7.3,-0.281784372,9.378671173999999,2.79303331,0.0439041,0.094044222,0.15798267800000002,0.020261878,0.034437733,0.135095389,0.060683878,0.239816933,0.411611878,0.0169776,0.006392489,0.010432766999999999,0.282333333,0.7,4.826222222,3.458222222,6.833777777999999,2.035111111,0.043040007000000005,0.095734667,0.151041264
9305,-0.2562,9.3302,3.2491,0.2288,9.4587,2.5412,-0.4545,-0.1357,0.6342,-0.0054,1.5801,0.4485,-18.02,-28.34,13.62,135.64,-74.91,-6.3,-0.109350697,9.738127022999999,1.6804435009999998,0.941001689,0.403675557,0.9427342559999999,0.312775319,0.08511436800000001,0.33640379200000003,0.848591415,0.40995421200000004,0.814915101,0.141397155,0.43981825799999996,0.24735860199999998,12.65585503,3.498634654,10.40681401,26.14766614,1.842974649,7.853520088,0.9209321420000001,0.451035552,0.9457675790000001,0.109,9.3355,3.6235,0.3005,9.4535,2.5815,-0.040999999999999995,-0.1515,0.6565,0.0245,1.7415,0.4655,-19.45,-29.3,17.65,136.05,-75.0,-8.15,0.31033739,9.766958988999999,1.973684115,0.885484178,0.16295395599999998,0.888747878,0.0978284,0.007244456,0.113167511,0.720107389,0.16806245600000003,0.664086622,0.019993156,0.1934401,0.061186278,160.1706667,12.24044444,108.3017778,683.7004444,3.396555556,61.67777778,0.84811601,0.203433069,0.894476313
3770,0.4299,9.8414,1.7651,0.6269,9.7139,1.1819,-0.1571,0.1256,0.5523,0.0781,0.0841,0.0051,3.77,-29.75,25.53,163.04,-82.12,-28.11,0.465621912,9.996659818,0.070196657,0.6023733520000001,0.591524246,0.99436428,0.08034432799999999,0.016162027,0.130393805,0.547512851,0.5696642679999999,1.0199157970000001,0.261696792,0.284674649,0.10957640699999999,1.3679262490000001,0.568135352,1.131419953,4.512747377,0.6729701990000001,4.156774925,0.5912318529999999,0.54004458,1.028962599,0.37200000000000005,9.8835,1.729,0.625,9.7185,1.1445,-0.146,0.071,0.5235,0.114,0.045,0.044000000000000004,3.85,-29.7,25.65,162.35,-82.15,-27.75,0.420273852,10.05511857,0.043877885,0.362853656,0.34990093299999997,0.9887603220000001,0.006455211,0.00026121099999999996,0.017002543999999998,0.299770322,0.324517378,1.040228233,0.06848521099999999,0.081039656,0.012006989,1.8712222219999999,0.322777778,1.2801111109999999,20.36488889,0.45288888899999996,17.27877778,0.349555104,0.29164814899999997,1.058764031
9498,0.963,9.8724,0.2377,1.3619999999999999,9.6914,0.5517,-0.4249,0.1649,-0.247,0.0774,-0.3082,-0.1329,-13.08,-25.49,26.27,93.75,-81.02,-67.12,0.9660663009999999,9.769605582999999,-1.437986056,0.8524814759999999,0.849016058,0.758212818,0.259207767,0.032684349,0.163005146,0.643135799,0.7838858259999999,0.6864319990000001,0.330517171,0.41698862200000003,0.248849553,2.6984769369999997,0.600832755,1.169092716,8.153424637999999,1.226376777,6.3651481610000005,0.852956705,0.877832921,0.7255291229999999,1.192,10.0765,0.067,1.453,9.6825,0.5195,-0.192,0.2,-0.4565,0.04,-0.2605,-0.125,-12.95,-25.5,26.65,91.25,-80.9,-68.7,1.199717078,9.950600028,-1.40133137,0.726724667,0.720828267,0.5748866779999999,0.06718866700000001,0.001068267,0.026570677999999997,0.413623656,0.614476989,0.471188889,0.10924160000000002,0.17387951100000001,0.0619261,7.2817777779999995,0.361,1.366777778,66.47833333,1.504,40.51511111,0.7275351409999999,0.7705906370000001,0.5263925079999999
6393,-0.1644,9.7962,1.0941,0.3199,9.7613,0.6659999999999999,-0.4923,3.1099999999999998e-16,0.4933,-0.001,1.6766,0.0717,-2.56,-26.29,24.0,141.89,-84.74,-34.76,-0.146278265,9.840487218,-0.577835907,0.868089883,0.541606212,1.282606846,0.44661926399999996,0.024180111,0.420108452,0.7287647159999999,0.534422222,1.042149067,0.186849315,0.8406107829999999,0.251598909,14.49407542,0.851730265,4.8910348830000006,10.45768723,1.515255754,36.82879912,0.858216358,0.565092715,1.278738771,-0.1625,9.7795,1.2655,0.3885,9.759,0.55,-0.28800000000000003,-0.019,0.2935,-0.0585,2.0035,0.0585,0.3,-26.2,25.1,144.7,-84.35,-46.35,-0.119577114,9.994808084,-0.391302869,0.753580044,0.293337289,1.6450803219999999,0.199468767,0.000584678,0.176491111,0.531098011,0.285607111,1.086074678,0.034912667,0.706626489,0.06330201099999999,210.0782222,0.7254444440000001,23.92222222,109.36322220000001,2.296,1356.360444,0.7365353179999999,0.319329776,1.635172845
14825,6.47631,3.642924,5.3625419999999995,7.199677,3.9546120000000005,5.2847480000000004,-0.64126,-0.270273,0.281144,-0.098596,-0.003788,-0.187358,26.2322,-12.8145,-25.8671,247.6096,-23.573,-53.8509,6.958498677000001,3.961801978,4.489415442,1.83977659,0.719112421,1.85223498,0.553967572,0.125655686,0.7281188359999999,1.4336800459999999,0.7194095979999999,1.058322748,0.383991249,0.51410923,0.345389512,2.367996425,7.889097627999999,1.863422088,14.23708995,1.082786529,5.574635323,1.651293273,0.715089565,1.939074983,6.39086,3.676565,4.98104,7.363639999999999,3.959655,5.092630000000001,-0.46792,-0.197955,-0.150875,-0.01806,0.029289999999999997,-0.122055,26.4005,-13.408,-25.998,244.03900000000002,-23.675,-55.0955,6.869727864,3.982632427,4.172360643999999,3.3847779,0.517122674,3.430774422,0.30688007,0.015789351,0.530157039,2.055438473,0.51755017,1.1200470390000001,0.14744927900000002,0.2643083,0.119293915,5.6074070670000005,62.23786139,3.472341878,202.6947303,1.172426667,31.07655899,2.726769473,0.5113530860000001,3.76001179
19086,-0.1586,9.1781,3.7166,-0.2352,9.1835,3.4235,0.0751,0.0241,0.2809,0.0671,-0.7009,-0.3256,-0.83,-5.08,-38.81,185.71,-69.43,3.71,0.064537508,9.653679873,2.206637308,0.540476785,0.345430633,0.654945155,0.179983826,0.06289364900000001,0.174060175,0.491847639,0.392995745,0.57613703,0.170270014,0.36958609,0.19343572,8.03520725,1.659852738,1.393995058,177.75315869999997,1.036071641,3.153639872,0.551888218,0.395634631,0.62378386,-0.2175,9.12,3.9410000000000003,-0.233,9.198,3.3955,0.0395,0.09,0.3625,0.067,-0.7825,-0.27399999999999997,0.9,-4.65,-39.0,190.05,-69.7,3.1,-0.0039807670000000005,9.663263666,2.4153427709999997,0.29211515600000004,0.119322322,0.428953156,0.032394177999999996,0.0039556109999999995,0.030296944,0.24191410000000002,0.154445656,0.331933878,0.028991878,0.136593878,0.037417378,64.56455556,2.755111111,1.943222222,31596.185439999997,1.0734444440000002,9.945444444,0.30458060600000003,0.156526761,0.389106303
21331,0.3171,9.7723,1.7012,0.3778,9.6703,1.5586,-0.0629,0.1036,0.1665,0.0061,0.2845,0.0108,38.58,-21.55,-8.25,262.15,-80.6,-14.47,0.364697006,9.917391822,0.026132501000000002,0.47813978700000004,0.592818325,0.64759672,0.130435851,0.044332205,0.26875895899999996,0.372367038,0.570252225,0.514433723,0.186931627,0.22542811100000001,0.076853107,0.537070242,0.353553391,3.603470549,1.263372911,1.556349004,5.408645343,0.470617666,0.585393296,0.6632190570000001,0.308,9.605,1.6265,0.3665,9.687999999999999,1.4655,-0.0385,-0.0655,0.1455,0.0735,0.26,-0.0015,38.45,-21.6,-8.55,262.55,-81.1,-16.1,0.367260333,9.859603474,-0.071677379,0.228617656,0.351433567,0.41938151100000004,0.017013511000000002,0.001965344,0.072231378,0.138657211,0.32518759999999997,0.264642056,0.034943432999999996,0.050817833,0.005906399999999999,0.28844444399999997,0.125,12.985,1.596111111,2.422222222,29.25344444,0.22148098800000002,0.342685311,0.43985951799999995
17983,-0.4384,9.2317,3.5319,-0.16399999999999998,9.1807,3.4358,-0.2813,0.0544,0.1442,-0.0068,0.4954,0.1469,5.74,-30.91,26.88,191.61,-69.44,2.6,-0.224771205,9.679643502000001,2.033273668,0.595995749,0.43658601,0.655701567,0.204993767,0.04997121400000001,0.131610368,0.45474072,0.44503587899999997,0.46500317799999996,0.18410069699999998,0.119125704,0.18420909,6.416160153,0.740045044,1.241683445,9.345046222,0.9057838840000001,3.832608627,0.593756321,0.47371233799999996,0.640751657,-0.53,9.2215,3.5210000000000004,-0.1695,9.1755,3.4419999999999997,-0.429,0.0445,0.14300000000000002,0.033,0.469,0.149,7.1,-30.95,27.1,195.15,-69.3,3.55,-0.367370307,9.627891399,2.020857668,0.35521093299999995,0.19060734399999998,0.429944544,0.042022444000000006,0.002497122,0.017321289,0.206789122,0.19805693300000002,0.21622795600000003,0.033893067,0.014190933000000001,0.033932989,41.16711111,0.547666667,1.5417777780000002,87.32988889,0.820444444,14.68888889,0.352546569,0.224403379,0.410562686
3124,0.6688,9.5326,1.1159999999999999,0.7545,9.7189,1.0228,-0.0173,-0.1416,-0.1277,-0.1211,-0.0705,0.0146,34.42,-27.38,-12.66,248.73,-82.5,-36.31,0.687536855,9.582173498,-0.521716631,0.9862560859999999,1.667071098,2.243836001,0.271806406,0.027225192999999998,0.183814399,0.762879785,1.673967755,2.335489911,0.325284303,0.38954824299999996,0.228650242,0.782872205,1.131174414,1.2167351579999999,11.15387825,1.360555442,11.54560522,0.993288087,1.865947034,2.078111024,0.7625,9.174,0.4625,0.7915,9.705,0.9985,0.015,-0.2075,-1.0935,-0.1925,0.017,0.019,34.25,-27.3,-12.75,248.55,-82.05,-37.4,0.811027895,9.332931636,-1.147014642,0.972701067,2.779126044,5.0348,0.07387872200000001,0.0007412110000000001,0.033787733,0.581985567,2.8021680439999996,5.454513122000001,0.10580987800000001,0.151747833,0.052280932999999995,0.6128888889999999,1.279555556,1.480444444,124.40899999999999,1.851111111,133.30100000000002,0.986621225,3.481758334,4.318545428999999
8851,0.3581,9.1545,3.8159,0.8349,8.9948,3.7847,-0.4283,0.1527,-0.0657,0.1231,-0.5414,-0.2844,-10.59,-33.96,16.41,151.78,-66.32,-12.57,0.610149321,9.633056995,2.306550641,0.641952655,0.508623469,0.8640606270000001,0.305528486,0.18827450399999998,0.371962677,0.722632387,0.528243641,0.713091244,0.153819844,0.240379885,0.122987082,5.391855999,0.527467745,2.308173881,11.59250716,2.726332498,3.484585102,0.605946645,0.541251269,0.8740094970000001,0.21899999999999997,9.232000000000001,3.596,0.738,9.0355,3.7119999999999997,-0.5865,0.2185,-0.2155,0.1055,-0.5625,-0.2385,-10.4,-33.7,17.2,152.9,-66.9,-12.15,0.492101915,9.676837427,2.115335592,0.412103211,0.258697833,0.746600767,0.093347656,0.035447289,0.138356233,0.5221975670000001,0.27904134399999997,0.508499122,0.023660544,0.057782489000000006,0.015125821999999999,29.07211111,0.278222222,5.327666667,134.3862222,7.432888889,12.14233333,0.367171336,0.292952936,0.7638926009999999
11056,-0.0632,9.2623,3.1305,-0.0737,9.4031,2.7333,-0.0372,-0.075,0.4189,-0.11,1.6407,0.5037,-22.24,-25.51,8.25,129.15,-74.0,1.84,0.088059535,9.647720359,1.5692544609999999,0.9949474359999999,0.553254221,0.8010017690000001,0.117070776,0.14801009699999998,0.5224919029999999,0.8810272790000001,0.5253443320000001,0.7352135670000001,0.19067599,0.7334937779999999,0.248561215,12.30602382,3.333816632,13.281754399999999,35.53359131,3.2581521689999997,2.183371501,1.008741625,0.483427489,0.8583712040000001,-0.0695,9.1835,3.219,-0.0775,9.372,2.8795,-0.0905,-0.131,0.5195,-0.111,1.926,0.5585,-27.2,-26.0,7.65,123.4,-73.15,2.0,0.11257892300000001,9.576894822,1.74001874,0.9899203999999999,0.306090233,0.641603833,0.013705567,0.021906988999999998,0.272997789,0.776209067,0.275986667,0.540538989,0.036357333,0.5380131220000001,0.061782678,151.43822219999998,11.11433333,176.405,1262.636111,10.61555556,4.767111111,1.017559665,0.233702137,0.7368011240000001
7520,0.9890000000000001,9.8492,0.6015,1.2932,9.7073,0.0925,-0.2955,0.1489,0.4718,-0.027000000000000003,0.0223,-0.0738,-7.85,-24.5,29.13,85.88,-81.81,-84.97,0.9923117779999999,9.809966317999999,-1.0671447040000002,0.767521263,0.517571852,0.751535207,0.293729203,0.028744275,0.444801641,0.633358991,0.511517231,0.606464032,0.25612844,0.664749084,0.104366661,2.642494613,0.809663853,1.076052456,20.42410341,1.142560477,20.40098309,0.7644259409999999,0.558730861,0.71528314,0.6335,9.837,0.5965,1.3090000000000002,9.7145,0.0025,-0.45899999999999996,0.066,0.268,-0.0065,-0.13699999999999998,-0.0965,-7.55,-24.45,29.0,78.25,-81.95,-90.1,0.6366868139999999,9.846640781,-1.115778765,0.589088889,0.267880622,0.564805167,0.086276844,0.000826233,0.19784849999999998,0.401143611,0.261649878,0.367798622,0.065601778,0.44189134399999996,0.0108924,6.982777777999999,0.655555556,1.157888889,417.144,1.3054444440000001,416.2001111,0.584347019,0.312180175,0.51162997
16790,0.0306,9.3112,3.1792,0.1913,9.2733,3.1766,-0.1598,0.0406,0.0051,-0.1051,-0.1057,-0.0268,7.43,-29.95,28.79,188.65,-71.21,-3.44,0.207293566,9.700486291,1.630324694,0.285736942,0.268835679,0.425264049,0.045580332,0.07565572599999999,0.214400041,0.266342219,0.27763933399999996,0.38256225299999996,0.13214508,0.296180144,0.109776338,1.5340940140000001,1.052246275,1.146443777,2.486519209,1.307627198,0.847479924,0.285955535,0.236704798,0.451666206,-0.025,9.375,3.28,0.19699999999999998,9.299,3.1095,-0.2115,0.063,0.040999999999999995,-0.068,-0.021,-0.036000000000000004,7.95,-29.85,28.9,189.1,-71.55,-3.9,0.140035715,9.685236826,1.716865085,0.0816456,0.07227262200000001,0.18084951100000002,0.002077567,0.005723789,0.045967377999999996,0.070938178,0.0770836,0.14635387800000002,0.017462322,0.08772267800000001,0.012050844,2.353444444,1.107222222,1.314333333,6.182777777999999,1.7098888890000001,0.7182222220000001,0.081770568,0.056029162,0.204002362
22212,-0.0407,8.9875,3.2399,-0.1888,9.2661,3.1851,0.1843,-0.2566,0.0149,-0.0572,-0.5406,-0.1484,37.6,-20.79,11.25,247.83,-71.05,3.65,0.142542871,9.390416602,1.747678881,0.696906665,0.484480994,0.853379875,0.15565474599999998,0.10463954,0.324172948,0.60635011,0.48512820799999995,0.584153224,0.207514283,0.179304335,0.17108490399999998,2.650366851,1.035427985,7.368137107999999,9.068755887,1.9755449319999998,2.73830848,0.671838321,0.490893043,0.881806578,-0.193,9.126,3.3675,-0.2555,9.213,3.3515,0.2015,-0.2485,0.0795,-0.055,-0.4705,-0.1505,37.9,-21.0,10.75,244.35,-70.0,4.35,-0.079389244,9.398666967999999,1.8592195980000001,0.4856789000000001,0.23472183300000002,0.728257211,0.0242284,0.010949433,0.1050881,0.367660456,0.235349378,0.341234989,0.043062178,0.032150043999999996,0.029270044,7.024444443999999,1.072111111,54.28944444,82.24233333,3.902777778,7.498333333,0.45136673,0.24097597899999998,0.77758284
