sep=;
ACCELEROMETER X (m/s²);ACCELEROMETER Y (m/s²);ACCELEROMETER Z (m/s²);GRAVITY X (m/s²);GRAVITY Y (m/s²);GRAVITY Z (m/s²);LINEAR ACCELERATION X (m/s²);LINEAR ACCELERATION Y (m/s²);LINEAR ACCELERATION Z (m/s²);GYROSCOPE X (rad/s);GYROSCOPE Y (rad/s);GYROSCOPE Z (rad/s);LIGHT (lux);MAGNETIC FIELD X (μT);MAGNETIC FIELD Y (μT);MAGNETIC FIELD Z (μT);ORIENTATION Z (azimuth °);ORIENTATION X (pitch °);ORIENTATION Y (roll °);PROXIMITY (i);ATMOSPHERIC PRESSURE (hPa);SOUND LEVEL (dB);LOCATION Latitude : ;LOCATION Longitude : ;LOCATION Altitude ( m);LOCATION Altitude-google ( m);LOCATION Altitude-atmospheric pressure ( m);LOCATION Speed ( Kmh);LOCATION Accuracy ( m);LOCATION ORIENTATION (°);Satellites in range;Time since start in ms ;YYYY-MO-DD HH-MI-SS_SSS
-0.4382;6.7519;2.3536;0.1034;8.7686;4.3899;-0.5416;-2.0167;-2.0363;0.4992;-0.5455;0.2059;3121.0;-36.48;-25.32;-6.48;98.05;-63.4;-1.35;8.0;996.34;48.492;23.03186;72.53672;-7.05;167.452231881824;;2.45;9.677419;39.23;18 / 21;19;2018-06-12 12:14:41:273
-0.6249;8.0088;2.4877;0.19;9.0932;3.6671;-0.3026;-0.7539;-2.5442;0.6788;0.2162;0.0635;3227.0;-37.68;-25.98;-2.22;99.1;-68.01;-2.97;8.0;996.33;60.48;23.03186;72.53672;-7.05;167.452231881824;;2.45;9.677419;39.23;18 / 21;518;2018-06-12 12:14:41:772
0.668;9.048;4.8628;0.1693;9.0953;3.6629;0.4101;1.4323;2.4927;-0.3591;0.0268;0.0348;3170.0;-37.26;-25.74;-2.52;98.28;-68.04;-2.65;8.0;996.33;62.203;23.03186;72.53672;-7.05;167.452231881824;;2.45;9.677419;39.23;19 / 22;1018;2018-06-12 12:14:42:272
0.5866;10.9921;3.7231;0.1523;9.16;3.4988;0.4726;1.5975;0.7391;-0.2931;0.1612;0.1515;3509.0;-36.9;-25.68;-1.98;99.61;-69.25;-1.81;8.0;996.35;60.72;23.03186;72.53672;-7.05;167.452231881824;;2.45;9.677419;39.23;19 / 22;1518;2018-06-12 12:14:42:772
1.0702;11.1717;4.4462;0.4466;9.2443;3.2426;0.3651;2.0112;2.9131;0.6525;-0.1857;-0.036;3348.0;-38.76;-22.62;-6.96;84.13;-70.5;-7.84;8.0;996.34;59.759;23.03186;72.53672;-7.05;167.452231881824;;2.45;9.677419;39.23;19 / 22;2020;2018-06-12 12:14:43:274
0.5818;11.38;5.7846;0.3054;9.2393;3.273;0.0968;0.9244;-0.5603;-0.0323;0.2761;0.1271;4014.0;-38.88;-24.18;-3.6;91.31;-70.42;-5.33;8.0;996.35;61.391;23.03186;72.53672;-7.05;167.452231881824;;2.45;9.677419;39.23;19 / 22;2519;2018-06-12 12:14:43:773
-0.0096;9.6346;2.9258;0.3473;9.1825;3.425;-0.3713;-0.2998;-1.1097;-0.0182;0.0305;-0.1674;4272.0;-39.06;-22.56;-5.4;89.6;-69.45;-5.79;8.0;996.34;64.211;23.03186;72.53672;-7.05;167.452231881824;;2.45;9.677419;39.23;18 / 22;3018;2018-06-12 12:14:44:272
1.0104;6.6824;1.0559;0.311;9.2423;3.2639;0.6994;-2.5599;-2.2081;-0.1776;-0.4832;-0.1173;4239.0;-36.24;-26.52;3.66;104.79;-70.47;-5.44;8.0;996.35;54.042;23.03186;72.53672;-7.05;167.452231881824;;2.45;9.677419;39.23;18 / 22;3519;2018-06-12 12:14:44:773
0.8667;5.526;1.0056;0.5819;9.0974;3.615;0.2848;-3.5714;-2.6094;-0.0567;-0.336;-0.0965;3798.0;-36.0;-28.38;7.26;107.5;-68.08;-9.14;8.0;996.35;57.684;23.03186;72.53672;-7.05;167.452231881824;;2.45;9.677419;39.23;19 / 22;4018;2018-06-12 12:14:45:272
-0.5579;8.7559;3.9601;0.1829;9.2356;3.2926;-0.7408;-0.4797;0.6675;0.1651;0.5045;-0.5339;4732.0;-32.04;-30.3;11.76;121.13;-70.35;-3.18;8.0;996.34;50.322;23.03186;72.53672;-7.05;167.452231881824;;2.45;9.677419;39.23;19 / 22;4519;2018-06-12 12:14:45:773
-0.5794;9.5077;1.0822;0.282;9.5867;2.0461;-1.1847;0.4262;4.2772;-0.05;0.0928;-0.1356;3418.0;-33.9;-29.52;13.26;112.06;-77.84;-7.85;8.0;996.33;57.593;23.03186;72.53672;-7.05;167.452231881824;;2.45;9.677419;39.23;18 / 22;5018;2018-06-12 12:14:46:272
0.2251;10.7359;7.4821;0.2533;9.487;2.4703;1.1258;3.4229;0.8433;-0.3114;-0.1601;0.1118;4622.0;-34.38;-29.22;12.42;113.91;-75.33;-5.85;8.0;996.33;54.226;23.03186;72.53672;-7.05;167.452231881824;;2.45;9.677419;39.23;20 / 23;5518;2018-06-12 12:14:46:772
-0.1772;12.2707;4.8771;0.4279;9.5479;2.1966;0.6639;2.2176;0.8226;-0.0323;-0.7422;0.8784;4505.0;-32.64;-30.0;16.56;120.73;-77.45;-4.76;8.0;996.34;55.476;23.03186;72.53672;-7.05;167.452231881824;;2.45;9.677419;39.23;20 / 23;6018;2018-06-12 12:14:47:272
1.0008;11.5979;3.1078;0.7544;9.4579;2.4798;0.2464;2.14;0.628;-0.2546;-0.2529;0.2022;5538.0;-35.16;-27.84;14.88;106.78;-74.67;-16.92;8.0;996.35;49.066;23.03186;72.53672;-7.05;167.452231881824;;2.45;9.677419;39.23;20 / 23;6519;2018-06-12 12:14:47:773
1.5539;8.6242;0.3496;0.607;9.4781;2.4428;0.9469;-0.8539;-2.0932;0.1235;-0.0904;-0.1002;5434.0;-33.9;-29.16;17.28;112.63;-75.13;-13.95;8.0;996.35;58.739;23.031849;72.53682;-6.89;167.452231881824;;3.96;9.677419;127.4;20 / 24;7019;2018-06-12 12:14:48:273
1.2139;7.5372;0.8093;0.2151;9.6165;1.9096;-0.4329;-2.6803;-3.0373;-0.2674;-0.0758;0.3005;5507.0;-33.42;-29.64;17.76;119.63;-78.7;-6.43;8.0;996.36;48.942;23.031849;72.53682;-6.89;167.452231881824;;3.96;9.677419;127.4;20 / 24;7518;2018-06-12 12:14:48:772
-1.3192;7.8413;1.6975;-0.0096;9.6769;1.5899;-0.6823;-2.4366;-0.3425;-0.2271;-0.2914;0.1759;4384.0;-29.94;-31.32;23.1;128.58;-80.72;-4.51;8.0;996.38;52.633;23.031849;72.53682;-6.89;167.452231881824;;3.96;9.677419;127.4;19 / 23;8018;2018-06-12 12:14:49:272
-0.6991;7.0559;3.2155;0.4068;9.5891;2.0136;-1.3143;-1.7382;-0.0072;-0.8264;0.1844;0.3335;3753.0;-33.06;-30.78;19.98;117.96;-77.91;-11.42;8.0;996.37;54.381;23.031849;72.53682;-6.89;167.452231881824;;3.96;9.677419;127.4;19 / 23;8518;2018-06-12 12:14:49:772
0.5124;8.8037;1.7526;0.3633;9.6122;1.909;0.8314;-0.8252;-1.3607;-0.0909;-0.2065;-0.4019;4030.0;-33.78;-31.5;19.98;117.3;-78.57;-10.78;8.0;996.36;49.635;23.031849;72.53682;-6.89;167.452231881824;;3.96;9.677419;127.4;20 / 24;9018;2018-06-12 12:14:50:272
0.3041;11.1334;5.6816;0.2163;9.5161;2.3596;0.0878;1.6173;3.322;-0.4318;-0.0153;0.0886;4300.0;-32.4;-33.36;20.16;125.99;-76.02;-5.24;8.0;996.35;54.146;23.031849;72.53682;-6.89;167.452231881824;;3.96;9.677419;127.4;19 / 22;9518;2018-06-12 12:14:50:772
0.5818;12.9291;0.6704;0.2737;9.6205;1.8817;0.32;3.0763;-0.675;0.8877;-0.0257;-0.3091;4447.0;-33.9;-31.56;20.1;119.68;-78.82;-8.28;8.0;996.36;50.592;23.031849;72.53682;-6.89;167.452231881824;;3.96;9.677419;127.4;19 / 22;10019;2018-06-12 12:14:51:273
-0.0982;13.3505;3.1557;0.2519;9.5721;2.1169;-0.3501;3.7784;1.0387;0.9097;0.4917;-0.1362;4812.0;-32.46;-33.48;21.6;125.82;-77.44;-6.79;8.0;996.36;52.815;23.031849;72.53682;-6.89;167.452231881824;;3.96;9.677419;127.4;18 / 21;10518;2018-06-12 12:14:51:772
1.2953;11.8445;2.095;0.2693;9.6707;1.6046;1.026;2.1738;0.4904;-0.1282;-0.157;0.2285;5069.0;-35.1;-31.56;19.98;116.73;-80.45;-9.53;8.0;996.38;49.268;23.031849;72.53682;-6.89;167.452231881824;;3.96;9.677419;127.4;18 / 21;11018;2018-06-12 12:14:52:272
1.403;10.6856;0.565;0.1583;9.708;1.3783;1.3214;-0.2578;-1.5722;0.0997;0.1081;-0.0067;4552.0;-32.58;-31.14;22.68;123.32;-81.87;-6.55;8.0;996.36;48.645;23.031849;72.53682;-6.89;167.452231881824;;3.96;9.677419;127.4;18 / 21;11519;2018-06-12 12:14:52:773
0.3089;7.6282;-0.079;0.4379;9.6624;1.6176;0.7593;-4.5841;-3.2122;-0.0048;0.2242;-0.2651;4415.0;-35.16;-29.94;21.36;112.28;-80.16;-15.15;8.0;996.36;57.24;23.031849;72.53682;-6.89;167.452231881824;;3.96;9.677419;127.4;16 / 20;12019;2018-06-12 12:14:53:273
-0.5315;6.0503;-0.1293;-0.1444;9.7521;1.0231;-0.7607;-3.0194;-0.7382;0.0484;-0.0898;0.0507;4771.0;-29.16;-31.62;25.86;142.76;-83.95;8.03;8.0;996.35;53.869;23.031849;72.53682;-6.89;167.452231881824;;3.96;9.677419;127.4;16 / 20;12519;2018-06-12 12:14:53:773
-1.0032;7.3576;3.6249;0.0952;9.7553;0.9977;-0.8949;-1.8374;1.5067;-1.1617;0.1973;0.2169;4074.0;-28.8;-31.14;26.04;129.87;-84.13;-5.45;8.0;996.35;63.278;23.031849;72.53682;-6.89;167.452231881824;;3.96;9.677419;127.4;18 / 22;13018;2018-06-12 12:14:54:272
0.6129;9.1294;3.7518;0.4605;9.701;1.3594;2.3001;-1.2493;-0.6004;-0.4031;-0.8968;0.1326;4691.0;-27.96;-31.14;25.74;119.86;-81.58;-18.71;8.0;996.35;57.311;23.031849;72.53682;-6.89;167.452231881824;;3.96;9.677419;127.4;18 / 22;13519;2018-06-12 12:14:54:773
-0.8883;10.8245;-0.1772;0.4096;9.7143;1.2785;-1.2979;1.1102;-1.4557;1.2835;0.3323;-0.4453;3486.0;-30.54;-30.18;22.68;114.22;-82.13;-17.76;8.0;996.36;58.047;23.031849;72.53682;-6.89;167.452231881824;;3.96;9.677419;127.4;17 / 22;14018;2018-06-12 12:14:55:272
-0.3328;10.4462;4.8987;0.0583;9.7355;1.1776;-0.7814;1.8983;4.2455;-0.4666;0.0201;0.0812;4414.0;-33.18;-29.22;18.9;121.42;-83.09;-2.84;8.0;996.36;51.72;23.031849;72.53682;-6.89;167.452231881824;;3.96;9.677419;127.4;17 / 22;14519;2018-06-12 12:14:55:773
0.1532;12.2802;0.9888;3.0E-4;9.795;0.4784;0.1529;2.4853;0.5104;-0.2583;0.0336;0.2957;3598.0;-33.24;-28.38;20.22;122.86;-87.2;-0.03;8.0;996.36;48.451;23.031849;72.53682;-6.89;167.452231881824;;3.96;9.677419;127.4;17 / 21;15020;2018-06-12 12:14:56:274
-0.1748;12.3976;1.4533;0.0011;9.7537;1.018;0.0564;1.9567;-0.3069;-0.0158;-0.0098;-0.1051;4964.0;-34.44;-28.26;16.56;120.18;-84.04;-0.06;8.0;996.37;53.291;23.031786;72.53693;-6.77;167.452231881824;;4.53;9.677419;128.26;17 / 21;15518;2018-06-12 12:14:56:772
-0.3951;9.3401;-0.4166;-0.2538;9.7606;0.9139;0.1029;-1.3831;-1.9818;0.1424;0.4062;-6.0E-4;5377.0;-31.92;-28.68;19.86;140.13;-84.45;15.52;8.0;996.36;51.231;23.031786;72.53693;-6.77;167.452231881824;;4.53;9.677419;128.26;17 / 21;16019;2018-06-12 12:14:57:273
-0.0862;9.0073;0.6488;-0.1224;9.6758;1.592;0.0362;-0.6685;-0.9432;-0.0433;0.2541;-0.1545;5523.0;-34.62;-28.32;12.72;120.53;-80.63;4.4;8.0;996.37;49.478;23.031786;72.53693;-6.77;167.452231881824;;4.53;9.677419;128.26;17 / 21;16519;2018-06-12 12:14:57:773
-1.2331;6.1246;-0.0455;-0.1458;9.6858;1.5281;-1.0873;-3.5612;-1.5736;0.2048;-0.5571;-0.1179;4867.0;-32.34;-29.46;16.02;127.49;-80.99;5.45;8.0;996.36;50.09;23.031786;72.53693;-6.77;167.452231881824;;4.53;9.677419;128.26;19 / 22;17019;2018-06-12 12:14:58:273
-0.3352;5.0447;0.3544;-0.2077;9.7064;1.3828;-1.7819;-1.9825;1.8256;-0.4018;-0.0953;0.474;4111.0;-32.04;-29.22;15.78;129.93;-81.8;8.54;8.0;996.37;51.205;23.031786;72.53693;-6.77;167.452231881824;;4.53;9.677419;128.26;19 / 22;17519;2018-06-12 12:14:58:773
-0.5842;9.4813;3.273;-0.2195;9.7286;1.2148;1.5867;-0.1228;-0.7144;-0.4574;0.0323;-0.157;5341.0;-29.88;-30.12;18.54;136.57;-82.77;10.24;8.0;996.38;51.433;23.031786;72.53693;-6.77;167.452231881824;;4.53;9.677419;128.26;17 / 21;18019;2018-06-12 12:14:59:273
-0.8595;9.9051;3.0335;0.0716;9.6695;1.6329;0.6658;0.7193;3.0024;-0.2326;-0.6457;-0.2706;3918.0;-30.96;-29.34;15.84;121.3;-80.41;-2.51;8.0;996.37;54.378;23.031786;72.53693;-6.77;167.452231881824;;4.53;9.677419;128.26;17 / 21;18519;2018-06-12 12:14:59:773
-1.1038;13.3026;4.518;-0.3433;9.7495;0.9996;0.4989;4.6353;-2.1393;-0.345;-0.1277;-0.2266;4408.0;-29.28;-29.28;19.02;145.0;-83.81;18.95;8.0;996.36;49.346;23.031786;72.53693;-6.77;167.452231881824;;4.53;9.677419;128.26;17 / 22;19019;2018-06-12 12:15:00:273
1.3863;12.6442;0.2801;-0.2172;9.7509;1.0213;1.6035;2.8933;-0.7411;-0.2858;-0.3128;0.0641;3176.0;-26.94;-29.22;21.24;142.85;-83.89;12.0;8.0;996.37;48.095;23.031786;72.53693;-6.77;167.452231881824;;4.53;9.677419;128.26;16 / 21;19518;2018-06-12 12:15:00:772
-0.1844;12.5101;1.7742;-0.2794;9.7434;1.0764;-0.1539;2.7523;0.681;0.1724;-0.3409;0.0244;3882.0;-27.66;-28.38;21.66;145.44;-83.49;14.55;8.0;996.37;49.531;23.031786;72.53693;-6.77;167.452231881824;;4.53;9.677419;128.26;16 / 21;20018;2018-06-12 12:15:01:272
0.9649;11.6912;1.0104;-0.373;9.7706;0.7528;1.3379;1.9207;0.2575;0.0527;0.4826;-0.1264;3677.0;-26.88;-28.5;22.98;158.15;-85.09;26.36;8.0;996.36;50.171;23.031786;72.53693;-6.77;167.452231881824;;4.53;9.677419;128.26;16 / 21;20519;2018-06-12 12:15:01:773
-0.9697;11.538;1.7095;-0.1062;9.7508;1.0399;-0.1021;-0.8321;-1.9665;0.0209;0.3072;-0.2669;3440.0;-27.84;-27.0;21.36;135.83;-83.88;5.83;8.0;996.34;52.593;23.031786;72.53693;-6.77;167.452231881824;;4.53;9.677419;128.26;16 / 22;21019;2018-06-12 12:15:02:273
-0.0263;6.5316;-0.6896;-0.0397;9.744;1.106;-0.3362;-3.6625;-0.4978;0.1785;-0.289;0.1533;3887.0;-26.1;-27.96;23.94;138.02;-83.52;2.06;8.0;996.35;54.194;23.031786;72.53693;-6.77;167.452231881824;;4.53;9.677419;128.26;16 / 22;21518;2018-06-12 12:15:02:772
-0.3807;6.6034;1.3097;0.0537;9.7641;0.9108;-1.5716;-1.9013;1.8761;-0.5118;0.1631;0.5363;2842.0;-25.44;-27.72;25.38;134.52;-84.66;-3.37;8.0;996.35;62.674;23.031786;72.53693;-6.77;167.452231881824;;4.53;9.677419;128.26;16 / 22;22018;2018-06-12 12:15:03:272
-0.3687;9.0839;2.0543;-0.0498;9.7687;0.8604;-0.4793;-1.8604;0.9281;-0.4195;-0.2621;0.0861;2658.0;-18.0;-28.14;31.74;162.34;-87.01;11.03;8.0;996.36;59.924;23.031786;72.53693;-6.77;167.452231881824;;4.53;9.677419;128.26;16 / 22;22519;2018-06-12 12:15:03:773
-0.3639;11.3824;-0.1652;0.129;9.7637;0.9072;-0.402;1.2236;0.5413;0.4528;-0.4105;-0.1851;1634.0;-14.04;-28.98;30.96;149.79;-84.64;-8.09;8.0;996.37;49.256;23.031786;72.53693;-6.77;167.452231881824;;4.53;9.677419;128.26;15 / 21;23018;2018-06-12 12:15:04:272
-1.3719;13.1637;2.8683;0.0558;9.7787;0.7375;-1.4277;3.385;2.1308;0.4216;0.0904;-0.223;1659.0;-10.86;-28.62;31.8;158.03;-85.67;-4.32;8.0;996.36;48.162;23.031786;72.53693;-6.77;167.452231881824;;4.53;9.677419;128.26;15 / 21;23519;2018-06-12 12:15:04:773
1.3073;12.9387;1.8436;0.2186;9.7492;1.0369;-0.3359;4.4752;0.7612;-0.1947;-0.0611;0.3708;1694.0;-12.9;-28.8;30.84;148.03;-83.8;-11.9;8.0;996.35;48.68;23.031786;72.53693;-6.77;167.452231881824;;4.53;9.677419;128.26;16 / 21;24019;2018-06-12 12:15:05:273
1.7837;11.4901;1.5012;0.4338;9.7742;0.6686;1.0051;1.9027;0.064;0.0093;-0.2322;0.3366;1216.0;-14.76;-28.38;32.04;124.86;-85.34;-32.98;8.0;996.34;48.365;23.031696;72.53702;-6.67;167.452231881824;;4.74;9.677419;175.25;16 / 21;24519;2018-06-12 12:15:05:773
1.9394;10.8389;-0.589;0.4675;9.7868;0.4132;0.7248;3.171;0.2117;-0.0769;0.5449;-0.5699;1761.0;-8.4;-26.82;33.9;118.53;-85.87;-50.97;8.0;996.36;49.418;23.031696;72.53702;-6.67;NaN;;4.74;9.677419;175.25;17 / 22;25019;2018-06-12 12:15:06:273
-0.6297;9.2658;0.1556;0.3114;9.7143;1.306;-0.7544;0.4614;-0.9732;0.2023;0.3469;-0.066;1792.0;-9.54;-29.7;32.1;146.83;-81.39;-19.73;8.0;996.35;48.447;23.031696;72.53702;-6.67;NaN;;4.74;9.677419;175.25;17 / 22;25519;2018-06-12 12:15:06:773
0.2418;5.9737;-0.407;0.5801;9.7324;1.0556;-0.3383;-3.7587;-1.4626;-0.0573;-0.0287;0.3329;1353.0;-7.26;-28.5;32.76;142.58;-82.94;-28.79;8.0;996.35;47.135;23.031696;72.53702;-6.67;NaN;;4.74;9.677419;175.25;16 / 22;26019;2018-06-12 12:15:07:273
1.02;5.1477;-0.2682;0.7888;9.6873;1.3053;-0.353;-3.5532;1.101;-0.3976;-0.6689;0.416;1760.0;-11.88;-29.46;31.86;133.48;-81.05;-31.15;8.0;996.35;48.058;23.031696;72.53702;-6.67;NaN;;4.74;9.677419;175.25;16 / 22;26518;2018-06-12 12:15:07:772
-0.7374;6.6369;2.0375;-0.0619;9.7674;0.8747;0.0235;-1.8064;0.696;-0.2509;0.2315;-0.3109;1892.0;-8.58;-28.5;33.24;169.51;-84.87;4.05;8.0;996.35;49.469;23.031696;72.53702;-6.67;NaN;;4.74;9.677419;175.25;16 / 22;27018;2018-06-12 12:15:08:272
-1.0319;9.2227;-2.2123;-0.0788;9.7977;0.4118;-1.2213;-1.0514;-0.225;-0.6865;0.3665;0.3928;1430.0;-10.98;-27.24;33.6;165.18;-86.46;2.45;8.0;996.36;47.903;23.031696;72.53702;-6.67;NaN;;4.74;9.677419;175.25;16 / 22;27518;2018-06-12 12:15:08:772
2.0734;8.8732;0.8643;0.031;9.7644;0.9083;0.3282;0.2125;2.1899;-0.2748;-1.0318;0.5492;1615.0;-11.76;-29.28;30.9;158.5;-84.68;-1.95;8.0;996.36;48.345;23.031696;72.53702;-6.67;NaN;;4.74;9.677419;175.25;15 / 22;28018;2018-06-12 12:15:09:272
1.2498;12.2826;0.8117;0.1339;9.7702;0.8343;1.1159;2.5125;-0.0226;-0.8777;0.0611;0.3793;1165.0;-9.42;-27.9;33.36;157.12;-85.06;-9.12;8.0;996.37;53.708;23.031696;72.53702;-6.67;NaN;;4.74;9.677419;175.25;15 / 22;28519;2018-06-12 12:15:09:773
0.9505;13.1781;0.0766;0.0343;9.7388;1.1507;-0.0989;3.365;0.6522;0.6018;0.2724;-0.0446;1409.0;-12.18;-27.96;32.1;159.54;-83.26;-1.71;8.0;996.37;49.751;23.031696;72.53702;-6.67;NaN;;4.74;9.677419;175.25;15 / 22;29019;2018-06-12 12:15:10:273
1.9585;10.9849;0.1269;0.2284;9.7957;0.402;0.8658;2.8173;1.3937;0.0966;1.116;-0.2083;1211.0;-8.94;-25.14;35.04;148.54;-87.83;-17.8;8.0;996.36;48.567;23.031696;72.53702;-6.67;NaN;;4.74;9.677419;175.25;15 / 22;29519;2018-06-12 12:15:10:773
-0.2155;11.2172;0.5531;0.0986;9.7177;1.3137;-0.3141;1.4994;-0.7606;0.5792;0.5003;-0.2492;1301.0;-10.74;-27.18;32.4;158.79;-82.28;-4.29;8.0;996.37;48.843;23.031696;72.53702;-6.67;NaN;;4.74;9.677419;175.25;15 / 22;30020;2018-06-12 12:15:11:274
-0.1532;5.9809;-0.7566;0.0334;9.7477;1.0727;-0.1867;-3.7668;-1.8293;0.2182;-0.2688;0.1723;1572.0;-5.28;-28.08;34.14;170.63;-83.72;-1.79;8.0;996.38;53.423;23.031696;72.53702;-6.67;NaN;;4.74;9.677419;175.25;15 / 22;30518;2018-06-12 12:15:11:772
0.7494;4.9753;-0.7757;0.5029;9.6677;1.5663;0.2465;-4.6924;-2.3421;-0.4776;-0.5913;0.7892;1669.0;-11.58;-28.86;31.62;145.87;-80.34;-17.8;8.0;996.38;54.812;23.031696;72.53702;-6.67;NaN;;4.74;9.677419;175.25;16 / 22;31021;2018-06-12 12:15:12:275
-1.0056;7.542;-0.2418;0.5905;9.7458;0.9167;-1.5218;-0.8894;2.4066;0.4167;0.9651;-0.5125;1462.0;-17.1;-27.0;32.16;123.07;-83.62;-32.79;8.0;996.36;66.724;23.031696;72.53702;-6.67;NaN;;4.74;9.677419;175.25;16 / 22;31523;2018-06-12 12:15:12:777
0.3424;10.0153;2.3488;0.5204;9.717;1.2164;1.3806;0.4635;-1.1254;-0.4263;-1.1906;0.5321;1438.0;-18.36;-27.78;27.36;142.3;-82.21;-7.86;8.0;996.35;62.013;23.031696;72.53702;-6.67;NaN;;4.74;9.677419;175.25;14 / 21;32018;2018-06-12 12:15:13:272
0.2538;11.2746;-1.087;0.5277;9.7022;1.3263;-0.6665;0.5692;1.5037;1.3269;-0.3317;-0.3549;1233.0;-15.24;-27.6;30.9;136.84;-81.63;-21.69;8.0;996.34;56.295;23.031696;72.53702;-6.67;NaN;;4.74;9.677419;175.25;14 / 21;32518;2018-06-12 12:15:13:772
1.1277;13.3481;1.609;0.7364;9.7248;1.0274;0.6954;3.1995;0.2177;-0.1025;0.0067;-0.2657;1495.0;-13.56;-27.78;32.22;125.37;-82.59;-35.63;8.0;996.34;58.091;23.031696;72.53702;-6.67;NaN;;4.74;9.677419;175.25;16 / 23;33018;2018-06-12 12:15:14:272
-0.1987;10.0631;0.4094;0.5812;9.7589;0.7716;-1.2397;-1.3143;-1.849;-0.0103;0.3854;0.1124;2010.0;-12.42;-26.82;34.62;127.24;-84.35;-36.99;8.0;996.35;49.5;23.0316;72.53704;-6.57;NaN;;4.39;9.677419;165.66;16 / 23;33518;2018-06-12 12:15:14:772
0.067;6.7566;-0.4932;0.4513;9.7921;0.2849;-0.5304;-3.203;-0.0503;0.0905;0.0061;0.2963;1614.0;-10.98;-24.3;35.76;107.15;-86.88;-57.74;8.0;996.35;57.217;23.0316;72.53704;-6.57;NaN;;4.39;9.677419;165.66;14 / 21;34019;2018-06-12 12:15:15:273
0.8859;6.2203;-0.0646;0.6683;9.7728;0.4647;0.2176;-3.5525;-0.5293;-0.2607;-0.4154;0.1753;1460.0;-11.34;-25.5;29.28;107.65;-85.24;-55.19;8.0;996.33;57.819;23.0316;72.53704;-6.57;NaN;;4.39;9.677419;165.66;14 / 21;34518;2018-06-12 12:15:15:772
2.5858;8.4207;0.8356;0.8938;9.7424;0.6755;1.692;-1.3218;0.1601;-0.7097;-0.2291;-0.1949;1736.0;-12.6;-26.52;28.98;108.15;-83.44;-52.92;8.0;996.34;55.484;23.0316;72.53704;-6.57;NaN;;4.39;9.677419;165.66;17 / 22;35019;2018-06-12 12:15:16:273
0.4908;10.044;1.7742;0.8921;9.495;2.2847;-0.3845;3.0175;3.191;-0.0738;0.634;0.0391;1755.0;-15.42;-31.86;23.58;137.03;-75.52;-21.33;8.0;996.35;56.295;23.0316;72.53704;-6.57;NaN;;4.39;9.677419;165.66;17 / 22;35518;2018-06-12 12:15:16:772
0.1987;14.0281;1.913;0.6612;9.5856;1.9617;0.6964;3.3387;0.332;0.4699;-0.1589;-0.2853;2263.0;-19.5;-29.46;27.84;134.11;-77.81;-18.63;8.0;996.37;58.887;23.0316;72.53704;-6.57;NaN;;4.39;9.677419;165.66;16 / 21;36018;2018-06-12 12:15:17:272
-0.759;14.1023;4.1229;0.1474;9.6112;1.9427;-0.7412;3.8638;0.1762;0.3679;-0.457;-0.0092;2029.0;-17.28;-31.38;27.48;144.01;-77.0;-10.53;8.0;996.37;50.539;23.0316;72.53704;-6.57;NaN;;4.39;9.677419;165.66;16 / 21;36519;2018-06-12 12:15:17:773
0.7159;12.2132;2.7007;0.2709;9.6342;1.8106;0.0619;2.8088;0.5215;-0.2461;-0.0819;0.2834;2304.0;-20.82;-30.0;26.94;139.29;-79.24;-8.51;8.0;996.35;55.315;23.0316;72.53704;-6.57;NaN;;4.39;9.677419;165.66;18 / 22;37018;2018-06-12 12:15:18:272
0.4621;8.6769;-0.5818;0.2295;9.6825;1.5385;0.2326;-1.0056;-2.1203;-0.1239;0.3396;0.0648;2225.0;-16.44;-29.82;29.46;146.82;-80.87;-8.48;8.0;996.34;54.677;23.0316;72.53704;-6.57;NaN;;4.39;9.677419;165.66;18 / 22;37518;2018-06-12 12:15:18:772
0.5507;8.5476;-0.5627;0.1184;9.6026;1.9867;0.4155;-2.8459;-1.8958;0.5065;-0.0428;-0.091;2867.0;-22.8;-31.2;25.98;141.09;-78.29;-3.41;8.0;996.34;51.45;23.0316;72.53704;-6.57;NaN;;4.39;9.677419;165.66;18 / 22;38018;2018-06-12 12:15:19:272
-0.0718;6.4741;-0.2466;0.3521;9.7613;0.8738;0.098;-2.6766;-0.9073;0.1266;-0.2407;-0.2749;1728.0;-17.04;-27.54;33.54;134.27;-84.49;-21.95;8.0;996.34;57.549;23.0316;72.53704;-6.57;NaN;;4.39;9.677419;165.66;18 / 22;38519;2018-06-12 12:15:19:773
-0.7279;6.5029;2.2578;0.1255;9.7618;0.9283;-0.8533;-3.259;1.3295;-0.5765;0.0293;0.584;2619.0;-17.28;-27.84;33.12;147.17;-84.52;-7.7;8.0;996.34;52.487;23.0316;72.53704;-6.57;NaN;;4.39;9.677419;165.66;17 / 22;39019;2018-06-12 12:15:20:273
1.3264;8.7367;0.6704;0.3104;9.7678;0.8147;2.3999;-1.4932;-2.1243;0.0178;0.0696;-0.5522;2129.0;-17.4;-27.06;32.94;141.28;-84.34;-13.9;8.0;996.38;49.727;23.0316;72.53704;-6.57;NaN;;4.39;9.677419;165.66;17 / 22;39519;2018-06-12 12:15:20:773
-2.751;11.8014;3.1892;-0.4176;9.7809;0.5737;-2.1323;3.0356;4.5333;0.9744;0.1887;-0.4948;1717.0;-15.42;-27.3;34.74;189.02;-85.85;36.05;8.0;996.35;49.136;23.0316;72.53704;-6.57;NaN;;4.39;9.677419;165.66;18 / 23;40019;2018-06-12 12:15:21:273
-0.5698;12.953;2.3057;-0.153;9.7491;1.0498;0.4092;3.3979;-0.2788;-0.0481;-0.2224;-0.0629;1855.0;-13.8;-28.92;32.76;166.4;-83.79;8.29;8.0;996.36;50.069;23.0316;72.53704;-6.57;NaN;;4.39;9.677419;165.66;18 / 23;40519;2018-06-12 12:15:21:773
0.6919;13.0225;0.8404;0.1855;9.7347;1.1714;1.3852;3.1896;-0.0868;-0.7732;-0.0507;0.2309;1923.0;-15.54;-28.8;31.74;146.37;-83.68;-9.74;8.0;996.33;50.989;23.0316;72.53704;-6.57;NaN;;4.39;9.677419;165.66;17 / 22;41018;2018-06-12 12:15:22:272
0.8117;12.7495;2.9114;0.4171;9.7288;1.1606;0.3946;3.0207;1.7509;0.5517;-0.1002;0.1717;1774.0;-21.84;-28.2;29.22;127.27;-82.78;-19.77;8.0;996.34;48.054;23.0316;72.53704;-6.57;NaN;;4.39;9.677419;165.66;17 / 22;41518;2018-06-12 12:15:22:772
1.1852;12.3976;3.5172;0.372;9.6863;1.4854;1.134;0.4007;-0.8485;-0.3884;0.7715;-0.025;1630.0;-17.64;-29.04;28.98;138.8;-81.02;-14.06;8.0;996.35;51.265;23.0316;72.53704;-6.57;NaN;;4.39;9.677419;165.66;19 / 24;42018;2018-06-12 12:15:23:272
-0.6919;11.7846;2.2123;0.6778;9.7025;1.2538;-0.6826;-0.1446;-0.9234;0.2866;0.2101;-0.259;2139.0;-21.48;-27.9;29.76;121.8;-81.64;-28.4;8.0;996.31;48.385;23.031515;72.53709;-6.46;NaN;;3.89;9.677419;138.84;18 / 23;42519;2018-06-12 12:15:23:773
0.4142;6.3137;-1.8987;0.0228;9.8048;0.1878;-0.8105;-3.7928;-0.7816;-0.1037;-0.5486;0.3213;1718.0;-12.72;-26.04;36.06;153.55;-88.89;-6.92;8.0;996.35;49.485;23.031515;72.53709;-6.46;NaN;;3.89;9.677419;138.84;18 / 23;43019;2018-06-12 12:15:24:273
0.565;4.5204;-1.4557;0.0348;9.8004;0.3473;0.3794;-4.4827;-1.6259;0.0044;0.2871;0.0733;1558.0;-14.76;-26.64;34.92;151.75;-87.96;-5.72;8.0;996.35;48.607;23.031515;72.53709;-6.46;NaN;;3.89;9.677419;138.84;18 / 23;43519;2018-06-12 12:15:24:773
-1.1732;7.4175;-0.2011;-0.0183;9.8063;0.079;-1.1549;-2.3888;-0.2801;-0.3224;-0.0458;-0.1136;1397.0;-13.68;-26.22;35.28;171.31;-89.53;13.06;8.0;996.35;50.693;23.031515;72.53709;-6.46;NaN;;3.89;9.677419;138.84;17 / 21;44018;2018-06-12 12:15:25:272
-1.3647;6.273;0.7446;0.2705;9.7972;0.3351;-1.9202;-0.675;-0.3136;0.5322;0.474;-0.5058;1303.0;-18.6;-26.7;32.64;112.78;-87.48;-38.91;8.0;996.34;47.721;23.031515;72.53709;-6.46;NaN;;3.89;9.677419;138.84;17 / 21;44519;2018-06-12 12:15:25:773
1.9226;8.8229;0.7734;0.2522;9.7836;0.623;1.2945;-0.5896;0.2988;0.0789;-0.4777;0.0867;1324.0;-18.0;-28.32;31.86;130.81;-86.07;-22.04;8.0;996.36;47.931;23.031515;72.53709;-6.46;NaN;;3.89;9.677419;138.84;15 / 19;45018;2018-06-12 12:15:26:272
0.6848;9.7639;4.9083;0.941;9.6578;1.418;0.1747;1.5833;2.1112;-0.8191;-0.3342;0.6182;1505.0;-20.94;-28.44;29.16;117.18;-80.01;-33.57;8.0;996.34;46.872;23.031515;72.53709;-6.46;NaN;;3.89;9.677419;138.84;15 / 19;45520;2018-06-12 12:15:26:774
0.0096;14.8732;5.4685;0.9832;9.692;1.1265;-0.9736;5.1813;4.342;0.3996;0.361;-0.292;1122.0;-19.98;-28.2;29.82;111.36;-81.23;-41.11;8.0;996.36;47.549;23.031515;72.53709;-6.46;NaN;;3.89;9.677419;138.84;18 / 23;46020;2018-06-12 12:15:27:274
1.0463;12.6753;0.9194;0.708;9.7161;1.1257;0.3383;2.9592;-0.2063;-0.207;0.229;0.2608;1482.0;-19.44;-27.96;30.42;120.57;-82.21;-32.17;8.0;996.36;47.877;23.031515;72.53709;-6.46;NaN;;3.89;9.677419;138.84;18 / 23;46519;2018-06-12 12:15:27:773
0.6177;11.7128;0.6872;0.2721;9.7738;0.7547;0.233;1.5895;-0.6063;0.4998;-0.3592;0.2694;1525.0;-16.5;-27.48;32.34;135.97;-85.31;-19.83;8.0;996.37;47.418;23.031515;72.53709;-6.46;NaN;;3.89;9.677419;138.84;16 / 20;47018;2018-06-12 12:15:28:272
1.5204;11.3896;2.0615;0.4917;9.7397;1.0324;1.0047;0.0433;-0.5799;-0.758;0.3604;0.4746;1905.0;-12.66;-27.66;33.18;136.48;-83.3;-25.47;8.0;996.37;49.002;23.031515;72.53709;-6.46;NaN;;3.89;9.677419;138.84;16 / 20;47518;2018-06-12 12:15:28:772
0.7303;11.0065;0.407;0.2235;9.7417;1.1041;-0.5922;3.3981;1.1345;0.3972;1.0164;-0.1002;1508.0;-16.32;-27.24;31.86;144.93;-84.24;-10.87;8.0;996.38;50.099;23.031515;72.53709;-6.46;NaN;;3.89;9.677419;138.84;17 / 22;48019;2018-06-12 12:15:29:273
0.3807;6.5986;-0.4142;0.6686;9.756;0.7372;-0.2879;-3.1574;-1.1514;0.2512;-0.0764;-0.2309;1112.0;-11.82;-26.76;34.08;121.93;-84.18;-42.21;8.0;996.36;51.141;23.031515;72.53709;-6.46;NaN;;3.89;9.677419;138.84;17 / 22;48519;2018-06-12 12:15:29:773
0.7734;4.7957;-0.6584;0.2832;9.7504;1.0101;0.4902;-4.9546;-1.6685;-0.4073;-0.6366;0.526;1656.0;-15.54;-27.3;32.04;140.56;-83.86;-15.66;8.0;996.37;55.055;23.031515;72.53709;-6.46;NaN;;3.89;9.677419;138.84;17 / 21;49018;2018-06-12 12:15:30:272
-0.5531;5.8085;-0.328;0.1808;9.7916;0.5122;-1.0619;-3.0685;0.3018;0.812;0.1307;0.1772;1418.0;-11.34;-26.64;34.08;144.0;-86.82;-19.44;8.0;996.36;47.141;23.031515;72.53709;-6.46;NaN;;3.89;9.677419;138.84;17 / 21;49518;2018-06-12 12:15:30:772
-2.332;9.4789;1.8244;-0.2668;9.7782;0.6977;-0.3437;0.5962;-3.0225;0.4131;0.8179;-0.2541;1636.0;-7.56;-28.14;34.32;187.27;-85.63;20.93;8.0;996.37;50.875;23.031515;72.53709;-6.46;NaN;;3.89;9.677419;138.84;18 / 21;50019;2018-06-12 12:15:31:273
1.8053;9.0599;-1.5994;-0.0795;9.7897;0.571;1.5496;-0.7657;-1.4593;-0.0335;-0.5248;-0.0086;1723.0;-9.48;-26.88;34.56;185.87;-85.52;20.61;8.0;996.36;48.786;23.031515;72.53709;-6.46;NaN;;3.89;9.677419;138.84;17 / 20;50519;2018-06-12 12:15:31:773
-0.7135;11.3967;4.1397;0.2539;9.8016;0.1861;-0.1772;3.5225;2.6823;-0.2357;0.3775;-0.0794;1605.0;-11.58;-24.18;35.76;108.9;-88.16;-53.76;8.0;996.36;47.519;23.031515;72.53709;-6.46;NaN;;3.89;9.677419;138.84;17 / 20;51019;2018-06-12 12:15:32:273
-1.1876;15.9674;-0.9218;0.2438;9.7584;-0.9404;-0.3707;5.3686;-3.2281;0.173;0.3011;0.0257;1037.0;-13.8;-19.98;37.32;353.45;-84.31;-165.46;8.0;996.34;48.614;23.031515;72.53709;-6.46;NaN;;3.89;9.677419;138.84;17 / 20;51519;2018-06-12 12:15:32:773
0.0862;11.5739;0.0886;-0.0222;9.7909;0.5558;-0.6386;2.4487;0.5312;0.1632;0.2516;0.0629;1805.0;-9.42;-25.74;33.84;167.94;-86.75;2.29;8.0;996.35;49.248;23.0314;72.5371;-6.38;165.5411911965045;;4.08;9.677419;178.6;19 / 22;52019;2018-06-12 12:15:33:273
0.5291;11.8134;0.3615;0.1705;9.7113;1.3537;-0.9606;1.3527;-0.9586;0.3178;-0.1808;0.0483;1855.0;-13.86;-28.14;30.9;151.43;-82.0;-7.18;8.0;996.34;48.752;23.0314;72.5371;-6.38;165.5411911965045;;4.08;9.677419;178.6;17 / 20;52519;2018-06-12 12:15:33:773
0.929;9.6178;1.3983;0.269;9.6723;1.5951;0.6576;0.9894;-0.9774;-0.1532;-0.1027;0.2248;1491.0;-14.46;-29.16;29.82;155.13;-80.57;-3.03;8.0;996.34;51.734;23.0314;72.5371;-6.38;165.5411911965045;;4.08;9.677419;178.6;17 / 20;53019;2018-06-12 12:15:34:273
0.0215;8.7056;1.0655;0.0432;9.5517;2.2212;-0.1414;-1.0041;-1.4334;0.4882;0.1722;-0.1576;1566.0;-17.22;-31.2;25.5;151.34;-76.91;-1.11;8.0;996.34;47.381;23.0314;72.5371;-6.38;165.5411911965045;;4.08;9.677419;178.6;17 / 20;53519;2018-06-12 12:15:34:773
0.2131;7.7263;0.8619;0.0655;9.4987;2.4372;0.308;-2.189;-1.0844;0.0429;-0.0935;-0.3348;1504.0;-16.2;-31.62;27.54;154.21;-75.6;-1.54;8.0;996.35;46.727;23.0314;72.5371;-6.38;165.5411911965045;;4.08;9.677419;178.6;18 / 21;54019;2018-06-12 12:15:35:273
-0.2993;7.5324;1.6425;3.0E-4;9.4085;2.766;-0.4935;-0.9136;0.1479;-0.3224;-0.0623;0.036;1953.0;-16.26;-33.36;24.48;153.67;-73.62;-0.01;8.0;996.36;46.641;23.0314;72.5371;-6.38;165.5411911965045;;4.08;9.677419;178.6;18 / 21;54518;2018-06-12 12:15:35:772
-0.7901;8.6649;3.4837;0.0629;9.5844;2.0748;-0.7907;0.6056;0.7528;-0.6364;-0.5064;0.2077;2420.0;-15.96;-31.62;27.42;152.78;-77.78;-1.74;8.0;996.33;47.356;23.0314;72.5371;-6.38;165.5411911965045;;4.08;9.677419;178.6;17 / 20;55018;2018-06-12 12:15:36:272
-2.6074;11.0568;3.3161;-0.3991;9.5452;2.2135;-2.2083;1.5115;1.1026;0.702;0.5827;0.088;1783.0;-15.24;-33.06;26.28;163.86;-76.74;10.22;8.0;996.32;48.967;23.0314;72.5371;-6.38;165.5411911965045;;4.08;9.677419;178.6;17 / 20;55519;2018-06-12 12:15:36:773
0.9745;10.2092;4.4557;0.47;9.7076;1.3081;0.5763;1.3276;3.4349;-0.2338;-0.4405;-0.11;1323.0;-15.12;-28.98;31.26;138.67;-81.85;-19.76;8.0;996.35;46.449;23.0314;72.5371;-6.38;165.5411911965045;;4.08;9.677419;178.6;18 / 21;56018;2018-06-12 12:15:37:272
2.162;11.9187;4.3839;0.6661;9.7072;1.2234;2.0131;2.0702;-1.1252;-1.0017;-0.7923;0.4484;1365.0;-14.04;-29.64;31.08;132.19;-81.83;-28.57;8.0;996.34;47.735;23.0314;72.5371;-6.38;165.5411911965045;;4.08;9.677419;178.6;17 / 22;56518;2018-06-12 12:15:37:772
0.2538;12.8189;1.257;0.2722;9.7389;1.1183;-1.1126;3.4368;1.2784;-0.1111;0.4239;-0.5296;1390.0;-15.54;-28.38;30.96;142.15;-83.26;-13.68;8.0;996.35;45.925;23.0314;72.5371;-6.38;165.5411911965045;;4.08;9.677419;178.6;17 / 22;57018;2018-06-12 12:15:38:272
0.2658;12.1174;3.589;0.2377;9.6952;1.4548;-0.1204;2.3336;2.2707;-0.3151;0.5143;0.1081;1359.0;-17.82;-29.88;28.2;142.43;-81.35;-9.28;8.0;996.36;48.94;23.0314;72.5371;-6.38;165.5411911965045;;4.08;9.677419;178.6;18 / 22;57518;2018-06-12 12:15:38:772
-0.0742;11.5955;2.1932;-0.3013;9.6748;1.574;0.0571;0.7355;-0.0297;-0.1673;0.091;0.2425;1742.0;-17.22;-30.72;28.44;162.08;-80.59;10.84;8.0;996.35;52.905;23.0314;72.5371;-6.38;165.5411911965045;;4.08;9.677419;178.6;18 / 22;58018;2018-06-12 12:15:39:272
0.5435;9.0192;-0.1197;0.0189;9.6836;1.5487;0.5246;-0.6643;-1.6684;0.1559;0.2205;0.0984;2196.0;-14.58;-29.94;28.8;155.18;-80.91;-0.7;8.0;996.36;47.882;23.0314;72.5371;-6.38;165.5411911965045;;4.08;9.677419;178.6;18 / 22;58518;2018-06-12 12:15:39:772
0.2083;8.1956;-1.087;0.1972;9.6091;1.9483;0.5211;-3.7934;-2.341;0.4735;-0.1491;-0.1588;2252.0;-16.8;-29.58;27.18;147.35;-78.48;-5.78;8.0;996.36;48.022;23.0314;72.5371;-6.38;165.5411911965045;;4.08;9.677419;178.6;19 / 23;59018;2018-06-12 12:15:40:272
-0.8619;6.8692;-0.2945;-0.4034;9.681;1.5116;-0.1065;-3.001;-1.605;0.0166;0.0336;0.0904;1966.0;-14.04;-30.24;29.28;169.81;-80.66;14.18;8.0;996.37;47.035;23.0314;72.5371;-6.38;165.5411911965045;;4.08;9.677419;178.6;19 / 23;59518;2018-06-12 12:15:40:772
-0.7231;6.7519;2.2746;-0.1567;9.7127;1.345;-0.5664;-2.9608;0.9296;-0.364;-0.1699;0.2871;2079.0;-16.92;-28.86;29.46;158.58;-82.06;6.64;8.0;996.36;47.831;23.0314;72.5371;-6.38;165.5411911965045;;4.08;9.677419;178.6;17 / 20;60019;2018-06-12 12:15:41:273
2.3296;8.7511;-0.8069;0.3207;9.7126;1.3162;2.0089;-0.9615;-2.1231;-0.2754;-0.2841;0.102;1816.0;-14.58;-28.92;30.54;144.14;-82.06;-13.7;8.0;996.35;46.708;23.0314;72.5371;-6.38;165.5411911965045;;4.08;9.677419;178.6;17 / 20;60519;2018-06-12 12:15:41:773
-1.9346;10.5133;5.2698;0.3814;9.3893;2.8047;-0.719;0.9109;3.3845;-0.2442;0.9297;-0.1961;1551.0;-14.7;-32.1;26.34;150.12;-73.22;-7.74;8.0;996.37;47.828;23.031288;72.53713;-6.29;165.5411911965045;;4.22;9.677419;157.77;16 / 19;61018;2018-06-12 12:15:42:272