sep=;
ACCELEROMETER X (m/s²);ACCELEROMETER Y (m/s²);ACCELEROMETER Z (m/s²);GRAVITY X (m/s²);GRAVITY Y (m/s²);GRAVITY Z (m/s²);LINEAR ACCELERATION X (m/s²);LINEAR ACCELERATION Y (m/s²);LINEAR ACCELERATION Z (m/s²);GYROSCOPE X (rad/s);GYROSCOPE Y (rad/s);GYROSCOPE Z (rad/s);LIGHT (lux);MAGNETIC FIELD X (μT);MAGNETIC FIELD Y (μT);MAGNETIC FIELD Z (μT);ORIENTATION Z (azimuth °);ORIENTATION X (pitch °);ORIENTATION Y (roll °);PROXIMITY (i);ATMOSPHERIC PRESSURE (hPa);SOUND LEVEL (dB);LOCATION Latitude : ;LOCATION Longitude : ;LOCATION Altitude ( m);LOCATION Altitude-google ( m);LOCATION Altitude-atmospheric pressure ( m);LOCATION Speed ( Kmh);LOCATION Accuracy ( m);LOCATION ORIENTATION (°);Satellites in range;Time since start in ms ;YYYY-MO-DD HH-MI-SS_SSS
1.5922;7.4725;1.0128;0.7505;9.2637;3.129;1.5217;-1.4201;-2.2575;0.2384;-0.0507;0.0299;1820.0;-19.44;-8.04;-37.74;16.86;-69.59;-11.8;3.1;996.3;47.779;23.031012;72.53757;28.38;NaN;;3.14;9.677419;62.58;20 / 20;22;2018-06-12 12:17:20:314
1.8604;6.3903;0.7303;1.1841;9.3189;2.8154;1.3825;-3.9318;-3.0069;-0.119;-0.2554;0.0214;2180.0;-19.44;-9.24;-36.36;5.69;-71.85;-22.81;3.1;996.31;47.021;23.031012;72.53757;28.38;NaN;;3.14;9.677419;62.58;21 / 21;522;2018-06-12 12:17:20:814
-0.8212;7.2451;2.7965;0.8904;9.5501;2.0426;-0.6582;-1.0313;0.5719;0.3624;0.292;-0.2944;2412.0;-19.62;-14.22;-34.98;6.92;-76.87;-23.55;3.1;996.27;47.958;23.031012;72.53757;28.38;NaN;;3.14;9.677419;62.58;21 / 21;1023;2018-06-12 12:17:21:315
0.7063;9.941;2.2458;2.0385;9.416;1.831;-1.3729;1.3103;0.9559;0.5786;0.3983;-0.2724;2970.0;-23.76;-11.22;-33.48;346.42;-73.77;-48.07;3.1;996.25;47.786;23.031082;72.537636;27.15;NaN;;3.08;9.677419;50.81;20 / 20;1523;2018-06-12 12:17:21:815
3.0096;9.5603;0.2993;1.4692;9.5773;1.5125;1.5404;-0.0169;-1.2132;0.3905;-1.0953;-0.0434;2868.0;-25.32;-14.88;-31.08;354.1;-77.58;-44.17;3.1;996.26;46.174;23.031082;72.537636;27.15;NaN;;3.08;9.677419;50.81;20 / 20;2023;2018-06-12 12:17:22:315
0.9577;12.9626;2.9928;0.9227;9.6913;1.1821;1.1077;3.4629;-0.4303;-0.2998;0.3243;0.0513;3005.0;-26.16;-17.1;-30.06;3.19;-81.2;-37.97;3.1;996.26;46.111;23.031082;72.537636;27.15;NaN;;3.08;9.677419;50.81;20 / 20;2523;2018-06-12 12:17:22:815
1.0224;13.3912;0.3711;0.6448;9.7494;0.8387;0.3775;3.6418;-0.4676;-0.0097;-0.54;0.1747;2566.0;-25.56;-19.62;-28.92;4.6;-83.81;-37.55;3.1;996.27;46.676;23.031082;72.537636;27.15;NaN;;3.08;9.677419;50.81;20 / 20;3023;2018-06-12 12:17:23:315
1.6425;11.7774;2.2506;0.7574;9.7248;1.0119;0.921;1.1308;0.4463;0.0716;0.4435;-0.2633;2709.0;-27.0;-18.78;-28.56;6.6;-82.59;-36.82;3.1;996.27;46.807;23.031082;72.537636;27.15;NaN;;3.08;9.677419;50.81;21 / 21;3523;2018-06-12 12:17:23:815
0.486;9.7782;-0.6225;0.6726;9.7505;0.8029;0.0409;-0.7792;-1.6313;0.2298;0.1545;-0.4398;2491.0;-25.62;-19.38;-29.4;2.04;-83.87;-39.95;3.1;996.26;47.549;23.031082;72.537636;27.15;NaN;;3.08;9.677419;50.81;21 / 21;4025;2018-06-12 12:17:24:317
1.5659;6.2491;-1.2402;0.364;9.7969;0.2408;1.2019;-3.5479;-1.4811;0.0856;-0.3635;0.3073;3115.0;-25.98;-22.02;-27.0;347.06;-87.45;-56.51;3.1;996.26;50.91;23.031082;72.537636;27.15;NaN;;3.08;9.677419;50.81;20 / 21;4522;2018-06-12 12:17:24:814
-0.8236;6.4693;1.9322;0.3659;9.7512;0.975;-1.1895;-3.2818;0.9571;-0.0591;0.2468;0.0672;3458.0;-22.68;-19.38;-31.98;16.04;-83.9;-20.57;3.1;996.26;47.139;23.031082;72.537636;27.15;NaN;;3.08;9.677419;50.81;20 / 21;5022;2018-06-12 12:17:25:314
-0.328;9.1222;1.9465;0.5569;9.7249;1.1338;-0.8849;-0.6027;0.8127;0.2695;0.7165;-0.5095;3762.0;-22.62;-18.0;-31.38;11.17;-82.6;-26.16;3.1;996.27;45.948;23.031082;72.537636;27.15;NaN;;3.08;9.677419;50.81;20 / 21;5522;2018-06-12 12:17:25:814
0.6967;9.6082;0.7566;0.9991;9.6157;1.6463;-0.8746;0.548;5.2756;-0.0988;0.3671;0.2853;3833.0;-18.06;-16.32;-36.6;354.13;-78.68;-31.25;3.1;996.27;45.799;23.031082;72.537636;27.15;NaN;;3.08;9.677419;50.81;20 / 21;6025;2018-06-12 12:17:26:317
1.2354;9.0743;4.3983;0.6069;9.7067;1.2575;0.6285;-0.6324;3.1408;-0.2864;-0.5804;0.383;3909.0;-16.32;-19.62;-36.36;358.04;-81.81;-25.76;3.1;996.28;47.199;23.031082;72.537636;27.15;NaN;;3.08;9.677419;50.81;21 / 21;6523;2018-06-12 12:17:26:815
0.0168;11.9786;2.6553;0.4431;9.6918;1.429;-0.4263;2.2867;1.2262;-0.1868;0.295;-0.0147;3825.0;-17.76;-19.56;-34.38;11.73;-81.22;-17.23;3.1;996.26;45.128;23.031082;72.537636;27.15;NaN;;3.08;9.677419;50.81;21 / 21;7023;2018-06-12 12:17:27:315
0.6536;11.7152;1.0295;0.4099;9.6429;1.7368;-1.157;2.0052;0.0852;0.0771;-0.2572;0.1368;4141.0;-14.1;-17.28;-36.0;8.82;-79.52;-13.28;3.1;996.28;45.605;23.031082;72.537636;27.15;NaN;;3.08;9.677419;50.81;20 / 20;7522;2018-06-12 12:17:27:814
1.3671;7.1397;-1.0918;0.4503;9.6888;1.4469;0.1027;-3.5284;-2.5962;-0.2534;-0.3586;0.3293;3766.0;-13.92;-18.42;-35.58;4.33;-81.11;-17.29;3.1;996.26;47.914;23.031082;72.537636;27.15;NaN;;3.08;9.677419;50.81;20 / 20;8022;2018-06-12 12:17:28:314
1.7119;7.0918;1.1684;0.9612;9.6062;1.7228;0.4658;-3.6037;-0.7986;-0.3743;-0.5193;0.3567;4430.0;-13.98;-15.84;-37.68;350.08;-78.39;-29.16;3.1;996.27;47.939;23.031082;72.537636;27.15;NaN;;3.08;9.677419;50.81;19 / 20;8522;2018-06-12 12:17:28:814
-0.6153;7.7886;2.4158;0.8598;9.6998;1.1595;-0.6826;-1.5258;1.024;0.0068;0.3726;-0.3445;3519.0;-20.76;-16.92;-33.06;355.59;-81.54;-36.56;3.1;996.27;49.058;23.031082;72.537636;27.15;NaN;;3.08;9.677419;50.81;19 / 20;9022;2018-06-12 12:17:29:314
-0.2753;11.1717;4.1014;0.7435;9.6461;1.603;-0.1809;0.8695;0.8248;0.2347;0.1405;0.2297;3993.0;-16.74;-15.42;-36.72;356.79;-78.88;-27.6;3.1;996.27;48.374;23.031082;72.537636;27.15;NaN;;3.08;9.677419;50.81;19 / 21;9523;2018-06-12 12:17:29:815
0.6584;11.5883;3.4502;1.0646;9.5852;1.778;1.0448;2.2569;-1.3015;-0.5087;-0.526;-0.1252;4416.0;-17.1;-15.12;-37.02;353.07;-77.8;-30.91;3.1;996.27;46.697;23.031082;72.537636;27.15;NaN;;3.08;9.677419;50.81;19 / 21;10022;2018-06-12 12:17:30:314
0.7901;11.7679;3.6776;0.7967;9.5401;2.1262;0.5776;2.29;0.1531;-0.0097;0.2608;-0.1002;5009.0;-13.8;-14.76;-38.82;359.11;-76.61;-20.54;3.1;996.25;47.413;23.03118;72.53769;26.0;NaN;;4.32;9.677419;15.61;20 / 20;10523;2018-06-12 12:17:30:815
0.2466;11.222;2.5331;1.3234;9.1968;3.1364;-1.3329;1.2901;-0.6583;0.1076;0.1704;-0.369;6389.0;-17.4;-9.54;-39.12;0.79;-69.69;-22.88;3.1;996.28;47.315;23.03118;72.53769;26.0;NaN;;4.32;9.677419;15.61;20 / 20;11022;2018-06-12 12:17:31:314
1.5347;8.344;0.4142;1.3406;9.4195;2.3762;0.1942;-1.0754;-1.962;-0.0878;-0.1381;0.0379;5808.0;-21.06;-14.82;-35.34;1.79;-73.85;-29.43;3.1;996.27;50.826;23.03118;72.53769;26.0;NaN;;4.32;9.677419;15.61;21 / 22;11523;2018-06-12 12:17:31:815
2.0591;5.3967;1.494;1.9005;9.2524;2.6365;0.1586;-3.8557;-1.1425;-0.1917;-0.4802;0.3177;5466.0;-19.62;-11.22;-36.12;352.14;-70.65;-35.79;3.1;996.27;53.703;23.03118;72.53769;26.0;NaN;;4.32;9.677419;15.61;21 / 22;12024;2018-06-12 12:17:32:316
0.8619;8.9139;-0.2035;1.9783;9.2686;2.5199;0.2866;-0.5031;-4.5885;0.4076;-0.5639;-0.3732;4590.0;-24.18;-10.98;-33.66;356.6;-70.93;-38.14;3.1;996.27;52.887;23.03118;72.53769;26.0;NaN;;4.32;9.677419;15.61;21 / 22;12523;2018-06-12 12:17:32:815
0.8763;10.7407;9.6465;1.2051;9.3963;2.5354;-0.0966;2.9151;5.7129;-1.0946;0.7214;0.587;3992.0;-19.14;-11.82;-36.78;2.01;-73.37;-25.42;3.1;996.25;53.27;23.03118;72.53769;26.0;NaN;;4.32;9.677419;15.61;21 / 22;13022;2018-06-12 12:17:33:314
2.0639;14.4997;1.8292;0.6442;9.4763;2.4405;1.4197;5.0235;-0.6112;-0.1935;-0.3659;0.2975;3525.0;-19.56;-13.38;-36.78;15.31;-75.09;-14.79;3.1;996.27;53.837;23.03118;72.53769;26.0;NaN;;4.32;9.677419;15.61;19 / 20;13523;2018-06-12 12:17:33:815
1.3169;12.2012;2.1668;1.0517;9.3388;2.802;0.2652;2.8624;-0.6352;-0.56;0.2956;0.099;4058.0;-19.26;-10.86;-37.44;7.58;-72.23;-20.57;3.1;996.31;53.981;23.03118;72.53769;26.0;NaN;;4.32;9.677419;15.61;19 / 20;14023;2018-06-12 12:17:34:315
1.4797;6.5867;0.1413;1.2114;9.0515;3.5739;0.2683;-2.4649;-3.4326;0.0753;-0.2395;-0.2144;3637.0;-16.08;-7.38;-39.24;4.17;-67.37;-18.72;3.1;996.31;52.792;23.03118;72.53769;26.0;NaN;;4.32;9.677419;15.61;19 / 19;14522;2018-06-12 12:17:34:814
0.3376;8.3464;7.202;0.5675;9.1234;3.5512;-0.4645;0.6189;2.8894;-0.4434;0.4569;0.3274;2331.0;-18.06;-8.7;-38.64;18.28;-68.49;-9.08;3.1;996.29;54.139;23.03118;72.53769;26.0;NaN;;4.32;9.677419;15.61;19 / 19;15023;2018-06-12 12:17:35:315
0.3304;10.0895;3.3424;0.8487;8.8448;4.1496;-0.1639;0.6916;4.3357;0.2371;-0.1149;0.2474;1671.0;-14.04;-6.3;-40.86;8.65;-64.41;-11.56;3.1;996.29;55.655;23.03118;72.53769;26.0;NaN;;4.32;9.677419;15.61;20 / 21;15522;2018-06-12 12:17:35:814
1.506;13.9945;2.5212;0.5423;9.311;3.03;0.9637;4.6835;-0.5088;-0.0628;0.1582;-0.3238;1351.0;-10.08;-10.56;-41.4;1.32;-70.17;-12.58;3.1;996.26;53.951;23.03118;72.53769;26.0;NaN;;4.32;9.677419;15.61;20 / 21;16023;2018-06-12 12:17:36:315
0.5315;12.7567;3.2371;0.7349;9.4009;2.6931;-0.2033;3.3558;0.5439;-0.3853;0.025;0.044;1050.0;-14.88;-12.9;-37.98;7.23;-73.46;-15.26;3.1;996.27;54.339;23.03118;72.53769;26.0;NaN;;4.32;9.677419;15.61;21 / 22;16522;2018-06-12 12:17:36:814
0.0215;11.7343;3.2514;0.4365;9.4271;2.6663;-0.3958;1.668;0.0919;0.041;0.3256;0.0635;1313.0;-13.98;-12.42;-38.1;9.33;-74.54;-11.96;3.1;996.28;52.39;23.03118;72.53769;26.0;NaN;;4.32;9.677419;15.61;21 / 22;17022;2018-06-12 12:17:37:314
-0.0215;6.6226;-0.9098;0.2545;9.6203;1.8855;-0.6639;-3.0289;-2.6373;0.228;-0.2627;0.0611;1238.0;-15.84;-16.92;-35.88;18.09;-78.81;-7.69;3.1;996.26;54.161;23.03118;72.53769;26.0;NaN;;4.32;9.677419;15.61;20 / 21;17522;2018-06-12 12:17:37:814
0.8236;6.1772;2.1548;0.4652;9.5258;2.2831;0.3584;-3.3486;-0.1283;-0.1428;-0.2804;0.2511;1517.0;-11.7;-14.16;-37.92;6.76;-76.26;-11.52;3.1;996.27;54.458;23.03118;72.53769;26.0;NaN;;4.32;9.677419;15.61;20 / 21;18023;2018-06-12 12:17:38:315
2.1381;9.1749;-0.0096;0.4202;9.6088;1.9144;1.7179;-0.4339;-1.924;0.1657;-1.0599;-0.0476;1767.0;-12.54;-14.82;-37.98;7.18;-78.47;-12.38;3.1;996.25;53.042;23.03118;72.53769;26.0;NaN;;4.32;9.677419;15.61;21 / 22;18523;2018-06-12 12:17:38:815
0.9649;13.0488;4.1062;0.5443;9.4017;2.7352;0.4205;3.6471;1.371;-0.6132;-0.0868;0.0428;1903.0;-13.92;-12.6;-39.42;9.75;-73.48;-11.26;3.1;996.23;54.143;23.03118;72.53769;26.0;NaN;;4.32;9.677419;15.61;21 / 22;19022;2018-06-12 12:17:39:314
1.1325;12.2659;1.2091;0.1152;9.5627;2.1706;-0.2086;2.6385;0.9515;0.0979;0.0452;0.226;1542.0;-10.5;-14.94;-39.12;12.69;-77.19;-3.04;3.1;996.27;52.688;23.031244;72.53773;24.75;NaN;;1.62;9.677419;41.31;21 / 21;19522;2018-06-12 12:17:39:814
1.2666;9.5029;-0.5818;0.8632;9.5264;2.1616;-0.0803;-1.7187;-1.7379;0.4326;-0.2676;-0.0904;1765.0;-15.96;-14.34;-37.62;1.2;-76.27;-21.77;3.1;996.27;51.778;23.031244;72.53773;24.75;NaN;;1.62;9.677419;41.31;21 / 21;20023;2018-06-12 12:17:40:315
-0.0192;8.0088;0.237;0.8822;9.6475;1.5223;-1.0952;-0.839;-1.7928;0.939;0.3494;-0.4551;2226.0;-13.32;-14.04;-38.94;345.8;-77.59;-31.28;3.1;996.27;49.248;23.031244;72.53773;24.75;NaN;;1.62;9.677419;41.31;20 / 21;20522;2018-06-12 12:17:40:814
0.316;7.4438;0.2658;0.5678;9.7355;1.0332;-0.2518;-2.2917;-0.7675;0.0374;-0.3971;-0.1326;2396.0;-15.9;-19.86;-35.16;355.46;-83.1;-28.79;3.1;996.26;52.559;23.031244;72.53773;24.75;NaN;;1.62;9.677419;41.31;20 / 21;21022;2018-06-12 12:17:41:314
-1.9346;9.8093;2.9497;0.51;9.6838;1.4609;-1.8173;0.1902;1.8336;-0.0188;0.3683;0.0965;2453.0;-16.8;-17.76;-36.3;6.58;-80.92;-19.24;3.1;996.24;51.042;23.031244;72.53773;24.75;NaN;;1.62;9.677419;41.31;22 / 22;21522;2018-06-12 12:17:41:814
0.7662;9.2922;2.83;0.1922;9.7443;1.0871;0.574;-0.4521;1.7429;0.3349;-0.2957;0.1698;2223.0;-13.26;-19.68;-36.24;10.51;-83.54;-10.03;3.1;996.24;47.51;23.031244;72.53773;24.75;NaN;;1.62;9.677419;41.31;22 / 22;22023;2018-06-12 12:17:42:315
0.1149;11.4422;0.1365;-0.2088;9.7298;1.2069;0.3237;1.7124;-1.0704;0.4454;0.1893;0.1649;2204.0;-9.9;-19.68;-37.08;26.81;-82.83;9.82;3.1;996.24;48.743;23.031244;72.53773;24.75;NaN;;1.62;9.677419;41.31;20 / 20;22523;2018-06-12 12:17:42:815
0.4549;10.5276;2.1788;0.0674;9.5844;2.0746;0.3875;0.9432;0.1042;-0.1593;-0.0776;0.1051;2516.0;-8.58;-15.3;-40.26;10.7;-78.14;-3.0;3.1;996.26;48.332;23.031244;72.53773;24.75;NaN;;1.62;9.677419;41.31;20 / 20;23022;2018-06-12 12:17:43:314
0.1101;7.5491;1.8891;0.4791;9.4674;2.5116;-0.369;-1.9183;-0.6225;-0.1184;0.2009;-0.2382;2476.0;-11.04;-12.6;-39.72;5.18;-74.89;-10.8;3.1;996.25;47.771;23.031244;72.53773;24.75;NaN;;1.62;9.677419;41.31;19 / 19;23523;2018-06-12 12:17:43:815
0.9098;5.6816;1.7742;0.2274;9.4524;2.6019;-0.2442;-2.8801;-0.7847;-0.3829;-0.3042;0.3207;3324.0;-8.16;-12.24;-41.22;6.81;-74.55;-5.0;3.1;996.25;50.618;23.031244;72.53773;24.75;NaN;;1.62;9.677419;41.31;19 / 19;24022;2018-06-12 12:17:44:314
0.3328;9.2299;3.0312;0.4611;9.2554;3.2087;-0.1283;-0.0254;-0.1775;0.4864;0.3347;-0.6249;3381.0;-11.76;-9.0;-40.5;9.75;-70.7;-8.18;3.1;996.25;52.761;23.031244;72.53773;24.75;NaN;;1.62;9.677419;41.31;20 / 21;24523;2018-06-12 12:17:44:815
-2.0567;10.6354;5.3249;0.3423;9.445;2.6162;-1.6352;2.1624;1.569;-0.1789;0.6829;-0.1411;2310.0;-13.44;-13.26;-38.88;12.48;-74.39;-7.45;3.1;996.25;53.512;23.031244;72.53773;24.75;NaN;;1.62;9.677419;41.31;20 / 21;25023;2018-06-12 12:17:45:315
0.0694;12.1988;5.119;0.6666;9.3825;2.7739;0.8562;3.8099;-1.6007;-0.0316;-0.9334;-0.3396;2570.0;-18.78;-13.8;-36.96;15.86;-73.09;-13.51;3.1;996.25;50.63;23.031244;72.53773;24.75;NaN;;1.62;9.677419;41.31;20 / 21;25522;2018-06-12 12:17:45:814
1.2259;11.9474;2.0519;0.6574;9.4481;2.5437;0.092;2.2575;0.4492;0.2646;0.2614;-0.1814;2029.0;-20.1;-14.16;-35.04;17.46;-74.46;-14.49;3.1;996.23;51.377;23.031244;72.53773;24.75;NaN;;1.62;9.677419;41.31;20 / 21;26022;2018-06-12 12:17:46:314
-0.6656;12.3377;3.6058;-0.2439;9.3628;2.9066;-0.4217;2.9749;0.6992;-0.2882;0.3335;0.2572;2390.0;-13.02;-13.74;-39.18;26.94;-72.7;4.8;3.1;996.24;52.067;23.031244;72.53773;24.75;NaN;;1.62;9.677419;41.31;20 / 21;26523;2018-06-12 12:17:46:815
1.4701;7.9059;0.5866;0.3384;9.3528;2.9292;0.7773;-2.6153;-2.0936;0.1064;-0.1521;0.1002;2344.0;-14.88;-12.78;-39.06;16.73;-72.5;-6.59;3.1;996.24;49.047;23.031244;72.53773;24.75;NaN;;1.62;9.677419;41.31;20 / 21;27023;2018-06-12 12:17:47:315
1.2283;5.7295;-1.1684;0.4029;9.5063;2.3745;0.9475;-5.0697;-2.7528;-0.2662;-0.6427;0.6646;1701.0;-15.96;-13.32;-38.1;14.77;-75.78;-9.63;3.1;996.26;49.644;23.031244;72.53773;24.75;NaN;;1.62;9.677419;41.31;20 / 21;27523;2018-06-12 12:17:47:815
-1.6664;8.4757;3.1269;0.5306;9.5748;2.0525;1.3441;-0.8117;-1.3126;-0.1862;0.1942;-0.9401;1881.0;-18.6;-15.84;-36.06;14.92;-77.52;-14.5;3.1;996.25;53.392;23.031244;72.53773;24.75;NaN;;1.62;9.677419;41.31;20 / 21;28023;2018-06-12 12:17:48:315
0.237;8.6553;2.2674;1.228;9.187;3.2032;-0.991;-0.5317;-0.9358;0.6275;0.3146;0.0605;1552.0;-20.28;-9.48;-37.38;8.59;-69.52;-20.98;3.1;996.23;52.494;23.031343;72.5378;23.23;NaN;;3.93;9.677419;39.39;20 / 21;28523;2018-06-12 12:17:48:815
-0.0814;9.9099;4.937;0.5614;9.5137;2.3118;-0.6428;0.3962;2.6252;0.0655;-0.0037;-0.2816;1888.0;-16.5;-13.8;-38.16;10.33;-75.96;-13.65;3.1;996.25;51.608;23.031343;72.5378;23.23;NaN;;3.93;9.677419;39.39;20 / 21;29023;2018-06-12 12:17:49:315
2.9019;10.609;1.7622;0.9791;9.3581;2.7637;0.7783;2.077;0.5308;-0.2045;-0.0263;0.8729;1811.0;-17.88;-11.1;-37.56;6.66;-72.6;-19.51;3.1;996.25;51.194;23.031343;72.5378;23.23;NaN;;3.93;9.677419;39.39;21 / 22;29523;2018-06-12 12:17:49:815
0.2921;12.7184;3.5292;0.4468;9.4339;2.6405;-1.0454;3.9381;1.0514;-0.1263;-0.2279;0.3537;1386.0;-11.34;-13.68;-39.42;7.08;-74.15;-9.6;3.1;996.23;50.173;23.031343;72.5378;23.23;NaN;;3.93;9.677419;39.39;21 / 22;30023;2018-06-12 12:17:50:315
2.3392;12.4287;3.4358;0.7948;9.3996;2.6807;1.5444;3.0291;0.7551;-0.5081;-0.0831;0.0715;1917.0;-16.26;-12.48;-38.52;6.6;-73.43;-16.52;3.1;996.23;50.196;23.031343;72.5378;23.23;NaN;;3.93;9.677419;39.39;21 / 21;30522;2018-06-12 12:17:50:814
0.6081;9.0767;0.9864;0.1019;9.5598;2.1839;0.5062;-0.4831;-1.1975;-0.0701;0.2987;0.0721;1406.0;-14.04;-14.28;-38.7;18.92;-77.12;-2.67;3.1;996.26;51.614;23.031343;72.5378;23.23;NaN;;3.93;9.677419;39.39;21 / 21;31022;2018-06-12 12:17:51:314
0.419;5.447;1.1157;-0.0141;9.7536;1.0183;0.1242;-4.388;-0.0726;-0.1117;0.0892;0.6359;1147.0;-15.18;-19.8;-35.04;25.46;-84.04;0.79;3.1;996.26;54.766;23.031343;72.5378;23.23;NaN;;3.93;9.677419;39.39;20 / 21;31523;2018-06-12 12:17:51:815
0.0694;5.6601;0.3544;0.4894;9.6694;1.5602;-1.6793;-3.2407;0.9251;-0.009;0.4697;0.0788;1656.0;-14.52;-17.28;-36.36;5.7;-80.4;-17.41;3.1;996.22;58.638;23.031343;72.5378;23.23;NaN;;3.93;9.677419;39.39;20 / 21;32023;2018-06-12 12:17:52:315
0.1053;8.7583;1.2211;0.6955;9.7001;1.2624;1.3109;-0.2356;-0.2856;0.4033;-0.6903;-0.4979;1527.0;-18.0;-19.02;-34.98;358.22;-81.55;-28.85;3.1;996.23;52.97;23.031343;72.5378;23.23;NaN;;3.93;9.677419;39.39;20 / 20;32523;2018-06-12 12:17:52:815
0.7422;9.4741;2.0184;0.9438;9.5662;1.9408;-0.2016;-0.0921;0.0776;-0.7384;-0.1192;0.38;1594.0;-17.22;-14.28;-37.92;357.97;-77.29;-25.93;3.1;996.24;50.914;23.031343;72.5378;23.23;NaN;;3.93;9.677419;39.39;20 / 20;33023;2018-06-12 12:17:53:315
-0.8572;11.6218;4.1852;0.1191;9.7205;1.2916;-0.9762;1.9013;2.8936;1.0642;0.4771;-0.2248;1906.0;-10.92;-16.92;-37.74;11.63;-82.4;-5.27;3.1;996.24;52.947;23.031343;72.5378;23.23;NaN;;3.93;9.677419;39.39;19 / 21;33522;2018-06-12 12:17:53:814
2.3871;10.5037;0.668;0.2891;9.7364;1.1352;-0.8996;2.3978;2.3269;0.3129;0.2077;0.3916;1411.0;-13.86;-18.66;-36.72;6.88;-83.14;-14.29;3.1;996.23;57.483;23.031343;72.5378;23.23;NaN;;3.93;9.677419;39.39;19 / 21;34023;2018-06-12 12:17:54:315
1.0463;11.9666;2.1285;0.6125;9.6984;1.3176;-0.421;2.68;0.8325;0.5181;-0.135;0.3122;1626.0;-15.12;-16.98;-36.9;356.91;-81.48;-24.93;3.1;996.24;60.542;23.031343;72.5378;23.23;NaN;;3.93;9.677419;39.39;20 / 20;34522;2018-06-12 12:17:54:814
0.1652;10.9658;-1.4174;0.7535;9.7635;0.5253;1.466;1.559;1.292;0.0716;-0.0306;0.1985;1429.0;-16.86;-20.34;-34.14;337.36;-84.95;-48.11;3.1;996.23;55.402;23.031343;72.5378;23.23;NaN;;3.93;9.677419;39.39;20 / 20;35023;2018-06-12 12:17:55:315
0.3472;8.7056;1.0271;0.5473;9.791;0.0841;0.2356;-1.9282;0.6031;0.0594;-0.2914;0.0586;1656.0;-14.16;-22.56;-34.32;299.31;-86.76;-81.27;3.1;996.23;58.098;23.031343;72.5378;23.23;NaN;;3.93;9.677419;39.39;21 / 21;35522;2018-06-12 12:17:55:814
0.2849;7.3983;0.0479;0.8687;9.76;0.3987;0.1967;-3.0249;-0.4992;-0.0274;-0.1283;-0.1393;1341.0;-17.64;-21.3;-34.08;320.47;-84.41;-65.35;3.1;996.21;59.644;23.031343;72.5378;23.23;NaN;;3.93;9.677419;39.39;21 / 21;36023;2018-06-12 12:17:56:315
-0.3089;7.5731;0.7638;0.3252;9.7318;1.1643;-1.0722;-1.8858;1.364;-0.1685;-0.0104;0.0874;1742.0;-14.88;-18.84;-36.12;7.52;-82.92;-15.61;3.1;996.23;59.894;23.031343;72.5378;23.23;NaN;;3.93;9.677419;39.39;20 / 21;36522;2018-06-12 12:17:56:814
0.0239;9.5795;2.2219;-0.0116;9.7574;0.9811;0.5335;0.2985;0.5895;-0.1972;0.0085;-0.2944;1829.0;-14.22;-18.54;-36.12;23.14;-84.26;0.67;3.1;996.22;57.968;23.031343;72.5378;23.23;NaN;;3.93;9.677419;39.39;20 / 21;37024;2018-06-12 12:17:57:316
-0.249;10.1709;-0.4358;0.3706;9.7585;0.8969;-0.6196;0.4124;-1.3326;0.3165;-0.0642;-0.1802;1819.0;-15.96;-19.5;-34.56;2.24;-84.32;-22.45;3.1;996.22;64.833;23.031437;72.53785;21.35;NaN;;3.45;9.677419;19.79;20 / 20;37523;2018-06-12 12:17:57:815
0.1796;10.4965;5.9785;0.6196;9.7071;1.2487;0.1346;2.554;2.0554;-0.4024;0.4673;-0.1326;1918.0;-16.38;-17.22;-35.52;357.38;-81.83;-26.39;3.1;996.22;57.607;23.031437;72.53785;21.35;NaN;;3.45;9.677419;19.79;20 / 20;38023;2018-06-12 12:17:58:315
1.1708;12.3114;2.2817;0.0018;9.7274;1.244;0.4172;2.718;0.7816;-0.5643;-0.4215;0.4759;1591.0;-15.0;-18.48;-36.42;24.08;-82.71;-0.08;3.1;996.2;51.428;23.031437;72.53785;21.35;NaN;;3.45;9.677419;19.79;20 / 21;38523;2018-06-12 12:17:58:815
0.5363;12.4335;4.0272;-0.0455;9.6107;1.95;0.4549;3.0406;1.6941;0.0643;-0.1876;0.0244;1851.0;-14.82;-15.24;-37.92;25.1;-78.53;1.34;3.1;996.21;55.513;23.031437;72.53785;21.35;NaN;;3.45;9.677419;19.79;20 / 21;39023;2018-06-12 12:17:59:315
-0.3783;11.1717;1.9418;-0.3456;9.6101;1.9229;0.1636;0.7667;-0.9173;-0.075;0.102;0.055;1540.0;-14.94;-17.28;-37.02;35.66;-78.51;10.19;3.1;996.22;53.376;23.031437;72.53785;21.35;NaN;;3.45;9.677419;19.79;20 / 21;39522;2018-06-12 12:17:59:814
0.3041;10.1733;1.9202;-0.0115;9.52;2.3538;-0.2638;1.4195;0.7228;0.0484;0.0885;-0.2834;1658.0;-14.76;-14.04;-38.7;21.31;-75.87;-2.03;3.1;996.22;58.501;23.031437;72.53785;21.35;NaN;;3.45;9.677419;19.79;21 / 22;40023;2018-06-12 12:18:00:315
-0.2634;7.0464;-0.3017;0.2226;9.6937;1.4675;-0.3327;-3.2698;-2.1882;0.1449;0.0519;-0.0489;1360.0;-20.22;-19.32;-34.92;22.96;-81.29;-8.62;3.1;996.22;57.526;23.031437;72.53785;21.35;NaN;;3.45;9.677419;19.79;22 / 23;40522;2018-06-12 12:18:00:814
1.6281;6.115;-0.3974;0.2584;9.5749;2.1035;0.0672;-4.2309;-0.8249;-0.4079;-0.4454;0.5027;1691.0;-16.56;-15.12;-36.72;19.64;-77.52;-7.0;3.1;996.22;60.868;23.031437;72.53785;21.35;NaN;;3.45;9.677419;19.79;22 / 23;41023;2018-06-12 12:18:01:315
0.4956;8.2411;3.2299;0.1839;9.6758;1.5857;0.8983;-1.3366;0.914;-0.1312;0.3604;-0.3396;1878.0;-16.5;-17.4;-36.9;18.23;-80.63;-6.62;3.1;996.21;63.204;23.031437;72.53785;21.35;NaN;;3.45;9.677419;19.79;20 / 23;41522;2018-06-12 12:18:01:814
-0.9218;8.8109;-3.115;0.0086;9.7633;0.921;-0.2672;-1.2421;-3.1524;0.9445;0.2474;-0.7263;1433.0;-15.36;-20.34;-35.28;23.9;-84.61;-0.54;3.1;996.19;70.728;23.031437;72.53785;21.35;NaN;;3.45;9.677419;19.79;20 / 23;42022;2018-06-12 12:18:02:314
-0.9673;10.4438;4.7383;0.2443;9.7219;1.2627;-0.1605;-0.3915;0.5115;0.2164;-0.975;-0.0092;1217.0;-16.32;-19.2;-36.24;8.63;-82.95;-15.91;3.1;996.21;65.4;23.031437;72.53785;21.35;NaN;;3.45;9.677419;19.79;20 / 23;42522;2018-06-12 12:18:02:814
-0.8404;14.3537;0.1413;0.214;9.7531;1.001;-0.4223;4.4785;-1.7695;-0.1746;0.0177;-0.3152;1061.0;-16.62;-19.68;-35.52;14.01;-84.01;-12.07;3.1;996.18;58.428;23.031437;72.53785;21.35;NaN;;3.45;9.677419;19.79;20 / 23;43023;2018-06-12 12:18:03:315
0.6896;12.6921;2.6624;0.3212;9.6751;1.5681;0.2678;3.3689;1.0776;0.0972;-0.2413;0.3189;1371.0;-13.98;-17.7;-38.1;9.46;-80.61;-11.58;3.1;996.19;60.389;23.031437;72.53785;21.35;NaN;;3.45;9.677419;19.79;20 / 20;43526;2018-06-12 12:18:03:818
1.1732;11.2794;0.4046;0.4322;9.7624;0.8234;0.4656;0.8059;-0.3613;0.162;0.0409;-0.0391;943.0;-17.88;-20.34;-34.86;359.5;-84.56;-27.69;3.1;996.17;58.022;23.031437;72.53785;21.35;NaN;;3.45;9.677419;19.79;20 / 20;44022;2018-06-12 12:18:04:314
1.2235;10.5995;2.1525;0.7315;9.5964;1.8824;0.492;1.003;0.27;-0.119;0.2529;-0.2834;1112.0;-15.48;-15.24;-38.46;0.34;-78.12;-21.24;3.1;996.18;66.264;23.031437;72.53785;21.35;NaN;;3.45;9.677419;19.79;19 / 20;44522;2018-06-12 12:18:04:814
1.0391;5.5404;1.0535;0.704;9.6045;1.8514;0.3351;-4.0642;-0.7979;-0.3646;-0.471;0.2584;1270.0;-17.28;-16.56;-36.72;4.31;-78.35;-20.82;3.1;996.18;68.072;23.031437;72.53785;21.35;NaN;;3.45;9.677419;19.79;19 / 20;45023;2018-06-12 12:18:05:315
-0.9529;6.838;2.1477;0.1225;9.7033;1.4148;-1.0754;-2.8652;0.7329;-0.513;0.1899;0.4575;1411.0;-16.62;-18.66;-36.0;22.03;-81.67;-4.95;3.1;996.18;56.652;23.031437;72.53785;21.35;NaN;;3.45;9.677419;19.79;22 / 22;45523;2018-06-12 12:18:05:815
-0.6105;9.8117;3.9242;0.5826;9.6477;1.6588;1.2035;0.2765;-0.8663;-0.05;-0.146;-0.5944;1384.0;-19.56;-17.76;-35.28;11.49;-79.67;-19.35;3.1;996.18;59.732;23.031437;72.53785;21.35;NaN;;3.45;9.677419;19.79;22 / 22;46022;2018-06-12 12:18:06:314
-2.3799;10.9155;6.6417;0.4663;9.6856;1.4633;-2.25;1.905;6.6366;-0.1349;0.6237;-0.3409;1235.0;-18.36;-18.36;-35.28;10.41;-80.99;-17.67;3.1;996.17;60.35;23.031544;72.537895;19.65;NaN;;2.38;9.677419;34.31;22 / 22;46522;2018-06-12 12:18:06:814
-0.2825;10.3026;4.7;0.343;9.7242;1.2219;-0.6256;0.5784;3.4781;0.3184;-0.2914;0.2926;1198.0;-20.1;-19.62;-33.9;15.94;-82.56;-15.68;3.1;996.17;61.892;23.031544;72.537895;19.65;NaN;;2.38;9.677419;34.31;21 / 21;47022;2018-06-12 12:18:07:314
0.1461;11.6769;2.0567;-0.1003;9.7789;0.7306;0.256;2.6738;-0.8767;0.0117;0.2455;-0.2853;1117.0;-18.96;-22.92;-33.18;32.62;-86.73;1.59;3.1;996.17;67.517;23.031544;72.537895;19.65;NaN;;2.38;9.677419;34.31;20 / 21;47522;2018-06-12 12:18:07:814
0.2155;12.716;2.1836;-0.0512;9.6983;1.4526;0.0967;2.783;0.64;0.0563;-0.2407;0.1851;1669.0;-12.72;-18.12;-37.14;23.14;-81.48;2.02;3.1;996.17;63.367;23.031544;72.537895;19.65;NaN;;2.38;9.677419;34.31;20 / 21;48022;2018-06-12 12:18:08:314
1.8627;10.475;0.0551;0.1973;9.74;1.1244;1.687;-0.7207;-2.0414;0.2194;0.1869;-0.0324;1433.0;-15.66;-19.2;-35.16;15.6;-83.32;-9.95;3.1;996.17;63.22;23.031544;72.537895;19.65;NaN;;2.38;9.677419;34.31;20 / 21;48526;2018-06-12 12:18:08:818
0.3639;7.9298;-0.6512;0.4585;9.7358;1.084;-0.0778;-2.4428;-2.2357;0.0508;0.0195;-0.1124;1358.0;-14.88;-18.78;-37.08;359.08;-83.11;-22.92;3.1;996.16;63.24;23.031544;72.537895;19.65;NaN;;2.38;9.677419;34.31;21 / 21;49024;2018-06-12 12:18:09:316
-1.4318;7.1397;-0.1269;0.0267;9.753;1.0238;-0.1536;-3.2621;-0.8538;-0.2876;-0.0782;0.4447;1155.0;-15.9;-19.92;-34.98;28.54;-84.04;2.36;3.1;996.18;61.078;23.031544;72.537895;19.65;NaN;;2.38;9.677419;34.31;21 / 21;49523;2018-06-12 12:18:09:815
0.0958;5.5763;0.6608;-0.2385;9.7846;0.6122;-0.3721;-3.8181;1.2745;-0.5802;-0.0831;0.5272;791.0;-10.62;-21.66;-35.76;39.77;-86.16;21.28;3.1;996.16;56.123;23.031544;72.537895;19.65;NaN;;2.38;9.677419;34.31;20 / 21;50022;2018-06-12 12:18:10:314
0.6345;8.9546;-0.3208;0.5045;9.7437;0.9882;0.1299;-0.7891;-1.309;0.2848;0.1563;-0.5241;830.0;-16.32;-18.84;-34.74;357.36;-83.5;-27.05;3.1;996.16;55.818;23.031544;72.537895;19.65;NaN;;2.38;9.677419;34.31;20 / 21;50523;2018-06-12 12:18:10:815
-1.2187;10.6473;-1.0798;0.1914;9.7893;0.5509;-1.6591;0.9347;1.5298;0.5285;0.788;-0.5315;759.0;-11.16;-21.36;-36.24;357.76;-86.59;-19.16;3.1;996.15;59.77;23.031544;72.537895;19.65;NaN;;2.38;9.677419;34.31;19 / 19;51022;2018-06-12 12:18:11:314
-0.6656;11.7607;3.1413;-0.0499;9.6758;1.5955;-0.2733;1.1606;2.4077;-0.7873;-0.8693;0.1136;987.0;-8.82;-17.34;-37.8;14.83;-82.44;0.54;3.1;996.16;61.974;23.031544;72.537895;19.65;NaN;;2.38;9.677419;34.31;20 / 21;51522;2018-06-12 12:18:11:814
0.4405;11.8301;0.7853;0.1303;9.6435;1.7766;-0.2093;1.9017;1.2235;0.4784;-0.2377;-0.0214;1175.0;-10.08;-16.26;-38.58;11.17;-79.53;-4.2;3.1;996.16;60.935;23.031544;72.537895;19.65;NaN;;2.38;9.677419;34.31;20 / 21;52023;2018-06-12 12:18:12:315
-0.0503;11.1166;2.0447;-0.1311;9.6216;1.8915;0.0928;1.2771;0.8548;0.1736;-0.1839;0.0739;1051.0;-8.16;-15.9;-39.3;17.18;-78.85;3.97;3.1;996.13;65.192;23.031544;72.537895;19.65;NaN;;2.38;9.677419;34.31;20 / 21;52524;2018-06-12 12:18:12:816
0.1748;9.7543;1.2881;-0.1675;9.5443;2.2469;0.7781;-1.1787;-1.0952;0.1315;0.0476;-0.2443;1080.0;-9.54;-15.24;-39.0;20.91;-76.72;4.26;3.1;996.12;66.125;23.031544;72.537895;19.65;NaN;;2.38;9.677419;34.31;21 / 22;53022;2018-06-12 12:18:13:314
0.7805;7.1134;-0.0144;-0.1134;9.6163;1.9192;0.8939;-2.5029;-1.9336;0.2622;-0.3348;-0.1338;913.0;-11.52;-16.8;-39.42;22.69;-78.69;3.38;3.1;996.12;60.423;23.031544;72.537895;19.65;NaN;;2.38;9.677419;34.31;20 / 20;53522;2018-06-12 12:18:13:814
0.3448;8.5236;2.2841;0.0501;9.497;2.4443;0.2947;-0.9734;-0.1601;0.1082;-0.7972;-0.1497;1136.0;-24.66;-17.64;-32.28;42.04;-75.56;-1.17;3.1;996.15;58.175;23.031544;72.537895;19.65;NaN;;2.38;9.677419;34.31;20 / 20;54024;2018-06-12 12:18:14:316
0.6608;9.0121;3.0575;0.4737;9.4272;2.6598;0.1871;-0.4151;0.3977;-0.0799;-0.9108;-0.3714;1045.0;-33.06;-19.44;-20.76;54.96;-74.01;-10.1;3.1;996.16;53.951;23.031544;72.537895;19.65;NaN;;2.38;9.677419;34.31;21 / 22;54523;2018-06-12 12:18:14:815
4.1445;7.5013;-1.3192;0.8157;9.4534;2.4774;3.3288;-1.9522;-3.7966;0.2665;-1.7074;-0.2175;941.0;-38.16;-24.12;1.02;83.48;-74.58;-18.23;3.1;996.14;62.995;23.031544;72.537895;19.65;NaN;;2.38;9.677419;34.31;21 / 22;55023;2018-06-12 12:18:15:315
0.2706;12.0935;3.6752;0.801;9.6736;1.3965;-0.3485;1.3185;3.2483;-0.4379;-0.7563;0.3085;673.0;-32.64;-27.6;13.92;93.14;-80.71;-27.13;3.1;996.13;53.382;23.031614;72.53793;18.02;NaN;;2.31;9.677419;82.24;20 / 20;55522;2018-06-12 12:18:15:814
0.8955;12.6202;3.0383;0.9207;9.6357;1.5733;-0.9925;3.5376;3.4906;0.2658;-0.1845;0.157;920.0;-29.16;-27.96;20.76;103.6;-79.29;-30.34;3.1;996.15;52.283;23.031614;72.53793;18.02;NaN;;2.31;9.677419;82.24;20 / 20;56023;2018-06-12 12:18:16:315
2.2123;11.0639;2.3727;1.1196;9.6664;1.2156;1.107;0.3345;-0.1358;-0.141;0.1686;0.0971;994.0;-27.3;-26.94;24.54;97.2;-80.3;-42.65;3.1;996.14;52.703;23.031614;72.53793;18.02;NaN;;2.31;9.677419;82.24;20 / 20;56523;2018-06-12 12:18:16:815
0.431;9.4957;2.8109;1.4918;9.4165;2.2965;-0.2396;-1.1036;-0.3882;0.1321;0.4844;-0.3451;1156.0;-29.64;-27.12;20.46;102.44;-73.78;-33.01;3.1;996.12;53.42;23.031614;72.53793;18.02;NaN;;2.31;9.677419;82.24;20 / 20;57023;2018-06-12 12:18:17:315
0.1604;6.5579;1.4677;1.1456;9.5593;1.8649;-1.002;-2.7715;-0.8545;0.1247;0.1875;0.1417;1273.0;-28.2;-25.98;23.4;107.84;-77.21;-30.04;3.1;996.1;65.739;23.031614;72.53793;18.02;NaN;;2.31;9.677419;82.24;20 / 20;57523;2018-06-12 12:18:17:815
1.0774;6.3999;2.5044;0.9443;9.6334;1.5736;-0.8461;-0.9733;0.5956;-1.1233;-0.1631;0.7196;1258.0;-32.58;-24.48;18.42;94.53;-79.21;-30.97;3.1;996.12;51.174;23.031614;72.53793;18.02;NaN;;2.31;9.677419;82.24;20 / 20;58022;2018-06-12 12:18:18:314
1.8436;8.0112;-0.5076;1.1342;9.5742;1.7941;0.7117;-1.4648;-1.7414;0.1076;-1.1472;0.1735;1249.0;-30.0;-24.84;21.42;100.97;-77.5;-32.3;3.1;996.12;51.592;23.031614;72.53793;18.02;NaN;;2.31;9.677419;82.24;21 / 21;58523;2018-06-12 12:18:18:815
1.6664;11.2004;3.4956;1.0298;9.6068;1.6792;0.6366;1.5937;1.8165;-0.491;0.5711;-0.314;1347.0;-32.82;-24.72;19.68;92.33;-80.05;-35.38;3.1;996.12;51.457;23.031614;72.53793;18.02;NaN;;2.31;9.677419;82.24;21 / 21;59023;2018-06-12 12:18:19:315
0.4429;14.0041;2.7726;0.8536;9.5899;1.864;-0.4107;4.4142;0.9086;0.0081;0.0745;-0.0147;1894.0;-33.96;-24.12;14.46;95.63;-77.93;-24.61;3.1;996.14;57.959;23.031614;72.53793;18.02;NaN;;2.31;9.677419;82.24;21 / 21;59522;2018-06-12 12:18:19:814
1.099;13.0632;3.2107;0.7548;9.6904;1.3021;0.3442;3.3727;1.9086;0.2115;0.4306;-0.1472;1856.0;-32.52;-25.56;17.7;94.6;-81.17;-30.1;3.1;996.14;54.516;23.031614;72.53793;18.02;NaN;;2.31;9.677419;82.24;21 / 21;60022;2018-06-12 12:18:20:314
0.4956;11.7798;3.2969;0.7869;9.5431;2.1166;-0.6002;1.7794;1.2713;0.0398;0.5711;-0.2633;2252.0;-32.88;-25.68;13.56;101.93;-76.69;-20.39;3.1;996.15;52.987;23.031614;72.53793;18.02;NaN;;2.31;9.677419;82.24;22 / 22;60523;2018-06-12 12:18:20:815
1.7023;6.7758;-1.846;0.6672;9.6757;1.4512;1.6146;-1.8033;-2.8208;-0.3236;-0.0764;0.1527;2415.0;-30.84;-24.72;18.06;105.2;-80.49;-21.21;3.1;996.15;54.46;23.031614;72.53793;18.02;NaN;;2.31;9.677419;82.24;22 / 22;61023;2018-06-12 12:18:21:315
0.1748;6.759;-1.324;0.3384;9.6161;1.8937;-0.1636;-2.8571;-3.2178;0.5737;0.4691;-0.774;2843.0;-30.84;-26.82;17.04;116.02;-78.69;-10.13;3.1;996.15;57.804;23.031614;72.53793;18.02;NaN;;2.31;9.677419;82.24;19 / 19;61523;2018-06-12 12:18:21:815
-0.3041;6.3233;1.3815;0.3494;9.7047;1.3667;-0.6535;-3.3814;0.0148;0.2182;-0.0544;-0.0244;2778.0;-30.54;-27.42;19.08;112.66;-81.73;-14.34;3.1;996.14;58.083;23.031614;72.53793;18.02;NaN;;2.31;9.677419;82.24;19 / 19;62023;2018-06-12 12:18:22:315
-2.1046;8.1932;2.6385;0.7872;9.7251;0.9862;-0.756;-0.9333;-1.0126;0.41;0.6634;-0.6298;3070.0;-31.74;-24.42;18.06;85.65;-82.61;-38.6;3.1;996.14;56.04;23.031614;72.53793;18.02;NaN;;2.31;9.677419;82.24;21 / 22;62523;2018-06-12 12:18:22:815
2.7271;8.8014;0.7374;1.2135;9.653;1.2319;1.5136;-0.8516;-0.4944;-0.2241;-0.1185;-0.3928;3082.0;-32.64;-23.52;19.5;83.11;-79.84;-44.57;3.1;996.14;51.931;23.031614;72.53793;18.02;NaN;;2.31;9.677419;82.24;21 / 22;63022;2018-06-12 12:18:23:314
1.7718;11.1501;1.3791;1.1095;9.6798;1.114;0.0039;0.7257;1.5341;-0.5203;0.1747;0.295;2849.0;-33.36;-24.18;16.86;77.45;-82.59;-44.61;3.1;996.15;52.63;23.031614;72.53793;18.02;NaN;;2.31;9.677419;82.24;21 / 21;63522;2018-06-12 12:18:23:814
0.8284;13.6857;2.3129;0.8667;9.6972;1.1763;0.2323;4.1489;-0.1827;0.1327;-0.0825;-0.182;3224.0;-34.38;-23.76;14.88;83.04;-81.43;-36.38;3.1;996.17;53.118;23.031614;72.53793;18.02;NaN;;2.31;9.677419;82.24;21 / 21;64022;2018-06-12 12:18:24:314
0.68;13.2044;2.0543;0.6762;9.7335;0.9861;0.2719;3.3369;1.0491;0.4253;0.8674;-0.1112;3322.0;-33.54;-23.58;16.08;85.28;-83.0;-34.44;3.1;996.18;53.444;23.031572;72.53801;16.52;NaN;;3.46;9.677419;135.07;19 / 20;64530;2018-06-12 12:18:24:822
0.7207;11.028;2.3248;0.5122;9.6492;1.6736;-0.3279;0.9838;0.6536;-0.2448;0.386;0.091;3898.0;-35.58;-25.14;9.78;95.36;-79.72;-17.02;3.1;996.17;55.475;23.031572;72.53801;16.52;172.5146528212774;;3.46;9.677419;135.07;19 / 20;65023;2018-06-12 12:18:25:315
0.5459;8.7918;0.4741;0.4025;9.679;1.5249;0.1433;-0.8872;-1.0509;-0.1801;0.1337;0.2761;4044.0;-32.4;-26.76;15.66;108.25;-80.75;-14.79;3.1;996.18;55.037;23.031572;72.53801;16.52;172.5146528212774;;3.46;9.677419;135.07;21 / 22;65523;2018-06-12 12:18:25:815
0.7877;5.9905;-1.8627;1.1335;9.6661;1.2049;-0.3458;-3.6756;-3.0677;0.5132;-0.1576;-0.0147;3946.0;-36.18;-23.52;13.62;74.08;-80.29;-43.25;3.1;996.17;55.292;23.031572;72.53801;16.52;172.5146528212774;;3.46;9.677419;135.07;21 / 22;66022;2018-06-12 12:18:26:314
-0.6536;7.676;1.8388;0.695;9.7013;1.2537;-1.2241;-2.0348;-0.3487;-0.5038;0.2828;-0.1894;3806.0;-33.0;-25.2;15.36;91.28;-81.59;-29.0;3.1;996.18;53.738;23.031572;72.53801;16.52;172.5146528212774;;3.46;9.677419;135.07;21 / 22;66523;2018-06-12 12:18:26:815
-1.02;9.5412;-1.8604;0.3237;9.6738;1.5754;-1.3269;0.363;-2.6984;1.0044;-0.0043;-0.3885;4146.0;-33.66;-26.94;12.66;105.91;-80.56;-11.61;3.1;996.18;55.947;23.031572;72.53801;16.52;172.5146528212774;;3.46;9.677419;135.07;21 / 22;67022;2018-06-12 12:18:27:314
1.9753;11.1621;-0.2299;0.4189;9.7043;1.3496;1.5564;1.4578;-1.5795;-0.3359;-0.7184;-0.2963;4283.0;-33.24;-26.34;15.96;104.22;-81.71;-17.24;3.1;996.18;54.942;23.031572;72.53801;16.52;172.5146528212774;;3.46;9.677419;135.07;20 / 21;67522;2018-06-12 12:18:27:814
0.8356;12.2778;-1.8196;0.4025;9.7354;1.1092;1.0245;4.4651;-6.4939;-1.7463;0.2492;0.7385;4130.0;-32.46;-25.44;15.78;101.3;-83.09;-19.94;3.1;996.18;56.513;23.031572;72.53801;16.52;172.5146528212774;;3.46;9.677419;135.07;20 / 21;68023;2018-06-12 12:18:28:315
2.1405;13.8844;3.8021;1.1258;9.4654;2.3041;0.689;3.9665;1.8548;-0.0268;-0.3244;0.0941;4497.0;-34.2;-25.5;14.28;96.64;-74.84;-26.04;3.1;996.19;56.096;23.031572;72.53801;16.52;172.5146528212774;;3.46;9.677419;135.07;23 / 23;68522;2018-06-12 12:18:28:814
1.3863;13.1398;5.0352;1.0002;9.467;2.3548;0.4029;3.6057;3.583;0.4228;1.0012;-0.3122;4463.0;-32.34;-25.56;14.4;101.56;-74.88;-23.01;3.1;996.18;57.537;23.031572;72.53801;16.52;172.5146528212774;;3.46;9.677419;135.07;23 / 23;69023;2018-06-12 12:18:29:315
1.3599;11.7607;1.9346;0.7752;9.553;2.0759;0.5848;2.2077;-0.1413;0.2518;-0.2517;0.2285;5258.0;-35.04;-25.44;12.9;98.51;-76.94;-20.48;3.1;996.2;58.793;23.031572;72.53801;16.52;172.5146528212774;;3.46;9.677419;135.07;21 / 22;69522;2018-06-12 12:18:29:814
1.6329;8.9235;-0.735;0.4886;9.7408;1.0237;1.2497;-2.0911;-2.5632;0.1571;0.3268;0.0086;3762.0;-32.82;-23.76;17.28;95.99;-83.36;-25.51;3.1;996.2;58.161;23.031572;72.53801;16.52;172.5146528212774;;3.46;9.677419;135.07;21 / 22;70023;2018-06-12 12:18:30:315
1.5539;6.1629;-1.0966;0.8653;9.6299;1.6388;0.6886;-3.4671;-2.7354;0.1846;0.4416;-0.0861;4271.0;-36.78;-22.8;9.36;82.59;-79.11;-27.83;3.1;996.18;58.091;23.031572;72.53801;16.52;172.5146528212774;;3.46;9.677419;135.07;20 / 20;70522;2018-06-12 12:18:30:814
-1.3767;7.2475;-0.5507;0.1725;9.6719;1.611;-2.3704;-0.8274;0.7761;0.7234;0.2009;-0.3122;4723.0;-34.2;-26.76;11.7;109.84;-80.49;-6.11;3.1;996.18;56.406;23.031572;72.53801;16.52;172.5146528212774;;3.46;9.677419;135.07;20 / 20;71022;2018-06-12 12:18:31:314
-1.1301;7.9897;-0.3017;0.3962;9.4721;2.5086;-0.152;-0.1583;-0.2987;1.2469;-0.8155;-0.3671;5315.0;-35.28;-26.1;8.1;104.24;-74.99;-8.97;3.1;996.2;58.641;23.031572;72.53801;16.52;172.5146528212774;;3.46;9.677419;135.07;19 / 20;71523;2018-06-12 12:18:31:815
1.755;8.5907;1.3647;0.4145;9.5879;2.0174;2.0277;-1.0308;-1.3327;-0.3078;-0.931;-0.2724;4461.0;-35.22;-25.74;10.32;102.66;-77.88;-11.61;3.1;996.21;57.501;23.031572;72.53801;16.52;172.5146528212774;;3.46;9.677419;135.07;19 / 20;72022;2018-06-12 12:18:32:314
-1.7167;10.3265;7.4079;0.1608;9.4999;2.4284;-0.3595;1.2193;4.053;-0.6138;0.6951;0.0299;4600.0;-36.0;-27.06;6.78;107.06;-75.63;-3.79;3.1;996.21;59.41;23.031572;72.53801;16.52;172.5146528212774;;3.46;9.677419;135.07;19 / 20;72522;2018-06-12 12:18:32:814
0.589;12.309;0.7877;0.2907;9.6886;1.4891;0.9447;2.3331;-0.8115;0.6904;-0.3568;-0.1503;4428.0;-35.7;-24.18;9.66;100.04;-81.1;-11.05;3.1;996.21;59.628;23.031572;72.53801;16.52;172.5146528212774;;3.46;9.677419;135.07;19 / 20;73022;2018-06-12 12:18:33:314
0.6393;12.625;1.3911;0.3772;9.73;1.1639;0.1926;2.9046;0.4546;-0.232;-0.0104;0.2938;3057.0;-33.6;-26.16;14.22;102.8;-82.52;-14.66;3.1;996.22;62.044;23.031511;72.53814;15.17;172.5146528212774;;4.31;6.451613;119.68;21 / 22;73522;2018-06-12 12:18:33:814
0.8141;11.9402;2.9066;0.3868;9.6783;1.5335;0.4273;2.262;1.3732;0.1009;-0.3592;0.2859;3940.0;-34.92;-25.8;11.16;99.72;-80.72;-14.16;3.1;996.22;59.665;23.031511;72.53814;15.17;172.5146528212774;;4.31;6.451613;119.68;21 / 22;74023;2018-06-12 12:18:34:315
1.3815;11.787;2.5307;0.4912;9.6928;1.4064;1.3836;-0.2402;-0.5971;0.1547;0.0898;-0.0232;3458.0;-31.8;-25.68;17.4;104.68;-81.26;-19.25;3.1;996.21;61.247;23.031511;72.53814;15.17;172.5146528212774;;4.31;6.451613;119.68;20 / 20;74523;2018-06-12 12:18:34:815
-0.2466;11.2962;2.6193;0.7914;9.5751;1.9651;-0.2048;-0.8001;-2.1519;0.1492;0.2859;-0.3079;4313.0;-33.84;-26.28;14.34;99.11;-77.52;-21.94;3.1;996.21;58.058;23.031511;72.53814;15.17;172.5146528212774;;4.31;6.451613;119.68;20 / 20;75022;2018-06-12 12:18:35:314
-1.3073;6.9793;-0.0239;0.4597;9.7549;0.8947;-0.1653;-3.1874;-2.4198;0.2457;-0.1161;0.2718;3754.0;-31.2;-26.28;18.72;106.39;-82.7;-20.02;3.1;996.2;59.089;23.031511;72.53814;15.17;172.5146528212774;;4.31;6.451613;119.68;21 / 22;75522;2018-06-12 12:18:35:814
0.3232;5.2866;-0.1389;0.5155;9.7019;1.333;-0.1923;-4.4154;-1.4719;-0.1654;-0.2212;0.2724;3984.0;-34.32;-25.38;14.88;98.2;-81.62;-21.14;3.1;996.2;58.665;23.031511;72.53814;15.17;172.5146528212774;;4.31;6.451613;119.68;21 / 22;76022;2018-06-12 12:18:36:314
-1.9777;8.7607;3.0407;0.4958;9.699;1.3612;-2.0186;0.2157;2.4792;0.3807;0.5864;-0.89;3729.0;-32.7;-25.92;16.8;102.95;-81.5;-20.01;3.1;996.19;59.179;23.031511;72.53814;15.17;172.5146528212774;;4.31;6.451613;119.68;19 / 20;76523;2018-06-12 12:18:36:815
-0.7422;10.1326;-0.3017;0.7183;9.636;1.6739;-0.5675;0.9659;-0.175;0.9408;0.0146;-0.3317;3157.0;-33.42;-25.92;15.72;100.04;-79.3;-23.23;3.1;996.19;59.019;23.031511;72.53814;15.17;172.5146528212774;;4.31;6.451613;119.68;19 / 20;77022;2018-06-12 12:18:37:314
2.2386;9.7615;1.6928;0.157;9.6934;1.4773;2.0817;0.068;0.2154;0.0276;-0.8565;-0.0031;3830.0;-34.5;-25.98;13.08;110.52;-81.29;-6.06;3.1;996.18;55.693;23.031511;72.53814;15.17;172.5146528212774;;4.31;6.451613;119.68;20 / 21;77522;2018-06-12 12:18:37:814
0.8524;12.1964;-0.1269;-0.0278;9.7377;1.1605;0.3031;3.019;-2.4654;-1.2424;-0.0275;0.485;3088.0;-32.04;-28.08;16.5;123.56;-83.2;1.37;3.1;996.19;54.875;23.031511;72.53814;15.17;172.5146528212774;;4.31;6.451613;119.68;20 / 21;78022;2018-06-12 12:18:38:314
1.1397;12.1964;3.4358;0.4699;9.6151;1.8707;0.6698;2.5814;1.5651;0.2897;-0.3085;0.1998;3274.0;-35.58;-25.68;9.72;99.16;-78.66;-14.1;3.1;996.18;55.172;23.031511;72.53814;15.17;172.5146528212774;;4.31;6.451613;119.68;19 / 20;78522;2018-06-12 12:18:38:814
1.0942;12.9842;3.4645;0.6418;9.6483;1.6339;1.2353;0.4388;-0.238;-0.6706;0.1808;0.121;2623.0;-32.04;-25.86;16.92;103.6;-79.69;-21.44;3.1;996.18;55.263;23.031511;72.53814;15.17;172.5146528212774;;4.31;6.451613;119.68;19 / 20;79023;2018-06-12 12:18:39:315
-0.6225;11.8732;2.8444;0.2156;9.6114;1.9351;-0.8381;2.2618;0.9093;0.253;0.2284;0.2505;3454.0;-33.96;-26.64;11.34;109.48;-78.55;-6.36;3.1;996.19;55.342;23.031511;72.53814;15.17;172.5146528212774;;4.31;6.451613;119.68;19 / 21;79526;2018-06-12 12:18:39:818
1.1756;6.1533;0.5004;0.3461;9.6342;1.7976;0.8294;-3.481;-1.2972;-0.1654;-0.1723;0.2847;2641.0;-33.36;-25.62;15.12;110.53;-79.24;-10.9;3.1;996.18;55.458;23.031511;72.53814;15.17;172.5146528212774;;4.31;6.451613;119.68;19 / 21;80022;2018-06-12 12:18:40:314
0.0335;5.7319;1.3432;0.2948;9.6018;1.9718;-0.2613;-3.8699;-0.6286;0.1993;-0.0935;0.1124;3282.0;-34.8;-25.56;10.92;106.7;-78.27;-8.5;3.1;996.15;55.448;23.031511;72.53814;15.17;172.5146528212774;;4.31;6.451613;119.68;20 / 21;80522;2018-06-12 12:18:40:814
-1.0152;6.9051;0.9218;0.1639;9.6817;1.5519;-0.8271;-0.9497;1.01;0.3544;0.1124;-0.4643;2913.0;-33.78;-27.36;13.44;111.04;-80.84;-6.03;3.1;996.15;56.263;23.031511;72.53814;15.17;172.5146528212774;;4.31;6.451613;119.68;20 / 21;81023;2018-06-12 12:18:41:315
1.6042;8.3105;0.6752;0.8564;9.7591;0.4422;-0.368;-0.6561;-0.4973;-0.3426;-0.4612;0.5742;2518.0;-35.64;-23.04;16.26;54.08;-84.36;-62.69;3.1;996.16;57.085;23.031511;72.53814;15.17;172.5146528212774;;4.31;6.451613;119.68;19 / 21;81523;2018-06-12 12:18:41:815
2.6768;10.0919;-0.3903;0.4853;9.7259;1.1583;1.8012;0.184;-0.4041;-0.185;-1.2059;0.0483;2005.0;-31.74;-26.46;9.84;90.37;-82.64;-22.73;3.1;996.17;57.22;23.031511;72.53814;15.17;172.5146528212774;;4.31;6.451613;119.68;19 / 21;82023;2018-06-12 12:18:42:315
0.3472;11.7607;5.4542;0.2623;9.7309;1.1877;0.1471;2.7073;1.8865;-0.4434;0.4459;0.4264;2538.0;-29.4;-27.48;12.72;107.38;-82.88;-12.45;3.1;996.16;57.07;23.031452;72.53824;14.03;172.5146528212774;;4.59;6.451613;123.95;21 / 21;82523;2018-06-12 12:18:42:815
1.0774;12.2515;1.7526;0.6792;9.7465;0.8451;-0.6074;3.5321;-2.7103;0.4796;-0.4563;-0.1436;2924.0;-31.2;-25.14;13.86;80.2;-83.65;-38.79;3.1;996.16;57.885;23.031452;72.53824;14.03;172.5146528212774;;4.59;6.451613;123.95;21 / 21;83022;2018-06-12 12:18:43:314
-0.1556;13.1422;1.0918;0.4848;9.7635;0.7806;-0.6404;3.3787;0.3111;0.5065;0.0042;-0.0519;2562.0;-33.78;-25.92;18.6;90.95;-84.62;-31.84;3.1;996.15;58.247;23.031452;72.53824;14.03;172.5146528212774;;4.59;6.451613;123.95;20 / 20;83522;2018-06-12 12:18:43:814
0.8883;9.3712;2.2554;0.8262;9.3654;2.7886;0.4763;0.2667;-2.3552;-0.3267;-0.8076;0.0238;3172.0;-36.0;-26.46;11.7;105.77;-72.39;-13.96;3.1;996.16;59.124;23.031452;72.53824;14.03;172.5146528212774;;4.59;6.451613;123.95;20 / 20;84023;2018-06-12 12:18:44:315
0.9888;8.4733;1.099;0.4668;9.013;3.8364;0.2108;-1.3082;-2.3855;0.3599;-0.0391;-0.0696;4030.0;-32.76;-29.76;9.96;116.97;-66.79;-6.94;3.1;996.15;59.606;23.031452;72.53824;14.03;172.5146528212774;;4.59;6.451613;123.95;20 / 20;84522;2018-06-12 12:18:44:814
1.1684;6.1389;-0.1413;0.3795;9.0901;3.66;0.4322;-3.1188;-3.2506;0.2884;-0.2316;0.1826;3509.0;-34.26;-29.52;11.1;117.44;-67.96;-5.92;3.1;996.16;58.947;23.031452;72.53824;14.03;172.5146528212774;;4.59;6.451613;123.95;20 / 20;85022;2018-06-12 12:18:45:314
-0.656;6.2515;1.6904;0.1722;9.2564;3.2341;-0.8282;-3.0049;-1.5438;0.2579;-0.1527;0.0971;2361.0;-31.56;-29.88;12.9;122.2;-70.72;-3.05;3.1;996.17;59.654;23.031452;72.53824;14.03;172.5146528212774;;4.59;6.451613;123.95;20 / 20;85523;2018-06-12 12:18:45:815
-1.2953;7.3145;2.1189;0.2655;9.3361;2.9895;-1.5608;-2.0216;-0.8706;-0.3157;0.1588;0.1228;2415.0;-32.4;-29.22;13.08;119.27;-72.18;-5.08;3.1;996.16;58.52;23.031452;72.53824;14.03;172.5146528212774;;4.59;6.451613;123.95;20 / 20;86022;2018-06-12 12:18:46:314
2.7103;9.115;2.4685;0.4569;9.2764;3.1479;2.6294;-0.736;0.3812;-0.4806;-0.9347;-0.135;2566.0;-32.94;-29.52;12.66;116.77;-71.07;-8.26;3.1;996.16;58.029;23.031452;72.53824;14.03;172.5146528212774;;4.59;6.451613;123.95;19 / 20;86523;2018-06-12 12:18:46:815
-0.4214;11.6553;4.3265;0.5106;9.4128;2.7035;0.0784;2.5825;0.0164;-0.4324;-0.0831;0.0104;2469.0;-31.14;-29.28;16.26;117.9;-73.71;-10.7;3.1;996.16;58.762;23.031452;72.53824;14.03;172.5146528212774;;4.59;6.451613;123.95;19 / 20;87023;2018-06-12 12:18:47:315
1.1133;11.6194;3.3999;0.4792;9.4517;2.5703;0.1936;1.8804;0.7506;0.1614;0.146;0.0257;2672.0;-34.32;-28.56;14.22;116.06;-73.05;-7.66;3.1;996.14;59.343;23.031452;72.53824;14.03;172.5146528212774;;4.59;6.451613;123.95;22 / 22;87523;2018-06-12 12:18:47:815
-0.316;11.2507;3.2538;0.3171;9.4478;2.6095;-0.2285;2.198;0.7329;0.3294;0.3824;0.0696;2792.0;-34.38;-28.98;11.76;113.49;-74.45;-6.93;3.1;996.15;62.017;23.031452;72.53824;14.03;172.5146528212774;;4.59;6.451613;123.95;22 / 22;88022;2018-06-12 12:18:48:314
1.1828;10.1445;3.1796;0.2844;9.2067;3.3654;-0.179;1.1294;-0.7748;0.1748;0.2364;0.0929;2879.0;-36.66;-28.08;5.28;106.99;-69.85;-4.83;3.1;996.14;60.988;23.031452;72.53824;14.03;172.5146528212774;;4.59;6.451613;123.95;21 / 21;88522;2018-06-12 12:18:48:814
0.6872;7.4223;0.6369;0.236;8.9723;3.9512;0.1184;-2.0122;-3.9775;0.107;-0.3763;0.0959;2929.0;-31.98;-31.14;11.1;122.56;-66.19;-3.42;3.1;996.13;64.006;23.031452;72.53824;14.03;172.5146528212774;;4.59;6.451613;123.95;21 / 21;89022;2018-06-12 12:18:49:314
0.6896;7.0224;1.2091;0.5162;8.9777;3.9122;0.1734;-1.9553;-2.7031;0.0252;0.4844;-0.1313;2432.0;-35.1;-28.74;9.78;114.69;-66.27;-7.52;3.1;996.15;64.113;23.031452;72.53824;14.03;172.5146528212774;;4.59;6.451613;123.95;20 / 20;89522;2018-06-12 12:18:49:814
-0.9146;6.2491;2.3272;0.0635;9.212;3.3623;-1.1744;-2.5799;-1.0949;-0.243;-0.2768;0.306;2182.0;-34.14;-30.48;12.36;121.48;-69.94;-1.08;3.1;996.15;61.291;23.031452;72.53824;14.03;172.5146528212774;;4.59;6.451613;123.95;20 / 20;90022;2018-06-12 12:18:50:314
-0.4405;7.0272;4.3719;0.2354;9.193;3.4065;-0.7981;-1.1961;-0.0904;-0.8612;0.1954;0.3335;1770.0;-36.6;-28.74;8.82;113.25;-69.62;-3.95;3.1;996.13;57.857;23.031452;72.53824;14.03;172.5146528212774;;4.59;6.451613;123.95;20 / 20;90523;2018-06-12 12:18:50:815
2.4278;8.4446;3.1916;0.5081;8.9118;4.0611;2.1878;-0.5486;-0.144;-0.1581;-0.8992;-0.201;1853.0;-36.0;-29.58;9.06;114.22;-65.33;-7.13;3.1;996.14;55.798;23.031452;72.53824;14.03;172.5146528212774;;4.59;6.451613;123.95;20 / 20;91022;2018-06-12 12:18:51:314
0.4166;8.131;7.36;0.3956;8.7029;4.5026;0.021;-0.5719;2.8574;0.1718;-0.5107;0.3561;2004.0;-35.46;-31.32;7.98;117.66;-62.55;-5.02;3.1;996.12;55.804;23.03141;72.538345;12.93;172.5146528212774;;4.29;6.451613;114.66;21 / 21;91523;2018-06-12 12:18:51:815
-1.0128;11.0185;5.3297;-0.0473;9.3401;2.9884;-1.2265;3.3328;2.2719;-0.0249;0.072;0.2334;2304.0;-34.98;-30.3;12.9;122.37;-72.26;0.91;3.1;996.12;54.913;23.03141;72.538345;12.93;174.59223615776867;;4.29;6.451613;114.66;21 / 21;92023;2018-06-12 12:18:52:315
-0.0407;11.1549;4.9466;0.5821;9.2228;3.2818;-1.4249;2.1332;2.4956;0.3721;-0.0465;0.0819;2253.0;-34.44;-32.22;14.88;117.99;-70.13;-10.06;3.1;996.12;53.548;23.03141;72.538345;12.93;174.59223615776867;;4.29;6.451613;114.66;21 / 21;92523;2018-06-12 12:18:52:815
2.0734;10.7527;5.7487;0.8328;8.9805;3.8506;0.4242;0.7905;1.0433;-0.4819;-0.581;0.2786;2113.0;-36.54;-30.66;11.28;111.47;-66.31;-12.2;3.1;996.1;54.13;23.03141;72.538345;12.93;174.59223615776867;;4.29;6.451613;114.66;21 / 21;93026;2018-06-12 12:18:53:318
1.8173;9.783;4.6545;0.1599;8.9047;4.1049;0.8625;-0.7235;-2.448;-0.0952;0.4288;0.0965;1636.0;-33.54;-32.82;10.2;122.27;-65.23;-2.23;3.1;996.11;54.358;23.03141;72.538345;12.93;174.59223615776867;;4.29;6.451613;114.66;19 / 19;93524;2018-06-12 12:18:53:816
-0.3615;8.4757;1.6688;0.1141;9.1527;3.5192;-1.304;0.3837;-0.6485;0.5047;0.3262;-0.0202;1980.0;-35.52;-31.14;8.04;116.5;-67.18;-2.24;3.1;996.11;55.503;23.03141;72.538345;12.93;174.59223615776867;;4.29;6.451613;114.66;19 / 19;94022;2018-06-12 12:18:54:314
0.5196;6.5124;0.0407;0.1024;9.581;2.0889;-0.3442;-3.4206;-2.2349;-0.13;-0.3415;0.1399;985.0;-33.72;-28.92;16.74;121.29;-77.69;-2.81;3.1;996.09;57.172;23.03141;72.538345;12.93;174.59223615776867;;4.29;6.451613;114.66;21 / 21;94522;2018-06-12 12:18:54:814
-0.0623;6.3161;0.9362;0.5144;9.4966;2.3917;-1.1058;-3.0105;0.0529;-0.0891;-0.2132;0.1607;1299.0;-33.96;-27.96;16.56;113.7;-75.55;-12.14;3.1;996.11;55.663;23.03141;72.538345;12.93;174.59223615776867;;4.29;6.451613;114.66;21 / 21;95024;2018-06-12 12:18:55:316
-0.0359;10.4151;4.0367;0.7633;9.544;2.1211;1.4323;0.4425;-1.5273;-0.3255;0.2474;-0.6237;1410.0;-34.44;-28.14;18.3;107.1;-76.71;-19.79;3.1;996.09;55.739;23.03141;72.538345;12.93;174.59223615776867;;4.29;6.451613;114.66;21 / 22;95522;2018-06-12 12:18:55:814
-0.1413;9.4957;4.4581;0.3654;9.5643;2.1356;-1.1627;0.6784;4.5588;-0.2088;0.1857;0.204;975.0;-34.56;-28.08;15.12;111.85;-77.24;-9.71;3.1;996.1;56.205;23.03141;72.538345;12.93;174.59223615776867;;4.29;6.451613;114.66;21 / 22;96022;2018-06-12 12:18:56:314
1.5706;8.5308;2.9258;0.8016;9.5437;2.1083;0.769;-1.0129;0.8175;0.0869;-1.0092;0.4032;870.0;-33.66;-26.88;16.68;104.69;-76.7;-20.82;3.1;996.11;57.907;23.03141;72.538345;12.93;174.59223615776867;;4.29;6.451613;114.66;19 / 19;96522;2018-06-12 12:18:56:814
0.6369;12.6753;2.186;0.7093;9.6076;1.8334;0.6363;2.778;0.319;-0.5246;-0.4502;0.2896;749.0;-35.94;-28.38;14.46;99.49;-79.1;-19.5;3.1;996.12;62.968;23.03141;72.538345;12.93;174.59223615776867;;4.29;6.451613;114.66;19 / 19;97023;2018-06-12 12:18:57:315
2.2889;12.218;2.2291;0.6879;9.4762;2.4287;1.5891;2.3324;1.28;0.2707;-0.1265;-0.0617;796.0;-34.68;-27.0;14.4;106.0;-75.08;-15.81;3.1;996.06;64.377;23.03141;72.538345;12.93;174.59223615776867;;4.29;6.451613;114.66;20 / 20;97528;2018-06-12 12:18:57:820
1.9609;11.7703;2.1836;0.6841;9.6129;1.8148;1.873;0.8357;-1.0295;-0.1612;0.4746;-0.121;704.0;-31.8;-26.58;18.48;106.55;-78.59;-20.65;3.1;996.08;59.694;23.03141;72.538345;12.93;174.59223615776867;;4.29;6.451613;114.66;20 / 20;98023;2018-06-12 12:18:58:315
0.2035;9.3329;1.6018;1.001;9.4902;2.2594;0.086;-1.9195;-1.9578;0.126;0.4532;-0.5095;751.0;-33.06;-25.5;15.36;100.37;-75.4;-23.89;3.1;996.12;59.568;23.03141;72.538345;12.93;174.59223615776867;;4.29;6.451613;114.66;20 / 21;98523;2018-06-12 12:18:58:815
0.237;6.2874;-1.0583;0.4636;9.6642;1.5994;-0.2265;-3.3768;-2.6577;0.2915;0.3396;0.1203;730.0;-32.76;-26.4;17.58;108.66;-80.22;-16.16;3.1;996.09;57.427;23.03141;72.538345;12.93;174.59223615776867;;4.29;6.451613;114.66;20 / 21;99023;2018-06-12 12:18:59:315
0.0335;5.1118;2.7247;0.6005;9.5203;2.2746;-0.5669;-4.4085;0.4501;-0.3878;-0.1167;0.2822;797.0;-35.16;-27.66;13.74;106.64;-76.12;-14.79;3.1;996.12;56.289;23.03141;72.538345;12.93;174.59223615776867;;4.29;6.451613;114.66;19 / 19;99522;2018-06-12 12:18:59:814
-0.9146;8.1788;2.3895;0.4997;9.6253;1.8094;-0.9499;-0.9173;0.2569;0.0068;0.27;-0.4349;825.0;-31.8;-26.94;17.4;110.02;-78.96;-15.44;3.1;996.11;57.289;23.03141;72.538345;12.93;174.59223615776867;;4.29;6.451613;114.66;19 / 19;100023;2018-06-12 12:19:00:315
0.0623;9.4957;0.7829;0.6105;9.46;2.511;-0.5554;0.2176;1.1187;0.9005;-0.4753;-0.3457;851.0;-32.4;-28.86;14.34;111.39;-74.72;-13.66;3.1;996.1;56.29;23.03136;72.53841;11.89;174.59223615776867;;3.77;9.677419;147.58;20 / 21;100522;2018-06-12 12:19:00:814
0.3208;10.0751;6.0264;-0.2625;9.3735;2.8704;-0.7766;3.637;3.8934;-0.5087;0.0348;0.0092;879.0;-29.64;-30.84;11.88;128.8;-72.91;5.23;3.1;996.11;57.313;23.03136;72.53841;11.89;174.59223615776867;;3.77;9.677419;147.58;20 / 21;101023;2018-06-12 12:19:01:315
0.5531;12.9123;2.8229;0.3121;9.3938;2.7981;1.3136;2.7811;-0.6791;-0.5332;-0.11;0.5986;909.0;-30.3;-30.3;13.5;122.97;-74.11;-3.37;3.1;996.1;55.817;23.03136;72.53841;11.89;174.59223615776867;;3.77;9.677419;147.58;19 / 19;101523;2018-06-12 12:19:01:815
0.5722;11.5572;3.838;0.1193;9.4773;2.5172;0.7283;1.996;0.6672;0.1553;-0.5865;0.066;882.0;-32.1;-28.86;11.16;120.76;-75.64;1.81;3.1;996.13;57.721;23.03136;72.53841;11.89;174.59223615776867;;3.77;9.677419;147.58;19 / 19;102023;2018-06-12 12:19:02:315
0.3903;12.2994;4.0104;-0.3392;9.4556;2.578;0.7295;2.8438;1.4324;-0.0078;0.3457;-0.0727;936.0;-30.72;-29.7;11.64;128.65;-74.62;7.5;3.1;996.11;57.08;23.03136;72.53841;11.89;174.59223615776867;;3.77;9.677419;147.58;21 / 21;102523;2018-06-12 12:19:02:815
-1.6113;11.4566;2.7534;-0.1744;9.6085;1.9537;-0.5893;0.5576;-1.3863;0.4442;0.3799;-0.4753;938.0;-31.62;-28.38;13.32;124.45;-78.46;5.1;3.1;996.11;56.434;23.03136;72.53841;11.89;174.59223615776867;;3.77;9.677419;147.58;21 / 21;103024;2018-06-12 12:19:03:316
-0.1963;6.5029;0.0814;-0.0979;9.6293;1.854;-0.8047;-2.7721;-1.0375;0.0368;-0.3397;-0.0403;896.0;-30.3;-28.92;17.7;130.41;-79.09;3.02;3.1;996.11;57.515;23.03136;72.53841;11.89;174.59223615776867;;3.77;9.677419;147.58;21 / 21;103522;2018-06-12 12:19:03:814
-0.4956;5.0735;1.348;0.5192;9.7;1.3456;-1.0148;-4.6265;0.0024;-0.1013;-0.0587;-0.0098;756.0;-31.2;-26.52;19.26;106.31;-81.54;-21.1;3.1;996.12;56.526;23.03136;72.53841;11.89;174.59223615776867;;3.77;9.677419;147.58;21 / 21;104022;2018-06-12 12:19:04:314
-0.3041;9.4981;0.7159;0.001;9.7915;0.5444;0.9351;-0.4131;-0.997;-0.2907;-0.4289;-0.4832;727.0;-27.78;-25.86;22.86;130.97;-86.82;-0.11;3.1;996.09;55.831;23.03136;72.53841;11.89;174.59223615776867;;3.77;9.677419;147.58;19 / 20;104522;2018-06-12 12:19:04:814
-1.6832;11.2124;3.4094;0.5352;9.792;0.0287;-2.3596;2.4452;2.241;-0.6767;0.3976;0.3207;756.0;-29.82;-23.7;23.88;43.12;-86.87;-86.93;3.1;996.1;56.436;23.03136;72.53841;11.89;174.59223615776867;;3.77;9.677419;147.58;19 / 20;105022;2018-06-12 12:19:05:314
1.4677;14.0831;1.3959;0.5475;9.7196;1.1834;0.9202;4.3636;0.2125;-0.4935;-0.2022;-0.1289;1195.0;-30.54;-26.28;18.66;101.96;-82.36;-24.83;3.1;996.1;56.454;23.03136;72.53841;11.89;174.59223615776867;;3.77;9.677419;147.58;21 / 22;105522;2018-06-12 12:19:05:814
-0.4621;13.123;4.7143;0.3085;9.6632;1.6423;-0.3468;3.2874;1.6379;-0.2839;0.5791;-0.1069;1201.0;-27.6;-28.62;20.58;122.74;-80.19;-10.64;3.1;996.11;56.961;23.03136;72.53841;11.89;174.59223615776867;;3.77;9.677419;147.58;21 / 22;106022;2018-06-12 12:19:06:314
-1.1804;11.787;2.9306;0.387;9.6353;1.7836;0.202;-0.5251;-1.9942;-0.1355;0.7629;-0.3329;978.0;-28.8;-28.38;19.5;119.42;-79.27;-12.24;3.1;996.09;57.319;23.03136;72.53841;11.89;174.59223615776867;;3.77;9.677419;147.58;20 / 21;106525;2018-06-12 12:19:06:817
2.1932;8.0136;1.1493;0.3824;9.5918;2.0054;2.0358;-2.8279;-2.0701;-0.9443;-0.3507;0.2199;810.0;-26.04;-28.8;21.12;126.05;-77.98;-10.8;3.1;996.09;58.032;23.03136;72.53841;11.89;174.59223615776867;;3.77;9.677419;147.58;20 / 21;107023;2018-06-12 12:19:07:315
0.7614;5.6409;0.6058;0.5381;9.5169;2.3041;-0.1167;-3.9167;-0.1899;0.2261;-0.3708;-0.0177;1049.0;-30.42;-28.56;18.48;117.56;-76.04;-13.15;3.1;996.09;57.65;23.03136;72.53841;11.89;174.59223615776867;;3.77;9.677419;147.58;20 / 21;107522;2018-06-12 12:19:07:814
-1.7382;8.1597;2.0447;0.0882;9.7069;1.392;-2.1688;-0.0412;2.4939;0.6519;0.3017;0.2462;966.0;-27.06;-28.86;22.86;131.53;-81.82;-3.63;3.1;996.1;56.966;23.03136;72.53841;11.89;174.59223615776867;;3.77;9.677419;147.58;19 / 19;108023;2018-06-12 12:19:08:315
0.9098;8.6194;0.6728;1.0061;9.6221;1.6041;0.033;-0.8782;0.9242;0.3984;0.3323;-0.146;896.0;-29.52;-25.98;22.2;104.73;-79.02;-28.78;3.1;996.1;56.287;23.03136;72.53841;11.89;174.59223615776867;;3.77;9.677419;147.58;19 / 19;108523;2018-06-12 12:19:08:815
0.905;11.143;2.8037;0.4206;9.6058;1.9294;0.4844;1.5372;0.8743;-0.8893;-0.1314;0.2083;950.0;-30.54;-27.42;19.5;117.66;-78.38;-12.3;3.1;996.08;56.999;23.03136;72.53841;11.89;174.59223615776867;;3.77;9.677419;147.58;19 / 19;109023;2018-06-12 12:19:09:315
0.237;11.2794;4.2929;0.3991;9.4574;2.5629;0.494;1.8556;0.0085;-0.2461;0.1759;0.0916;1195.0;-30.72;-28.5;13.86;116.22;-74.66;-8.85;3.1;996.09;57.355;23.0313;72.53848;11.02;174.59223615776867;;3.26;9.677419;121.84;20 / 20;109522;2018-06-12 12:19:09:814
0.6273;10.5731;3.0168;0.3927;9.4713;2.5121;0.2346;1.1018;0.5047;0.016;-0.0648;-0.0458;1441.0;-32.4;-28.5;14.1;115.77;-74.37;-8.57;3.1;996.08;57.356;23.0313;72.53848;11.02;174.59223615776867;;3.26;9.677419;121.84;20 / 20;110024;2018-06-12 12:19:10:316
0.8069;8.5452;1.8915;-0.0246;9.3574;2.9342;0.8314;-0.8122;-1.0427;0.2494;0.565;0.058;1785.0;-30.72;-29.58;13.5;126.18;-72.59;0.48;3.1;996.09;57.222;23.0313;72.53848;11.02;174.59223615776867;;3.26;9.677419;121.84;22 / 23;110524;2018-06-12 12:19:10:816
0.8236;7.3361;-1.2881;0.0424;9.2954;3.1249;0.3382;-1.7845;-4.243;0.4253;0.0629;0.0544;1934.0;-30.84;-29.58;11.82;123.38;-71.42;-0.78;3.1;996.09;56.983;23.0313;72.53848;11.02;174.59223615776867;;3.26;9.677419;121.84;22 / 23;111022;2018-06-12 12:19:11:314
-0.2275;7.1349;1.0966;-0.1167;9.0715;3.7236;-0.8482;-1.0003;1.3977;-0.1288;0.0415;-0.0379;2427.0;-28.56;-31.68;11.16;128.97;-67.67;1.8;3.1;996.1;56.841;23.0313;72.53848;11.02;174.59223615776867;;3.26;9.677419;121.84;19 / 19;111522;2018-06-12 12:19:11:814
-0.8164;9.3951;2.4422;-0.079;8.9677;3.968;-0.9194;-0.3339;0.6242;-0.6382;0.1686;0.0617;2558.0;-28.98;-31.14;10.2;126.44;-65.49;-0.92;3.1;996.09;57.101;23.0313;72.53848;11.02;174.59223615776867;;3.26;9.677419;121.84;19 / 19;112022;2018-06-12 12:19:12:314
0.419;9.024;4.0966;0.1;8.8566;4.2096;0.1586;-0.0337;1.4936;0.1608;-0.2664;-0.1539;2825.0;-29.58;-31.38;9.9;125.67;-64.57;-1.36;3.1;996.08;57.449;23.0313;72.53848;11.02;174.59223615776867;;3.26;9.677419;121.84;21 / 22;112522;2018-06-12 12:19:12:814
0.3304;10.3624;4.8029;-0.2279;8.8805;4.1539;-0.0498;1.1443;2.4088;0.5523;-0.0843;-0.2205;3085.0;-29.58;-31.92;9.36;128.22;-64.9;3.14;3.1;996.08;57.647;23.0313;72.53848;11.02;174.59223615776867;;3.26;9.677419;121.84;21 / 22;113022;2018-06-12 12:19:13:314
0.8021;10.3361;4.3552;-0.1629;9.0776;3.7068;0.6968;1.1316;0.0474;-0.1697;-0.292;0.2669;2644.0;-31.08;-30.48;10.56;126.77;-67.77;2.52;3.1;996.09;58.617;23.0313;72.53848;11.02;174.59223615776867;;3.26;9.677419;121.84;20 / 20;113522;2018-06-12 12:19:13:814
1.6449;10.1254;3.6824;0.2506;9.2104;3.3579;1.3942;0.915;0.3245;0.0979;0.3078;0.2321;2209.0;-29.28;-31.14;14.46;125.95;-69.92;-4.27;3.1;996.1;57.067;23.0313;72.53848;11.02;174.59223615776867;;3.26;9.677419;121.84;20 / 20;114023;2018-06-12 12:19:14:315
0.4142;8.3105;1.0822;0.1892;9.5092;2.3894;0.225;-1.1987;-1.3072;-0.1795;0.2791;-0.193;1737.0;-32.22;-27.78;14.22;118.51;-75.85;-4.53;3.1;996.09;58.439;23.0313;72.53848;11.02;174.59223615776867;;3.26;9.677419;121.84;19 / 19;114522;2018-06-12 12:19:14:814
-1.2043;7.3983;2.9881;0.1752;9.3;3.1064;-0.5703;-1.0206;0.0492;0.363;0.4092;-0.3073;2251.0;-30.12;-30.42;13.14;123.39;-71.5;-3.23;3.1;996.09;57.105;23.0313;72.53848;11.02;174.59223615776867;;3.26;9.677419;121.84;19 / 19;115022;2018-06-12 12:19:15:314
0.7853;8.8325;2.174;0.5367;9.4091;2.7113;-0.4936;-0.931;1.5409;0.4204;0.2321;0.1723;1812.0;-31.86;-28.38;14.7;115.07;-73.63;-11.2;3.1;996.09;55.847;23.0313;72.53848;11.02;174.59223615776867;;3.26;9.677419;121.84;19 / 20;115523;2018-06-12 12:19:15:815
0.9386;7.8532;4.8556;0.4561;9.3091;3.0499;1.5791;-1.5996;-0.3803;-0.2088;-1.3623;0.0141;2077.0;-32.28;-28.68;12.84;118.92;-72.27;-5.42;3.1;996.09;56.176;23.0313;72.53848;11.02;174.59223615776867;;3.26;9.677419;121.84;19 / 20;116023;2018-06-12 12:19:16:315
1.6568;11.8134;1.2498;0.2774;9.4861;2.4713;0.642;2.6026;-0.1872;-0.4385;-0.5413;0.3207;1884.0;-30.36;-29.04;15.6;121.68;-75.31;-6.4;3.1;996.1;57.64;23.0313;72.53848;11.02;174.59223615776867;;3.26;9.677419;121.84;19 / 20;116522;2018-06-12 12:19:16:814
0.9433;12.364;3.9937;-0.1663;9.3611;2.9175;0.6762;2.6725;1.0833;0.2548;-0.57;-0.1326;1882.0;-29.88;-30.18;14.22;129.36;-72.66;3.26;3.1;996.1;57.476;23.0313;72.53848;11.02;174.59223615776867;;3.26;9.677419;121.84;19 / 20;117022;2018-06-12 12:19:17:314
0.2706;11.1573;2.1333;-0.2082;9.4342;2.669;-0.1174;0.5117;-0.6745;0.355;0.4752;-0.1326;2010.0;-26.16;-31.56;18.36;138.73;-74.16;4.46;3.1;996.1;56.956;23.0313;72.53848;11.02;174.59223615776867;;3.26;9.677419;121.84;19 / 20;117523;2018-06-12 12:19:17:815
-0.079;9.8931;2.3703;0.2374;9.5529;2.2037;-0.3164;0.3403;0.1667;0.151;0.562;-0.2749;2071.0;-30.42;-29.16;17.76;123.3;-76.94;-6.15;3.1;996.11;57.008;23.0313;72.53848;11.02;174.59223615776867;;3.26;9.677419;121.84;19 / 20;118022;2018-06-12 12:19:18:314
0.1628;6.1605;0.2777;0.0472;9.505;2.413;0.1156;-3.3446;-2.1352;-0.6242;-0.4001;0.1985;1952.0;-29.22;-28.98;17.94;129.31;-75.75;-1.12;3.1;996.09;56.657;23.031204;72.538605;10.43;174.59223615776867;;3.72;9.677419;125.47;21 / 21;118522;2018-06-12 12:19:18:814
-0.6872;6.6728;3.1844;0.0816;9.3974;2.8021;-0.8143;-0.8283;-1.411;-0.3273;0.5931;0.2266;2446.0;-29.1;-29.16;15.66;127.75;-73.39;-1.67;3.1;996.09;57.71;23.031204;72.538605;10.43;175.91839429626737;;3.72;9.677419;125.47;21 / 21;119022;2018-06-12 12:19:19:314
2.2937;8.459;0.0718;0.3569;9.3949;2.7889;1.2904;-1.1299;-1.3643;0.2463;-1.2407;0.0556;2462.0;-29.58;-29.88;17.76;124.54;-73.34;-7.29;3.1;996.11;56.762;23.031204;72.538605;10.43;175.91839429626737;;3.72;9.677419;125.47;22 / 23;119522;2018-06-12 12:19:19:814
-1.5515;11.5404;5.2913;-0.0127;9.4388;2.6606;-1.5388;2.1016;2.6308;-0.7708;0.1582;-0.0055;2216.0;-26.22;-30.3;17.58;134.63;-74.26;0.27;3.1;996.1;56.99;23.031204;72.538605;10.43;175.91839429626737;;3.72;9.677419;125.47;22 / 23;120022;2018-06-12 12:19:20:314
1.1852;12.1031;1.518;0.2873;9.3449;2.9597;0.7782;2.4205;0.2414;0.862;0.2663;-0.234;2524.0;-28.56;-31.02;15.72;125.77;-72.35;-5.54;3.1;996.1;57.407;23.031204;72.538605;10.43;175.91839429626737;;3.72;9.677419;125.47;21 / 23;120525;2018-06-12 12:19:20:817
0.4573;11.6146;2.9881;0.0189;9.5108;2.3903;0.5869;1.6297;1.9505;-0.0035;0.2168;0.1741;2000.0;-27.84;-30.0;18.42;131.11;-75.89;-0.45;3.1;996.1;57.711;23.031204;72.538605;10.43;175.91839429626737;;3.72;9.677419;125.47;21 / 23;121022;2018-06-12 12:19:21:314
-1.099;10.2092;1.3049;-0.0834;9.5291;2.3149;-1.0156;0.6801;-1.0101;0.0838;0.4013;-0.1625;2235.0;-29.22;-30.06;18.0;132.08;-76.34;2.06;3.1;996.11;58.187;23.031204;72.538605;10.43;175.91839429626737;;3.72;9.677419;125.47;20 / 23;121523;2018-06-12 12:19:21:815
-1.1828;6.7926;-0.2658;-0.4525;9.7115;1.2854;0.0623;-3.1775;-2.3221;0.3135;-0.1741;0.4148;2597.0;-27.18;-30.24;20.34;146.29;-79.45;14.98;3.1;996.12;56.932;23.031204;72.538605;10.43;175.91839429626737;;3.72;9.677419;125.47;20 / 23;122023;2018-06-12 12:19:22:315
-0.1772;5.8109;1.5156;0.0351;9.6484;1.7544;-0.6074;-3.7896;0.7309;-0.5539;-0.022;0.3286;2175.0;-29.58;-28.14;19.02;127.26;-79.69;-1.15;3.1;996.1;57.013;23.031204;72.538605;10.43;175.91839429626737;;3.72;9.677419;125.47;20 / 23;122522;2018-06-12 12:19:22:814
0.8715;9.0097;1.324;-0.0408;9.6511;1.7391;1.8365;-0.8186;-1.8445;-0.4061;-0.8076;-0.0428;2458.0;-29.88;-29.46;18.6;129.7;-79.78;1.34;3.1;996.11;57.508;23.031204;72.538605;10.43;175.91839429626737;;3.72;9.677419;125.47;20 / 23;123022;2018-06-12 12:19:23:314
-2.4709;12.6825;6.3113;-0.229;9.6717;1.6049;0.1763;3.1329;-0.9728;-0.6376;-0.1075;0.2358;2678.0;-30.42;-29.16;16.62;133.13;-80.48;8.12;3.1;996.11;57.86;23.031204;72.538605;10.43;175.91839429626737;;3.72;9.677419;125.47;20 / 20;123522;2018-06-12 12:19:23:814
-0.407;12.7591;0.668;-0.183;9.7203;1.2851;-0.3533;3.6517;-1.1941;0.0502;0.0232;-0.2584;2703.0;-30.48;-27.36;18.3;124.7;-81.46;-1.42;3.1;996.09;56.58;23.031204;72.538605;10.43;175.91839429626737;;3.72;9.677419;125.47;20 / 20;124022;2018-06-12 12:19:24:314
-0.1293;11.1884;2.3416;-0.3806;9.5887;2.0202;0.0909;2.0402;-0.112;0.0447;0.1948;0.0446;3096.0;-29.52;-30.36;16.5;137.23;-77.45;10.92;3.1;996.11;57.66;23.031204;72.538605;10.43;175.91839429626737;;3.72;9.677419;125.47;19 / 20;124522;2018-06-12 12:19:24:814
-0.9433;10.2092;2.5906;-0.359;9.5685;2.1177;-0.5844;0.6407;0.4729;0.6354;0.4416;-0.1778;3707.0;-30.84;-29.64;13.98;131.64;-77.35;9.62;3.1;996.1;57.173;23.031204;72.538605;10.43;175.91839429626737;;3.72;9.677419;125.47;19 / 20;125023;2018-06-12 12:19:25:315
-0.3089;6.3807;-0.8859;-0.901;9.6739;1.3318;-0.7151;-2.7305;-1.6215;0.2915;-0.2193;-0.0031;3236.0;-27.54;-29.76;19.08;160.75;-80.56;34.08;3.1;996.11;57.128;23.031204;72.538605;10.43;175.91839429626737;;3.72;9.677419;125.47;19 / 19;125523;2018-06-12 12:19:25:815
-1.0631;6.8835;2.0974;-0.3043;9.6573;1.6777;-0.3374;-2.0674;-1.1438;-0.1508;-0.1222;0.1527;3425.0;-30.6;-30.12;17.46;134.65;-79.99;10.28;3.1;996.12;57.129;23.031204;72.538605;10.43;175.91839429626737;;3.72;9.677419;125.47;19 / 19;126023;2018-06-12 12:19:26:315
-0.5196;10.6545;3.0072;-0.0517;9.6665;1.6511;-0.4679;0.988;1.3561;0.0869;-0.1717;0.3396;3391.0;-31.02;-27.18;17.46;126.16;-80.3;1.79;3.1;996.11;55.923;23.031204;72.538605;10.43;175.91839429626737;;3.72;9.677419;125.47;19 / 19;126523;2018-06-12 12:19:26:815
-1.2354;10.7982;2.6193;-0.579;9.5571;2.1204;-0.6564;1.241;0.499;0.4735;3.0372;0.358;3568.0;-37.26;-21.42;-8.22;100.03;-77.05;15.27;3.1;996.11;57.459;23.031204;72.538605;10.43;175.91839429626737;;3.72;9.677419;125.47;19 / 19;127023;2018-06-12 12:19:27:315
-0.6345;9.9003;3.5172;-1.9964;9.3744;2.075;0.7945;0.6074;2.1772;-0.1043;2.3304;0.5773;1916.0;6.48;-14.1;-40.02;40.49;-72.93;43.89;3.1;996.1;57.905;23.03114;72.53869;9.86;175.91839429626737;;2.42;9.677419;141.99;21 / 22;127523;2018-06-12 12:19:27:815
0.5698;9.3784;0.9649;0.2745;9.5534;2.1972;0.2953;-0.175;-1.2324;0.0081;0.0207;0.2523;2681.0;26.16;-15.84;-31.38;308.07;-76.95;-7.12;3.1;996.12;61.41;23.03114;72.53869;9.86;175.91839429626737;;2.42;9.677419;141.99;21 / 22;128024;2018-06-12 12:19:28:316
0.7566;6.7447;0.8476;0.4468;9.5488;2.1887;0.3097;-2.8042;-1.3411;0.209;0.0458;0.0971;3526.0;26.52;-17.46;-28.98;299.88;-76.83;-11.54;3.1;996.15;58.789;23.03114;72.53869;9.86;175.91839429626737;;2.42;9.677419;141.99;20 / 22;128523;2018-06-12 12:19:28:815
0.3089;9.2371;2.0687;0.1142;9.663;1.6685;1.3224;-0.4474;-1.2448;0.0129;-0.278;-0.3616;3846.0;28.2;-18.6;-27.48;305.73;-80.18;-3.91;3.1;996.14;59.354;23.03114;72.53869;9.86;175.91839429626737;;2.42;9.677419;141.99;20 / 22;129023;2018-06-12 12:19:29:315
-0.656;10.3433;5.0423;0.0716;9.6459;1.7669;-0.3158;2.1866;0.8836;-0.8869;-0.0177;0.204;3043.0;28.14;-18.06;-28.26;308.5;-79.61;-2.32;3.1;996.15;62.809;23.03114;72.53869;9.86;175.91839429626737;;2.42;9.677419;141.99;20 / 21;129523;2018-06-12 12:19:29:815
-0.4789;13.7024;2.7558;-0.0669;9.5875;2.0607;-0.4119;4.115;0.6951;0.5004;0.5235;-0.201;4082.0;30.48;-18.54;-25.32;306.24;-77.86;1.86;3.1;996.14;60.961;23.03114;72.53869;9.86;175.91839429626737;;2.42;9.677419;141.99;20 / 21;130023;2018-06-12 12:19:30:315
1.1421;12.1509;4.0822;0.448;9.5004;2.3901;0.5576;3.0624;0.6507;0.7527;0.3164;-0.0892;3349.0;27.6;-17.28;-28.56;300.22;-75.06;-9.39;3.1;996.15;61.192;23.03114;72.53869;9.86;175.91839429626737;;2.42;9.677419;141.99;22 / 24;130523;2018-06-12 12:19:30:815
-0.7231;11.7942;3.2969;0.4256;9.5586;2.1497;-0.8374;1.9554;0.3834;0.209;0.4111;-0.0684;3148.0;29.16;-18.66;-25.98;294.3;-77.09;-11.2;3.1;996.13;60.657;23.03114;72.53869;9.86;175.91839429626737;;2.42;9.677419;141.99;22 / 24;131024;2018-06-12 12:19:31:316
1.2067;7.281;-0.5363;-0.0685;9.7478;1.0706;-0.2308;-3.0342;-1.1712;-0.1416;-0.4075;0.2425;2098.0;26.4;-19.68;-26.58;317.3;-83.72;3.66;3.1;996.11;56.013;23.03114;72.53869;9.86;175.91839429626737;;2.42;9.677419;141.99;20 / 21;131522;2018-06-12 12:19:31:814
0.589;5.7606;0.1604;0.2519;9.7502;1.0203;0.5646;-3.8602;-2.2965;0.5542;0.0947;-0.0819;2427.0;27.3;-20.88;-26.58;299.41;-83.36;-12.23;3.1;996.11;56.043;23.03114;72.53869;9.86;175.91839429626737;;2.42;9.677419;141.99;20 / 21;132023;2018-06-12 12:19:32:315
0.0192;9.3233;2.8348;0.2668;9.6292;1.8378;-1.0905;-1.2253;1.1742;0.1516;0.4777;-0.4618;2527.0;25.08;-18.84;-29.46;298.16;-79.34;-15.95;3.1;996.11;56.505;23.03114;72.53869;9.86;175.91839429626737;;2.42;9.677419;141.99;20 / 21;132523;2018-06-12 12:19:32:815
-0.4597;9.5939;-1.4174;0.4483;9.6729;1.5503;-0.8984;-0.1461;-1.5742;1.0972;0.0171;-0.2871;2528.0;24.78;-19.5;-28.74;298.62;-80.53;-16.13;3.1;996.13;56.984;23.03114;72.53869;9.86;175.91839429626737;;2.42;9.677419;141.99;20 / 21;133023;2018-06-12 12:19:33:315
-0.2586;11.4303;5.4733;0.2337;9.7138;1.3254;-0.1666;2.734;2.6875;-0.5545;-0.2749;-0.0611;2416.0;24.9;-19.44;-29.28;305.79;-82.11;-10.0;3.1;996.13;57.591;23.03114;72.53869;9.86;175.91839429626737;;2.42;9.677419;141.99;19 / 21;133523;2018-06-12 12:19:33:815
0.3544;13.2595;4.3528;0.0196;9.7133;1.3499;-0.1657;4.3172;1.9255;-0.3969;0.6823;0.2761;2300.0;26.28;-19.14;-28.38;313.14;-82.09;-0.83;3.1;996.15;56.202;23.03114;72.53869;9.86;175.91839429626737;;2.42;9.677419;141.99;19 / 21;134023;2018-06-12 12:19:34:315
2.4134;11.7487;2.5307;0.2637;9.6344;1.8109;2.1498;2.1143;0.7198;0.2347;-0.4753;0.1833;2884.0;28.38;-18.48;-28.02;302.08;-79.24;-8.28;3.1;996.13;56.53;23.03114;72.53869;9.86;175.91839429626737;;2.42;9.677419;141.99;19 / 19;134523;2018-06-12 12:19:34:815
0.589;12.613;3.3137;0.1759;9.5985;2.0019;0.8488;2.4662;2.133;0.1583;0.438;-0.2566;2853.0;25.74;-17.52;-30.48;309.28;-78.17;-5.02;3.1;996.16;55.891;23.03114;72.53869;9.86;175.91839429626737;;2.42;9.677419;141.99;19 / 19;135023;2018-06-12 12:19:35:315
-0.3903;9.692;0.8691;0.0145;9.6436;1.7805;-0.1438;-0.8279;-1.2801;0.0667;0.4215;-0.1582;3344.0;26.34;-18.72;-29.1;313.46;-79.54;-0.47;3.1;996.15;56.965;23.03114;72.53869;9.86;175.91839429626737;;2.42;9.677419;141.99;21 / 21;135524;2018-06-12 12:19:35:816
-0.9146;6.0455;-0.0599;-0.1945;9.6668;1.6386;-1.0649;-3.2094;-0.8892;0.6653;0.0739;-0.226;3237.0;25.98;-18.54;-27.9;320.41;-80.31;6.77;3.1;996.16;54.981;23.03114;72.53869;9.86;175.91839429626737;;2.42;9.677419;141.99;21 / 21;136023;2018-06-12 12:19:36:315
0.5818;5.3488;0.7398;0.2436;9.597;2.0022;0.3383;-4.2482;-1.2624;-0.0207;-0.7147;0.3861;3312.0;28.38;-19.02;-26.94;301.48;-78.13;-6.94;3.1;996.16;55.571;23.03114;72.53869;9.86;175.91839429626737;;2.42;9.677419;141.99;20 / 21;136522;2018-06-12 12:19:36:814
-1.585;9.9482;3.7135;0.2565;9.7092;1.355;-0.515;0.1313;1.183;0.1986;0.5815;-0.6683;2586.0;26.22;-20.82;-28.98;303.49;-81.92;-10.72;3.1;996.16;55.318;23.03114;72.53869;9.86;175.91839429626737;;2.42;9.677419;141.99;20 / 21;137022;2018-06-12 12:19:37:314
-1.846;12.4071;5.9091;0.1264;9.7482;1.0619;-0.2677;3.0061;0.844;-0.4806;1.0836;-0.2578;2645.0;27.12;-20.82;-25.26;302.84;-83.74;-6.79;3.1;996.15;54.607;23.03118;72.53861;9.17;175.91839429626737;;2.45;6.451613;314.91;20 / 21;137522;2018-06-12 12:19:37:814
0.1317;10.6018;3.1365;0.1083;9.4071;2.7684;0.1024;0.7781;1.1918;0.198;-0.1644;0.1234;4818.0;29.4;-18.0;-27.42;303.27;-73.59;-2.24;3.1;996.15;54.238;23.03118;72.53861;9.17;175.91839429626737;;2.45;6.451613;314.91;20 / 21;138023;2018-06-12 12:19:38:315