sep=;
ACCELEROMETER X (m/s²);ACCELEROMETER Y (m/s²);ACCELEROMETER Z (m/s²);GRAVITY X (m/s²);GRAVITY Y (m/s²);GRAVITY Z (m/s²);LINEAR ACCELERATION X (m/s²);LINEAR ACCELERATION Y (m/s²);LINEAR ACCELERATION Z (m/s²);GYROSCOPE X (rad/s);GYROSCOPE Y (rad/s);GYROSCOPE Z (rad/s);LIGHT (lux);MAGNETIC FIELD X (μT);MAGNETIC FIELD Y (μT);MAGNETIC FIELD Z (μT);ORIENTATION Z (azimuth °);ORIENTATION X (pitch °);ORIENTATION Y (roll °);PROXIMITY (i);ATMOSPHERIC PRESSURE (hPa);SOUND LEVEL (dB);LOCATION Latitude : ;LOCATION Longitude : ;LOCATION Altitude ( m);LOCATION Altitude-google ( m);LOCATION Altitude-atmospheric pressure ( m);LOCATION Speed ( Kmh);LOCATION Accuracy ( m);LOCATION ORIENTATION (°);Satellites in range;Time since start in ms ;YYYY-MO-DD HH-MI-SS_SSS
0.4884;8.6361;3.8739;0.5758;8.8763;4.1291;-0.0874;-0.2402;-0.2552;-0.232;0.2663;0.1655;2088.0;-6.06;-35.94;26.46;165.87;-64.84;-7.94;8.0;996.36;64.635;23.031288;72.53713;-6.29;165.5411911965045;;4.22;9.677419;157.77;0 / 8;15;2018-06-12 12:16:09:089
-0.7781;11.4542;2.7414;0.7786;9.1031;3.5633;0.3228;-0.7543;-0.5537;1.0288;1.1967;-0.0257;2286.0;-8.34;-33.48;27.06;158.89;-68.17;-12.33;8.0;996.34;60.7;23.031288;72.53713;-6.29;165.5411911965045;;4.22;9.677419;157.77;0 / 9;516;2018-06-12 12:16:09:590
1.2019;9.5963;-0.1796;1.0086;9.6919;1.1042;0.1934;-0.0957;-1.2838;0.1229;-0.2987;-0.259;1257.0;-16.02;-28.08;32.4;116.92;-81.23;-42.41;8.0;996.34;60.532;23.031288;72.53713;-6.29;165.5411911965045;;4.22;9.677419;157.77;0 / 9;1016;2018-06-12 12:16:10:090
0.8332;9.036;-1.2929;0.537;9.7303;1.0969;-0.6903;0.0575;-1.3148;-0.086;0.3989;-0.135;1628.0;-12.84;-28.92;31.56;135.78;-82.85;-26.08;8.0;996.35;71.579;23.031284;72.53736;154.82;165.5411911965045;;2.92;103.22581;173.95;9 / 9;1516;2018-06-12 12:16:10:590
0.182;11.8732;2.6122;0.1974;9.62;1.8938;-0.0155;2.2532;0.7184;0.0814;-0.248;0.2279;1850.0;-14.76;-32.04;28.86;151.47;-78.8;-5.95;8.0;996.35;70.877;23.031284;72.53736;154.82;167.52329421789003;;2.92;103.22581;173.95;9 / 9;2016;2018-06-12 12:16:11:090
-0.656;11.4111;0.0838;0.151;9.7355;1.1696;-0.1821;0.0475;-1.1887;0.1021;0.138;-0.2388;1574.0;-12.36;-29.4;31.8;154.45;-83.09;-7.36;8.0;996.35;51.986;23.031284;72.53736;154.82;167.52329421789003;;2.92;103.22581;173.95;9 / 9;2515;2018-06-12 12:16:11:589
-0.3256;7.7694;2.344;0.3554;9.74;1.0842;-0.7218;-2.0209;1.2358;0.363;0.3555;0.0415;779.0;-15.96;-28.2;30.06;132.53;-83.02;-23.43;8.0;996.34;44.331;23.031284;72.53736;154.82;167.52329421789003;;2.92;103.22581;173.95;9 / 9;3015;2018-06-12 12:16:12:089
-3.8141;9.3592;2.9378;0.1884;9.7546;0.991;-4.0025;-0.3954;1.9468;0.3379;1.6017;-1.0861;1155.0;-14.94;-27.66;32.58;147.13;-84.1;-10.77;8.0;996.32;45.024;23.031284;72.53736;154.82;167.52329421789003;;2.92;103.22581;173.95;9 / 9;3516;2018-06-12 12:16:12:590
-1.348;10.8987;5.0088;0.2801;9.7493;1.0209;-0.7446;2.5405;2.094;-0.9192;-0.0434;0.2737;896.0;-15.42;-28.74;31.86;142.48;-83.8;-15.34;8.0;996.32;51.588;23.031284;72.53736;154.82;167.52329421789003;;2.92;103.22581;173.95;9 / 9;4016;2018-06-12 12:16:13:090
1.19;12.534;1.0798;0.1487;9.6064;1.966;1.0795;1.6275;1.6542;0.4241;-0.5785;0.0415;1070.0;-16.32;-30.12;29.76;151.92;-78.4;-4.33;8.0;996.35;45.927;23.031284;72.53736;154.82;167.52329421789003;;2.92;103.22581;173.95;8 / 9;4515;2018-06-12 12:16:13:589
0.3639;11.0975;2.3751;0.1596;9.7681;0.8536;0.2235;1.3461;0.9661;0.5817;-0.0287;0.1991;1173.0;-16.14;-28.92;32.04;154.06;-84.04;-1.37;8.0;996.33;45.061;23.031284;72.53736;154.82;167.52329421789003;;2.92;103.22581;173.95;8 / 9;5016;2018-06-12 12:16:14:090
-0.5028;10.1565;0.1772;0.4063;9.7727;0.7071;-0.6194;-0.1956;-0.5203;0.2335;0.1673;0.0672;817.0;-17.28;-27.24;32.82;125.59;-85.23;-29.88;8.0;996.33;52.289;23.031284;72.53736;154.82;167.52329421789003;;2.92;103.22581;173.95;10 / 10;5515;2018-06-12 12:16:14:589
1.2546;6.8811;1.0439;0.8537;9.7428;0.7205;0.4009;-2.8617;0.3234;-0.2638;-0.2725;0.1888;717.0;-16.2;-26.22;33.72;109.14;-83.46;-49.84;8.0;996.35;46.803;23.031284;72.53736;154.82;167.52329421789003;;2.92;103.22581;173.95;10 / 10;6016;2018-06-12 12:16:15:090
-0.0072;8.2028;1.0846;0.8875;9.702;1.1193;-0.8085;-1.3053;-0.899;-0.3407;0.0385;-0.2859;991.0;-18.36;-27.42;31.44;116.86;-81.62;-38.41;8.0;996.33;58.034;23.031284;72.53736;154.82;167.52329421789003;;2.92;103.22581;173.95;10 / 10;6515;2018-06-12 12:16:15:589
0.0479;9.4909;0.6345;0.4982;9.7366;1.0583;1.3477;-0.4373;-0.5531;0.1828;-0.0379;-0.1961;886.0;-15.24;-28.26;33.06;133.96;-83.15;-25.21;8.0;996.34;48.5;23.031284;72.53736;154.82;167.52329421789003;;2.92;103.22581;173.95;10 / 10;7015;2018-06-12 12:16:16:089
-0.0215;10.4845;5.3033;0.2114;9.7089;1.3651;-0.233;0.7757;3.9382;0.1834;0.529;-0.4398;908.0;-14.82;-29.16;32.52;140.41;-84.24;-17.94;8.0;996.33;48.247;23.031284;72.53736;154.82;167.52329421789003;;2.92;103.22581;173.95;10 / 10;7515;2018-06-12 12:16:16:589
-0.6034;12.3138;2.6553;-0.3669;9.7578;0.9058;-0.4567;3.4203;-1.5331;-0.4599;-0.1063;-0.0214;1062.0;-13.62;-28.62;33.24;179.13;-84.28;22.05;8.0;996.32;46.114;23.031284;72.53736;154.82;167.52329421789003;;2.92;103.22581;173.95;10 / 10;8015;2018-06-12 12:16:17:089
-0.8979;12.139;2.0184;-0.4869;9.7522;0.9093;-0.4109;2.3867;1.109;0.2903;0.025;-0.0257;1340.0;-13.8;-29.28;32.82;184.8;-83.96;28.17;8.0;996.31;45.09;23.031284;72.53736;154.82;167.52329421789003;;2.92;103.22581;173.95;10 / 10;8515;2018-06-12 12:16:17:589
-0.9098;10.475;1.7885;-0.4891;9.756;0.8671;0.0917;-0.2698;-1.2214;-0.3646;-0.0214;0.1436;1534.0;-15.0;-28.56;33.18;184.63;-84.17;29.43;8.0;996.3;45.512;23.031284;72.53736;154.82;167.52329421789003;;2.92;103.22581;173.95;10 / 10;9015;2018-06-12 12:16:18:089
-0.0551;7.4151;-0.838;-0.5684;9.7771;0.5046;-0.157;-2.3046;-0.7105;0.118;-0.3116;0.0953;1244.0;-12.12;-27.48;35.1;208.03;-85.55;48.4;8.0;996.34;46.006;23.031284;72.53736;154.82;167.52329421789003;;2.92;103.22581;173.95;10 / 10;9515;2018-06-12 12:16:18:589
-0.5938;7.3839;1.5419;-0.547;9.7526;0.8708;-0.0468;-2.3686;0.6711;-0.1856;0.0385;0.2425;1403.0;-13.8;-28.92;34.32;189.06;-83.98;32.14;8.0;996.33;46.048;23.031164;72.53721;33.95;167.52329421789003;;3.56;19.35484;;10 / 10;10015;2018-06-12 12:16:19:089
0.2227;9.4167;0.0646;-0.2752;9.7797;0.6726;0.4979;-0.363;-0.6079;-0.3004;0.0085;-0.3293;1259.0;-11.7;-28.38;34.5;183.16;-85.75;22.25;8.0;996.32;48.79;23.031164;72.53721;33.95;167.52329421789003;;3.56;19.35484;;10 / 10;10515;2018-06-12 12:16:19:589
-0.6608;11.459;-0.5004;-0.5482;9.7885;-0.2351;-0.5891;2.4678;-1.3714;-0.3646;0.1026;0.2853;1110.0;-11.7;-24.84;36.9;273.0;-86.51;113.21;8.0;996.32;48.319;23.031164;72.53721;33.95;167.52329421789003;;3.56;19.35484;;10 / 10;11016;2018-06-12 12:16:20:090
-0.0886;13.1422;-1.3408;0.0199;9.8022;0.2934;0.356;2.1189;-0.5281;0.2402;0.0861;-0.2071;1059.0;-15.06;-26.82;34.68;153.46;-88.28;-3.87;8.0;996.31;45.163;23.031164;72.53721;33.95;167.52329421789003;;3.56;19.35484;;10 / 10;11515;2018-06-12 12:16:20:589
0.3208;12.036;1.5371;-0.1591;9.761;0.9317;0.1591;2.1026;0.481;-0.2992;-0.0416;0.16;1161.0;-14.34;-28.92;32.88;167.61;-84.47;9.69;8.0;996.33;46.032;23.031164;72.53721;33.95;167.52329421789003;;3.56;19.35484;;10 / 10;12015;2018-06-12 12:16:21:089
-1.518;11.4327;2.7391;-0.1236;9.7284;1.2297;-1.2866;1.9963;0.2931;-0.1532;0.5015;0.1649;1328.0;-15.9;-30.48;30.24;153.15;-81.91;-1.77;8.0;996.33;48.212;23.031164;72.53721;33.95;167.52329421789003;;3.56;19.35484;;10 / 10;12515;2018-06-12 12:16:21:589
1.0008;6.8764;1.2354;0.2294;9.6165;1.9079;0.7714;-2.7402;-0.6724;0.2573;-0.3953;-0.0904;1191.0;-14.88;-31.32;29.1;150.58;-78.7;-6.86;8.0;996.32;52.628;23.031164;72.53721;33.95;167.52329421789003;;3.56;19.35484;;10 / 10;13015;2018-06-12 12:16:22:089
-0.5866;5.9067;2.3799;0.1666;9.7355;1.1672;-0.9448;-3.508;0.765;-0.3017;-0.0208;0.2248;1293.0;-14.46;-29.52;32.34;150.95;-83.09;-8.12;8.0;996.35;46.297;23.031164;72.53721;33.95;167.52329421789003;;3.56;19.35484;;10 / 10;13515;2018-06-12 12:16:22:589
2.581;8.4733;-0.7398;0.1261;9.793;0.5018;2.0192;-0.4553;-1.1315;0.1412;-0.3586;0.0916;1184.0;-13.2;-27.18;34.8;146.68;-86.98;-14.11;8.0;996.33;45.231;23.031164;72.53721;33.95;167.52329421789003;;3.56;19.35484;;10 / 10;14015;2018-06-12 12:16:23:089
-1.4509;10.3409;3.9721;0.1846;9.8038;0.1471;0.3613;1.3248;-0.9013;-0.5625;0.2254;0.0116;1115.0;-14.52;-26.82;33.84;105.71;-88.62;-51.45;8.0;996.31;50.116;23.031164;72.53721;33.95;167.52329421789003;;3.56;19.35484;;10 / 10;14516;2018-06-12 12:16:23:590
-0.4597;13.2954;-0.1868;0.1244;9.7951;0.4585;-0.5841;3.5003;-0.6453;-0.3114;0.1301;0.0061;1140.0;-13.8;-26.76;33.9;143.62;-87.22;-15.18;8.0;996.33;53.051;23.031164;72.53721;33.95;167.52329421789003;;3.56;19.35484;;10 / 10;15016;2018-06-12 12:16:24:090
-0.0407;12.4861;1.1325;0.276;9.7948;0.3953;0.1957;2.4543;0.8474;0.2964;0.2742;-0.0183;1072.0;-13.14;-26.76;33.9;125.82;-87.18;-34.92;8.0;996.33;50.557;23.031164;72.53721;33.95;167.52329421789003;;3.56;19.35484;;10 / 10;15517;2018-06-12 12:16:24:591
-1.3216;11.0855;1.3959;-0.0873;9.7568;0.9836;-1.2343;1.3287;0.4123;0.1198;0.2205;0.0715;1119.0;-17.34;-27.9;30.54;157.95;-84.22;5.07;8.0;996.36;47.653;23.031164;72.53721;33.95;167.52329421789003;;3.56;19.35484;;10 / 10;16016;2018-06-12 12:16:25:090
0.0192;8.4997;-1.5467;0.1499;9.781;0.6931;-0.1715;-2.1767;-1.0666;0.5303;0.033;-0.2242;1029.0;-15.18;-26.34;33.6;145.56;-85.85;-12.2;8.0;996.35;46.747;23.031164;72.53721;33.95;167.52329421789003;;3.56;19.35484;;10 / 10;16516;2018-06-12 12:16:25:590
0.8021;6.5244;0.5914;0.0788;9.7497;1.0518;0.0529;-3.2254;1.0336;-0.6376;-0.113;0.226;1217.0;-17.1;-28.14;30.36;148.64;-83.83;-4.28;8.0;996.33;48.759;23.031164;72.53721;33.95;167.52329421789003;;3.56;19.35484;;10 / 10;17015;2018-06-12 12:16:26:089
-0.8524;8.7295;1.8795;0.0049;9.7639;0.9142;-1.2834;-1.3792;1.0276;0.1437;0.3921;-0.3128;1206.0;-14.64;-27.66;31.5;144.47;-84.51;-12.82;8.0;996.35;49.535;23.031164;72.53721;33.95;167.52329421789003;;3.56;19.35484;;10 / 10;17515;2018-06-12 12:16:26:589
0.2466;8.7439;-1.0176;0.1663;9.8016;0.2673;0.0803;-1.0577;-1.2848;0.3391;-0.2951;0.0623;945.0;-17.52;-25.5;32.7;120.54;-88.16;-31.89;8.0;996.34;48.559;23.031164;72.53721;33.95;167.52329421789003;;3.56;19.35484;;10 / 10;18015;2018-06-12 12:16:27:089
-0.1987;10.0799;2.9402;0.1772;9.805;-0.0242;-0.3759;0.2749;2.9644;-0.4024;-0.4661;0.2553;1012.0;-16.98;-22.86;32.52;55.51;-88.95;-97.78;8.0;996.34;58.289;23.031164;72.53721;33.95;167.52329421789003;;3.56;19.35484;;10 / 10;18515;2018-06-12 12:16:27:589
1.7239;11.6098;-1.6018;0.4798;9.7945;-0.0914;0.794;1.722;0.6565;0.0875;-0.3617;0.2529;983.0;-15.12;-23.22;34.86;57.5;-87.15;-100.79;8.0;996.34;55.764;23.031061;72.537224;41.3;167.52329421789003;;0.0;19.35484;166.77;10 / 10;19016;2018-06-12 12:16:28:090
0.9649;11.8852;0.9266;0.1768;9.8044;0.1112;0.6492;2.325;-0.2572;-0.0035;-0.6848;0.3635;1030.0;-15.12;-25.86;34.56;99.78;-88.78;-57.84;8.0;996.34;58.226;23.031061;72.537224;41.3;167.52329421789003;;0.0;19.35484;166.77;10 / 10;19515;2018-06-12 12:16:28:589
0.0599;10.7599;-1.0918;-0.084;9.7851;-0.6439;0.163;1.4919;-0.0313;0.1113;-0.0367;0.0012;1092.0;-10.44;-22.62;37.08;335.84;-86.68;171.81;8.0;996.36;65.198;23.031061;72.537224;41.3;167.52329421789003;;0.0;19.35484;166.77;10 / 11;20016;2018-06-12 12:16:29:090
-0.2418;8.9402;0.7159;-0.1039;9.794;0.4874;0.5229;-1.2344;-1.0907;-0.031;0.1649;-0.0947;1170.0;-10.26;-27.3;33.78;175.8;-87.09;12.03;8.0;996.36;65.067;23.031061;72.537224;41.3;167.52329421789003;;0.0;19.35484;166.77;10 / 11;20515;2018-06-12 12:16:29:589
-0.1652;8.265;0.3208;0.2013;9.7958;0.414;-1.6474;-1.5978;1.1973;-0.0976;-0.1308;0.2694;1149.0;-11.22;-26.52;34.62;137.92;-87.31;-25.93;8.0;996.38;55.795;23.031061;72.537224;41.3;167.52329421789003;;0.0;19.35484;166.77;11 / 11;21015;2018-06-12 12:16:30:089
-0.0814;7.8341;1.3073;0.1912;9.8042;0.1013;-0.1481;-1.6134;-0.4245;-0.7299;0.1814;0.1411;1212.0;-12.66;-25.74;35.04;98.41;-88.74;-62.09;8.0;996.36;50.029;23.031061;72.537224;41.3;167.52329421789003;;0.0;19.35484;166.77;11 / 11;21516;2018-06-12 12:16:30:590
1.7382;9.0791;0.5866;0.1813;9.7427;1.1031;1.5569;-0.6636;-0.5165;-0.2583;0.2449;-0.2395;1319.0;-13.74;-28.68;31.62;149.62;-83.45;-9.33;8.0;996.37;53.737;23.031061;72.537224;41.3;167.52329421789003;;0.0;19.35484;166.77;11 / 11;22017;2018-06-12 12:16:31:091
-1.1301;13.0536;-0.419;0.0759;9.7723;0.8159;-1.206;3.2812;-1.2349;-0.086;0.0898;-0.0153;999.0;-13.2;-28.5;32.16;154.19;-85.21;-5.31;8.0;996.38;56.287;23.031061;72.537224;41.3;167.52329421789003;;0.0;19.35484;166.77;11 / 11;22516;2018-06-12 12:16:31:590
-0.1077;12.5771;1.2953;0.0509;9.7233;1.2745;-0.1586;2.8538;0.0208;0.5591;-0.5504;0.193;953.0;-14.58;-29.88;29.58;153.89;-82.53;-2.29;8.0;996.36;59.889;23.031061;72.537224;41.3;167.52329421789003;;0.0;19.35484;166.77;11 / 11;23016;2018-06-12 12:16:32:090
-0.1724;11.3608;1.5994;0.0562;9.7991;0.3799;-0.1352;1.533;0.8795;0.1663;0.1118;0.1393;1174.0;-13.8;-27.66;33.72;150.04;-87.76;-8.42;8.0;996.37;64.661;23.031061;72.537224;41.3;167.52329421789003;;0.0;19.35484;166.77;11 / 11;23516;2018-06-12 12:16:32:590
0.2251;10.3504;-0.2538;-0.0292;9.7896;0.5766;0.1824;-0.0713;-0.4377;0.4467;0.2443;-0.0134;1060.0;-14.28;-27.72;33.0;160.75;-86.63;2.9;8.0;996.38;61.618;23.031061;72.537224;41.3;167.52329421789003;;0.0;19.35484;166.77;11 / 11;24015;2018-06-12 12:16:33:089
1.4725;7.9011;-1.3504;0.5486;9.791;-0.0788;0.9239;-1.8899;-1.2716;0.4112;-0.3733;-0.0391;1078.0;-6.66;-24.54;36.18;72.96;-86.76;-98.18;8.0;996.38;66.829;23.031061;72.537224;41.3;167.52329421789003;;0.0;19.35484;166.77;11 / 11;24515;2018-06-12 12:16:33:589
0.9122;6.0192;-1.5204;0.6014;9.7865;0.1806;0.0761;-4.0618;-0.7408;0.2872;0.0378;-0.1197;1592.0;-4.86;-25.8;36.84;101.5;-86.33;-73.29;8.0;996.44;66.254;23.031061;72.537224;41.3;167.52329421789003;;0.0;19.35484;166.77;11 / 11;25016;2018-06-12 12:16:34:090
-1.9489;9.3808;2.1429;0.6481;9.7837;0.1722;-2.597;-0.4029;1.9706;-0.4299;0.7843;-0.507;1408.0;-1.68;-24.78;37.5;104.34;-86.08;-75.12;8.0;996.47;65.455;23.031061;72.537224;41.3;167.52329421789003;;0.0;19.35484;166.77;11 / 11;25515;2018-06-12 12:16:34:589
-0.407;10.2667;0.1604;0.3632;9.796;0.2768;-1.9123;0.3629;3.0489;-0.0249;0.2254;0.0281;1564.0;-5.16;-25.68;36.36;121.01;-87.33;-52.69;8.0;996.52;69.945;23.031061;72.537224;41.3;167.52329421789003;;0.0;19.35484;166.77;11 / 11;26016;2018-06-12 12:16:35:090
-0.9242;10.7838;2.1237;0.3033;9.792;0.4426;-1.3305;3.1611;0.7522;0.2481;0.5522;-0.3054;1501.0;-7.14;-25.74;35.7;136.07;-86.86;-34.42;8.0;996.51;71.005;23.031061;72.537224;41.3;167.52329421789003;;0.0;19.35484;166.77;11 / 11;26515;2018-06-12 12:16:35:589
1.2977;10.8844;1.0439;0.5436;9.7817;0.4383;0.5673;1.038;-0.6442;0.1357;-0.2047;-0.2285;1542.0;-5.28;-26.1;35.94;117.42;-86.44;-56.89;8.0;996.51;66.013;23.031061;72.537224;41.3;167.52329421789003;;0.0;19.35484;166.77;14 / 14;27016;2018-06-12 12:16:36:090
0.5818;12.309;1.7574;0.5229;9.7476;0.9386;-1.0137;2.0083;0.7829;-0.1783;-0.0849;0.5034;1976.0;-8.1;-27.78;32.46;140.1;-83.71;-29.12;8.0;996.5;70.314;23.031061;72.537224;41.3;167.52329421789003;;0.0;19.35484;166.77;14 / 14;27516;2018-06-12 12:16:36:590
2.5691;9.9745;-0.4358;1.2242;9.6691;1.0866;1.5197;-0.7935;-1.1776;0.4467;0.6554;0.0458;1893.0;-15.0;-27.06;33.24;113.48;-80.39;-48.41;8.0;996.51;69.381;23.03098;72.53724;42.35;NaN;;4.24;12.903226;177.79;14 / 14;28015;2018-06-12 12:16:37:089
-0.1293;8.0663;0.0886;0.7263;9.5503;2.1059;0.6049;-3.4521;-1.7923;0.9677;0.3989;-0.3653;2412.0;-18.96;-29.52;27.36;133.77;-76.87;-19.03;8.0;996.51;68.743;23.03098;72.53724;42.35;NaN;;4.24;12.903226;177.79;14 / 14;28515;2018-06-12 12:16:37:589
0.6632;6.625;-0.3663;0.1932;9.7841;0.6361;0.051;-3.195;-0.2338;0.2206;0.4306;0.1277;1931.0;-23.46;-25.56;27.18;124.95;-86.11;-16.9;8.0;996.5;62.526;23.03098;72.53724;42.35;NaN;;4.24;12.903226;177.79;14 / 14;29015;2018-06-12 12:16:38:089
0.2538;6.3448;1.2809;0.1996;9.7881;0.5684;0.0542;-3.4433;0.7125;0.0429;-0.0019;0.0171;1997.0;-27.48;-24.78;24.3;114.46;-86.48;-19.35;8.0;996.42;45.373;23.03098;72.53724;42.35;NaN;;4.24;12.903226;177.79;14 / 14;29515;2018-06-12 12:16:38:589
-0.0838;9.0025;1.5395;0.0634;9.7902;-0.5641;-0.1472;-0.7877;2.1036;0.0191;0.4722;-0.5779;1429.0;-25.86;-22.98;27.96;322.27;-86.68;-173.58;8.0;996.38;67.395;23.03098;72.53724;42.35;NaN;;4.24;12.903226;177.79;19 / 19;30015;2018-06-12 12:16:39:089
-1.846;10.2643;1.2594;0.0496;9.7006;-1.4374;-1.8956;0.5637;2.6968;0.2897;0.4532;-0.0874;746.0;-26.58;-20.52;28.68;315.58;-81.57;-178.02;0.0;996.39;61.214;23.03098;72.53724;42.35;NaN;;4.24;12.903226;177.79;19 / 19;30515;2018-06-12 12:16:39:589
-1.0607;12.218;1.0774;0.1202;9.7022;-1.4221;-0.6589;4.2277;0.5578;-0.0555;0.127;-0.2706;559.0;-26.7;-19.86;28.56;318.79;-81.63;-175.17;0.0;996.38;62.413;23.03098;72.53724;42.35;NaN;;4.24;12.903226;177.79;20 / 20;31015;2018-06-12 12:16:40:089
2.3847;11.5117;-2.265;0.2954;9.7375;-1.1242;2.0893;1.7742;-1.1408;-0.4238;-0.6115;0.0134;643.0;-24.18;-21.06;29.82;334.29;-83.19;-165.28;0.0;996.39;63.711;23.03098;72.53724;42.35;NaN;;4.24;12.903226;177.79;20 / 20;31516;2018-06-12 12:16:40:590
1.6928;11.3584;-0.9314;0.4064;9.7575;-0.8921;1.2864;1.6009;-0.0393;0.2194;-0.6891;0.1613;867.0;-23.64;-20.22;31.86;343.31;-84.95;-159.03;0.0;996.36;57.687;23.03098;72.53724;42.35;NaN;;4.24;12.903226;177.79;19 / 19;32015;2018-06-12 12:16:41:089
0.941;9.4813;-0.8164;0.5313;9.7688;-0.6774;0.9028;-0.9842;-0.3138;0.3459;0.4147;-0.3842;904.0;-22.08;-20.28;32.46;7.41;-84.92;-138.44;0.0;996.34;62.225;23.03098;72.53724;42.35;NaN;;4.24;12.903226;177.79;19 / 19;32515;2018-06-12 12:16:41:589
-0.0551;9.5484;-1.7071;0.4084;9.7966;-0.1715;0.5805;-2.5061;-1.2076;0.3886;-0.1625;-0.212;1372.0;-20.94;-22.38;32.04;34.82;-87.41;-112.78;0.0;996.35;65.359;23.03098;72.53724;42.35;NaN;;4.24;12.903226;177.79;19 / 19;33016;2018-06-12 12:16:42:090
-1.4174;7.2666;-1.5156;0.0434;9.7715;-0.8278;-3.1129;0.0115;1.1079;0.5523;0.824;-0.1894;1551.0;-21.06;-21.9;33.18;329.04;-85.15;-177.0;0.0;996.38;66.244;23.03098;72.53724;42.35;NaN;;4.24;12.903226;177.79;19 / 19;33516;2018-06-12 12:16:42:590
-1.6592;6.5052;1.9274;0.5582;9.7616;-0.7545;-2.2175;-3.2564;2.6819;-0.5301;0.4624;0.2902;1214.0;-29.1;-19.92;27.66;349.97;-84.51;-143.5;0.0;996.35;58.428;23.03098;72.53724;42.35;NaN;;4.24;12.903226;177.79;19 / 19;34016;2018-06-12 12:16:43:090
1.6712;9.85;-2.1118;0.5768;9.7679;-0.6514;1.0944;0.0821;-1.4603;0.0484;0.5406;-0.4899;1198.0;-32.7;-19.98;23.52;346.94;-84.91;-138.48;0.0;996.36;68.45;23.03098;72.53724;42.35;NaN;;4.24;12.903226;177.79;19 / 19;34515;2018-06-12 12:16:43:589
-1.5012;12.5963;0.9266;0.2653;9.774;-0.7543;-1.7665;2.8223;1.6809;-0.7848;1.102;-0.0849;1203.0;-36.54;-20.28;16.02;310.91;-85.32;-160.62;0.0;996.38;71.389;23.03098;72.53724;42.35;NaN;;4.24;12.903226;177.79;19 / 19;35016;2018-06-12 12:16:44:090
1.6042;11.8948;-1.0152;0.3766;9.7944;-0.3146;1.8908;2.2297;-1.7373;0.396;-0.7264;0.3494;1647.0;-37.98;-21.12;6.12;328.24;-87.13;-129.88;0.0;996.35;58.555;23.03098;72.53724;42.35;NaN;;4.24;12.903226;177.79;19 / 19;35515;2018-06-12 12:16:44:589
1.834;11.6888;-4.2474;0.339;9.7555;-0.9411;1.2915;0.6668;-2.2816;0.5523;-0.223;-0.1258;1550.0;-36.9;-22.38;10.62;303.44;-84.15;-160.19;0.0;996.33;62.105;23.03098;72.53724;42.35;NaN;;4.24;12.903226;177.79;19 / 20;36015;2018-06-12 12:16:45:089
-0.4597;11.3704;0.68;0.1963;9.792;0.4977;-0.656;1.5784;0.1822;0.4063;0.2834;-0.1203;1875.0;-37.74;-22.98;4.86;77.82;-86.87;-21.53;0.0;996.37;66.906;23.03098;72.53724;42.35;NaN;;4.24;12.903226;177.79;19 / 20;36515;2018-06-12 12:16:45:589
0.4094;6.4813;-0.996;0.0201;9.8063;-0.0842;-0.3194;-3.538;-0.2127;0.2078;-0.2395;0.1643;1757.0;-36.0;-24.12;10.86;300.13;-89.49;-166.58;0.0;996.37;59.713;23.0309;72.53732;32.25;NaN;;5.47;9.677419;109.08;18 / 19;37015;2018-06-12 12:16:46:089
-2.7965;8.3728;2.344;-0.1601;9.7839;0.648;-3.1655;-0.2714;0.6809;-0.8893;0.5009;-0.2523;2050.0;-36.0;-25.08;7.5;118.68;-86.1;13.88;3.1;996.35;65.008;23.0309;72.53732;32.25;NaN;;5.47;9.677419;109.08;18 / 19;37515;2018-06-12 12:16:46:589
-0.8931;10.0703;4.8101;0.3263;9.5799;2.0711;-2.1196;1.5798;3.3807;-0.5063;0.7055;0.066;3288.0;-37.5;-24.42;3.84;95.17;-77.65;-8.95;3.1;996.35;58.22;23.0309;72.53732;32.25;NaN;;5.47;9.677419;109.08;18 / 20;38015;2018-06-12 12:16:47:089
0.2155;13.5516;3.917;0.5775;9.446;2.5709;-0.5273;4.2421;2.8306;-0.1007;0.0012;0.0703;3924.0;-35.88;-24.48;1.8;91.17;-74.41;-12.66;3.1;996.35;57.786;23.0309;72.53732;32.25;NaN;;5.47;9.677419;109.08;18 / 20;38515;2018-06-12 12:16:47:589
2.2841;11.4303;6.6154;0.9187;9.1187;3.4893;0.9895;1.8327;4.6824;-0.0524;-0.3354;-0.0837;4150.0;-37.74;-21.36;-0.72;86.5;-69.4;-14.19;3.1;996.36;54.81;23.0309;72.53732;32.25;NaN;;5.47;9.677419;109.08;18 / 19;39015;2018-06-12 12:16:48:089
1.1684;10.5372;0.9721;0.8398;9.3336;2.8895;-0.428;-0.8339;-1.8073;0.1198;-0.4704;0.047;3003.0;-37.14;-23.28;4.02;91.38;-72.13;-16.21;3.1;996.33;49.793;23.0309;72.53732;32.25;NaN;;5.47;9.677419;109.08;18 / 19;39515;2018-06-12 12:16:48:589
0.7231;7.7527;0.5483;0.637;9.4385;2.5845;-0.3329;-2.4903;-1.0761;0.6745;0.2382;0.0367;3061.0;-39.12;-22.26;-0.18;85.45;-74.25;-13.85;3.1;996.34;45.639;23.0309;72.53732;32.25;NaN;;5.47;9.677419;109.08;18 / 18;40015;2018-06-12 12:16:49:089
-0.0024;7.4318;4.0128;1.0102;9.4729;2.3268;-1.1252;-1.5191;2.2055;-0.243;0.16;-0.3885;2358.0;-36.6;-23.58;2.76;81.31;-75.01;-23.47;3.1;996.31;44.617;23.0309;72.53732;32.25;NaN;;5.47;9.677419;109.08;18 / 18;40516;2018-06-12 12:16:49:590
0.9002;8.4302;0.1652;1.0119;9.5569;1.9525;-1.2058;-1.5456;0.1761;0.4601;0.6194;-0.0147;2495.0;-36.3;-24.24;8.22;86.98;-76.05;-24.93;3.1;996.31;47.036;23.0309;72.53732;32.25;NaN;;5.47;9.677419;109.08;18 / 19;41015;2018-06-12 12:16:50:089
-0.3232;8.6649;5.2746;0.6534;9.6215;1.7802;-0.9766;-0.9567;3.4944;-0.6046;-0.3391;0.0226;1839.0;-33.48;-25.5;13.8;100.4;-78.85;-20.15;3.1;996.28;49.058;23.0309;72.53732;32.25;NaN;;5.47;9.677419;109.08;18 / 19;41515;2018-06-12 12:16:50:589
0.0814;11.4111;3.8428;0.4923;9.6332;1.7688;-0.4109;1.7779;2.074;-0.006;-0.427;-0.1393;1572.0;-29.1;-27.36;18.36;113.8;-79.21;-15.55;3.1;996.3;54.146;23.0309;72.53732;32.25;NaN;;5.47;9.677419;109.08;19 / 19;42016;2018-06-12 12:16:51:090
0.8595;10.3768;0.4812;0.6652;9.6818;1.4107;-0.1887;0.5848;-0.5416;0.4882;-0.5999;0.0666;1567.0;-30.0;-26.4;20.22;104.71;-80.85;-25.24;3.1;996.31;46.318;23.0309;72.53732;32.25;NaN;;5.47;9.677419;109.08;19 / 19;42515;2018-06-12 12:16:51:589
0.0862;8.0879;-1.4749;0.4487;9.7455;0.9969;-0.0249;-2.4837;-1.6721;0.0795;-0.5541;0.1686;1025.0;-25.02;-26.76;25.74;116.07;-83.6;-24.23;3.1;996.29;55.073;23.0309;72.53732;32.25;NaN;;5.47;9.677419;109.08;20 / 20;43016;2018-06-12 12:16:52:090
1.4366;6.2778;0.838;0.8686;9.7439;0.6869;-1.4576;-2.1852;1.3147;-0.7708;-0.2328;0.8308;967.0;-32.82;-23.58;19.26;72.29;-83.52;-51.66;3.1;996.29;51.116;23.0309;72.53732;32.25;NaN;;5.47;9.677419;109.08;20 / 20;43515;2018-06-12 12:16:52:589
-0.5722;7.961;0.249;0.6407;9.7566;-0.7538;-1.213;-1.7956;1.0029;-0.1673;0.8167;-0.058;703.0;-38.46;-21.24;14.4;328.91;-84.21;-139.64;3.1;996.26;44.355;23.0309;72.53732;32.25;NaN;;5.47;9.677419;109.08;19 / 19;44016;2018-06-12 12:16:53:090
0.7207;9.1557;1.1277;0.5328;9.7864;0.3348;-3.1665;1.4044;6.8121;0.0826;0.2431;0.5736;1192.0;-37.26;-20.7;-12.36;14.71;-86.32;-57.85;3.1;996.3;48.461;23.0309;72.53732;32.25;NaN;;5.47;9.677419;109.08;19 / 19;44515;2018-06-12 12:16:53:589
2.1237;12.862;-0.9505;0.7484;9.7775;0.0989;1.3754;3.0845;-1.0494;0.2793;-0.2725;-0.0153;1261.0;-25.86;-19.68;-27.78;318.8;-85.59;-82.47;3.1;996.3;47.978;23.0309;72.53732;32.25;NaN;;5.47;9.677419;109.08;19 / 19;45017;2018-06-12 12:16:54:091
2.5547;11.8134;1.743;0.9257;9.7628;-0.0137;1.3393;1.5214;-1.2624;-0.1098;-0.0605;0.0617;1341.0;-25.62;-20.76;-28.74;308.62;-84.58;-90.85;3.1;996.29;46.722;23.0309;72.53732;32.25;NaN;;5.47;9.677419;109.08;19 / 19;45515;2018-06-12 12:16:54:589
1.4222;11.4303;0.2753;0.8823;9.7661;0.1231;0.492;1.9467;-0.1111;0.3465;0.2034;-0.1063;1226.0;-22.5;-20.58;-31.44;315.44;-84.36;-77.59;3.1;996.29;45.297;23.03088;72.53741;30.95;NaN;;2.71;9.677419;21.22;20 / 20;46015;2018-06-12 12:16:55:089
0.7997;6.953;0.6728;1.3961;9.594;1.4755;0.2105;-2.9067;-1.3438;-0.185;0.1515;0.1967;847.0;-22.92;-16.92;-33.18;344.93;-79.64;-48.58;3.1;996.31;46.994;23.03088;72.53741;30.95;NaN;;2.71;9.677419;21.22;20 / 20;46515;2018-06-12 12:16:55:589
1.7358;5.7199;-0.1868;1.6117;9.5488;1.5473;-0.2349;-3.6971;-1.2528;0.0643;-0.5266;0.1472;1017.0;-26.4;-17.34;-31.92;351.96;-76.83;-46.17;3.1;996.35;46.216;23.03088;72.53741;30.95;NaN;;2.71;9.677419;21.22;20 / 21;47015;2018-06-12 12:16:56:089
0.7231;9.0863;-0.0958;1.3402;9.7017;0.5012;1.7963;-0.6896;-3.2235;0.5792;-0.0336;-0.5162;1010.0;-30.9;-20.16;-24.54;339.98;-81.61;-69.49;3.1;996.31;46.498;23.03088;72.53741;30.95;NaN;;2.71;9.677419;21.22;20 / 21;47515;2018-06-12 12:16:56:589
1.0774;10.1852;0.8859;1.094;9.7453;-0.0406;1.396;2.5972;-2.6769;-0.2662;-0.3507;0.0519;873.0;-28.98;-22.74;-23.7;315.33;-83.59;-92.13;3.1;996.29;46.672;23.03088;72.53741;30.95;NaN;;2.71;9.677419;21.22;18 / 19;48016;2018-06-12 12:16:57:090
1.3408;14.5117;-0.917;0.8582;9.7689;0.0545;0.4826;4.7428;-0.9715;0.0985;-0.1631;-0.2926;1142.0;-28.68;-21.24;-23.88;322.19;-84.97;-86.37;3.1;996.3;46.928;23.03088;72.53741;30.95;NaN;;2.71;9.677419;21.22;18 / 19;48515;2018-06-12 12:16:57:589
0.8524;13.4032;0.1149;0.6191;9.7867;-0.085;0.2333;3.6164;0.2;0.1461;0.438;-0.1814;1187.0;-28.2;-23.7;-23.88;309.69;-86.35;-97.82;3.1;996.32;45.999;23.03088;72.53741;30.95;NaN;;2.71;9.677419;21.22;19 / 19;49015;2018-06-12 12:16:58:089
0.2083;10.882;-0.2777;0.5024;9.7846;0.4226;-0.0571;-0.028;-1.0427;-0.1758;0.4092;-0.1723;1266.0;-24.48;-21.96;-28.5;350.26;-86.16;-49.93;3.1;996.31;48.297;23.03088;72.53741;30.95;NaN;;2.71;9.677419;21.22;19 / 19;49516;2018-06-12 12:16:58:590
-0.2322;6.4861;0.3567;0.3409;9.8003;0.0899;-0.6617;-2.7611;-0.1402;0.0789;-0.336;-0.0696;1411.0;-27.54;-23.34;-24.72;332.42;-87.94;-75.22;3.1;996.31;48.833;23.03088;72.53741;30.95;NaN;;2.71;9.677419;21.22;19 / 20;50015;2018-06-12 12:16:59:089
-0.7949;8.2148;1.1564;0.6493;9.779;0.3459;-1.4322;0.8995;-0.4585;-0.0542;1.1905;-0.3085;1375.0;-29.34;-21.18;-24.72;346.7;-85.7;-61.95;3.1;996.29;60.202;23.03088;72.53741;30.95;NaN;;2.71;9.677419;21.22;19 / 20;50516;2018-06-12 12:16:59:590
2.3967;10.2475;-1.4653;0.9757;9.7418;0.5616;1.421;0.5057;-2.0269;0.1913;-1.3305;0.0428;1303.0;-34.74;-18.66;-22.68;356.4;-83.41;-60.07;3.1;996.29;50.656;23.03088;72.53741;30.95;NaN;;2.71;9.677419;21.22;19 / 19;51015;2018-06-12 12:17:00:089
-0.5124;13.4989;2.5523;0.4735;9.7943;0.1343;-0.9859;3.7046;2.418;-0.2693;0.5803;-0.2272;1180.0;-36.3;-22.62;-18.24;348.94;-87.12;-74.16;3.1;996.31;47.448;23.03088;72.53741;30.95;NaN;;2.71;9.677419;21.22;19 / 19;51516;2018-06-12 12:17:00:590
0.2251;12.2324;2.071;0.3823;9.7991;0.0423;-0.1572;2.4333;2.0287;-0.1056;0.1441;0.0147;1141.0;-36.42;-23.34;-17.76;339.28;-87.75;-83.68;3.1;996.31;48.217;23.03088;72.53741;30.95;NaN;;2.71;9.677419;21.22;20 / 20;52015;2018-06-12 12:17:01:089
1.4485;7.1852;-2.1884;0.7996;9.7729;0.1447;0.6346;-4.1176;-1.5885;-0.0616;-0.4643;0.0232;897.0;-41.04;-22.62;-7.68;359.18;-85.25;-79.74;3.1;996.3;46.581;23.03088;72.53741;30.95;NaN;;2.71;9.677419;21.22;20 / 20;52515;2018-06-12 12:17:01:589
0.4262;6.3688;-1.858;0.9837;9.7559;0.1588;-0.5575;-3.3871;-2.0167;0.625;0.3738;-0.1002;931.0;-40.62;-20.94;-12.96;351.09;-84.17;-80.83;3.1;996.32;47.222;23.03088;72.53741;30.95;NaN;;2.71;9.677419;21.22;21 / 21;53015;2018-06-12 12:17:02:089
-1.4581;9.7016;2.0615;0.6537;9.7481;-0.8471;-0.7327;0.4755;1.1129;0.1076;1.3353;-0.6176;832.0;-37.86;-24.24;-13.2;285.05;-83.74;-142.34;3.1;996.32;45.921;23.03088;72.53741;30.95;NaN;;2.71;9.677419;21.22;21 / 21;53515;2018-06-12 12:17:02:589
-0.3136;15.1725;1.2761;0.829;9.7628;-0.4129;-1.1427;5.4097;1.689;-1.0493;1.3158;0.1735;1033.0;-33.6;-23.34;-21.9;281.41;-84.05;-132.3;3.1;996.3;46.308;23.03088;72.53741;30.95;NaN;;2.71;9.677419;21.22;21 / 21;54015;2018-06-12 12:17:03:089
1.7933;11.6769;-2.3368;0.3005;9.7995;-0.2237;1.4928;1.8774;-2.1131;0.2213;-0.135;-0.0354;980.0;-27.0;-22.74;-28.38;276.0;-87.81;-126.67;3.1;996.3;47.188;23.03088;72.53741;30.95;NaN;;2.71;9.677419;21.22;21 / 21;54515;2018-06-12 12:17:03:589
0.4094;12.3018;-0.1269;0.5121;9.7931;-0.0606;0.0051;2.207;-1.1126;0.0832;0.1026;0.0574;952.0;-29.34;-23.34;-26.16;309.97;-86.99;-96.75;3.1;996.3;45.466;23.03093;72.5375;29.45;NaN;;3.93;12.903226;83.91;22 / 22;55015;2018-06-12 12:17:04:089
0.0814;8.8804;-1.609;0.6546;9.7836;0.1526;-0.5732;-0.9032;-1.7616;0.2243;-0.0074;-0.0641;852.0;-27.66;-21.9;-28.26;326.87;-86.07;-76.88;3.1;996.28;45.486;23.03093;72.5375;29.45;NaN;;3.93;12.903226;83.91;22 / 22;55515;2018-06-12 12:17:04:589
-0.656;8.2315;-0.5914;0.5061;9.7758;-0.5896;-0.1517;-2.3152;-0.8613;0.0759;-0.2199;0.4294;713.0;-29.16;-24.9;-23.7;271.77;-85.76;-135.8;3.1;996.3;44.989;23.03093;72.5375;29.45;NaN;;3.93;12.903226;83.91;21 / 21;56016;2018-06-12 12:17:05:090
0.1173;9.2419;0.4405;0.8143;9.7698;-0.2398;-0.697;-0.5279;0.6803;-0.717;0.2932;0.1784;762.0;-29.52;-22.44;-24.6;301.3;-85.03;-106.41;3.1;996.31;45.645;23.03093;72.5375;29.45;NaN;;3.93;12.903226;83.91;21 / 21;56516;2018-06-12 12:17:05:590
1.4485;8.6314;0.0192;0.7011;9.7759;-0.3315;-0.4784;-0.9363;3.2382;0.0746;-0.6427;0.3195;804.0;-29.34;-22.8;-24.9;291.32;-85.46;-115.31;3.1;996.3;45.154;23.03093;72.5375;29.45;NaN;;3.93;12.903226;83.91;21 / 21;57016;2018-06-12 12:17:06:090
0.3783;11.8756;-1.0655;0.6995;9.7628;-0.6065;-0.9366;2.3953;1.3966;-0.0072;0.237;-0.1222;758.0;-29.4;-23.7;-23.1;277.13;-84.58;-130.93;3.1;996.3;45.735;23.03093;72.5375;29.45;NaN;;3.93;12.903226;83.91;21 / 21;57516;2018-06-12 12:17:06:590
1.1612;12.2347;1.8292;0.5457;9.7877;0.2706;0.6156;2.447;1.5586;0.2842;-0.1063;0.0049;943.0;-26.64;-21.18;-27.84;339.63;-86.44;-63.62;3.1;996.31;45.269;23.03093;72.5375;29.45;NaN;;3.93;12.903226;83.91;20 / 21;58016;2018-06-12 12:17:07:090
0.917;9.9913;-0.8045;0.5308;9.792;0.0662;0.3862;0.1993;-0.8707;0.0716;0.2608;-0.1051;780.0;-29.28;-21.96;-23.94;326.45;-86.87;-82.89;3.1;996.32;45.363;23.03093;72.5375;29.45;NaN;;3.93;12.903226;83.91;20 / 21;58515;2018-06-12 12:17:07:589
0.8572;7.9346;-0.0934;0.8556;9.766;0.2498;0.0016;-1.8314;-0.3432;-0.2717;0.1625;-0.0055;720.0;-29.34;-21.78;-25.26;334.11;-84.79;-73.72;3.1;996.29;46.265;23.03093;72.5375;29.45;NaN;;3.93;12.903226;83.91;21 / 21;59015;2018-06-12 12:17:08:089
-1.6832;7.4103;-1.5922;0.7499;9.7718;0.3451;-2.208;-1.423;-0.2063;1.0349;0.1582;-0.9774;837.0;-28.62;-24.0;-23.58;344.21;-85.17;-65.29;3.1;996.31;46.643;23.03093;72.5375;29.45;NaN;;3.93;12.903226;83.91;21 / 21;59516;2018-06-12 12:17:08:590
-1.5036;8.0567;-0.6417;0.4515;9.7919;-0.2909;-0.9471;-1.8836;-0.9566;0.2701;0.4874;-0.2596;651.0;-28.98;-25.02;-21.36;289.2;-86.86;-122.79;3.1;996.31;45.132;23.03093;72.5375;29.45;NaN;;3.93;12.903226;83.91;21 / 21;60016;2018-06-12 12:17:09:090
2.2195;8.289;-1.6951;0.0606;9.7842;-0.6595;2.1588;-1.4953;-1.0356;-0.4452;-0.8614;0.3897;683.0;-27.24;-27.84;-21.96;233.63;-86.13;-174.75;3.1;996.28;44.66;23.03093;72.5375;29.45;NaN;;3.93;12.903226;83.91;21 / 21;60515;2018-06-12 12:17:09:589
0.0455;13.5372;1.2809;0.3304;9.8007;-0.0789;-0.2849;3.7365;1.3598;-0.6437;0.1924;0.0202;837.0;-27.18;-23.76;-23.88;303.83;-88.02;-103.42;3.1;996.29;45.755;23.03093;72.5375;29.45;NaN;;3.93;12.903226;83.91;21 / 21;61016;2018-06-12 12:17:10:090
0.601;12.5412;-1.9442;0.6611;9.7794;-0.3111;0.2942;2.5248;-0.4455;1.0093;0.0;-0.4716;867.0;-27.9;-23.16;-24.6;290.53;-85.73;-115.2;3.1;996.28;45.345;23.03093;72.5375;29.45;NaN;;3.93;12.903226;83.91;21 / 21;61516;2018-06-12 12:17:10:590
-0.1053;10.3289;-1.5563;0.4706;9.7699;-0.7054;-0.1785;-0.1042;-0.8677;0.1944;0.4037;-0.0629;932.0;-30.48;-23.88;-20.7;265.48;-85.04;-146.29;3.1;996.26;45.158;23.03093;72.5375;29.45;NaN;;3.93;12.903226;83.91;20 / 20;62015;2018-06-12 12:17:11:089
1.9178;7.0416;-1.178;1.0286;9.7507;0.1891;0.9443;-3.1473;-0.972;-0.1569;0.0617;-0.0324;886.0;-27.72;-18.96;-25.44;326.81;-83.88;-79.58;3.1;996.27;45.382;23.03093;72.5375;29.45;NaN;;3.93;12.903226;83.91;20 / 20;62515;2018-06-12 12:17:11:589
0.0359;8.4853;1.2139;0.6982;9.7801;-0.1819;-0.6623;-1.2947;1.3958;-0.0738;-0.3537;-0.0031;960.0;-29.52;-19.74;-21.6;307.26;-85.78;-104.6;3.1;996.28;50.033;23.03093;72.5375;29.45;NaN;;3.93;12.903226;83.91;19 / 19;63015;2018-06-12 12:17:12:089
2.0184;9.0719;-2.5667;1.347;9.7065;-0.3729;0.6714;-0.6346;-2.1938;0.1131;0.237;-0.204;1012.0;-31.68;-18.12;-20.1;309.19;-81.81;-105.47;3.1;996.27;47.871;23.03093;72.5375;29.45;NaN;;3.93;12.903226;83.91;19 / 19;63515;2018-06-12 12:17:12:589
2.8444;8.9618;0.5986;1.6295;9.6678;0.2201;-0.4276;2.0953;1.7001;-0.2839;-0.5083;0.2712;1106.0;-32.28;-15.66;-20.22;333.54;-80.35;-82.31;3.1;996.28;45.865;23.031012;72.53757;28.38;NaN;;3.14;9.677419;62.58;19 / 20;64015;2018-06-12 12:17:13:089
1.5252;12.3018;-1.6066;0.9757;9.7405;-0.5832;-0.2478;2.8486;-0.602;-0.1331;0.1356;0.1075;1104.0;-29.82;-19.56;-21.3;290.59;-83.34;-120.87;3.1;996.28;47.236;23.031012;72.53757;28.38;NaN;;3.14;9.677419;62.58;19 / 20;64516;2018-06-12 12:17:13:590
1.4988;12.5699;1.3264;0.6906;9.7781;0.2845;1.1913;2.8828;0.5511;0.3782;-0.1515;0.0012;1067.0;-25.44;-19.32;-26.22;335.24;-85.63;-67.61;3.1;996.28;48.439;23.031012;72.53757;28.38;NaN;;3.14;9.677419;62.58;21 / 21;65018;2018-06-12 12:17:14:092
0.9577;10.9131;-0.0024;0.727;9.7741;-0.3306;0.2307;1.139;0.3282;-0.2974;0.8118;-0.0654;993.0;-27.24;-21.18;-24.42;291.31;-85.33;-114.46;3.1;996.28;46.998;23.031012;72.53757;28.38;NaN;;3.14;9.677419;62.58;21 / 21;65515;2018-06-12 12:17:14:589
1.2905;7.1397;-1.4126;0.8646;9.7582;0.4471;0.639;-3.5259;-1.8717;0.0667;0.2633;-0.2303;1014.0;-24.48;-18.12;-27.72;336.74;-84.3;-62.66;3.1;996.27;50.83;23.031012;72.53757;28.38;NaN;;3.14;9.677419;62.58;21 / 22;66016;2018-06-12 12:17:15:090
0.2203;5.7894;-0.1149;0.7059;9.7709;0.4474;-0.4186;-2.5235;2.4305;0.4277;0.4025;-0.011;1077.0;-24.54;-19.92;-27.3;344.39;-85.11;-57.63;3.1;996.27;47.168;23.031012;72.53757;28.38;NaN;;3.14;9.677419;62.58;21 / 22;66515;2018-06-12 12:17:15:589
-0.577;8.3273;0.3951;1.1343;9.7169;0.6817;-0.5572;0.521;-1.3353;0.7197;0.4453;-0.0812;1272.0;-22.92;-17.1;-30.36;336.93;-82.24;-58.99;3.1;996.28;45.967;23.031012;72.53757;28.38;NaN;;3.14;9.677419;62.58;20 / 20;67017;2018-06-12 12:17:16:091
3.194;8.2531;-2.0303;1.3602;9.7118;0.0168;1.8337;-1.4588;-2.0472;0.1944;-0.8149;-0.2297;1031.0;-24.42;-19.38;-28.08;317.22;-82.53;-80.52;3.1;996.28;52.222;23.031012;72.53757;28.38;NaN;;3.14;9.677419;62.58;20 / 20;67517;2018-06-12 12:17:16:591
0.9769;11.6146;0.917;1.2552;9.7199;-0.3426;-0.2784;1.8947;1.2596;-0.2241;0.4618;-0.2883;1056.0;-23.34;-20.16;-28.14;289.99;-82.38;-105.27;3.1;996.27;49.417;23.031012;72.53757;28.38;NaN;;3.14;9.677419;62.58;19 / 19;68015;2018-06-12 12:17:17:089
2.0136;13.3409;0.0982;0.8316;9.7644;0.3687;1.182;3.5765;-0.2705;0.2475;-0.1564;-0.1918;944.0;-20.46;-18.96;-30.48;325.91;-84.68;-66.09;3.1;996.26;47.502;23.031012;72.53757;28.38;NaN;;3.14;9.677419;62.58;19 / 19;68515;2018-06-12 12:17:17:589
1.427;11.969;-0.1245;0.5399;9.7862;-0.3311;1.251;1.182;-0.0664;-0.1715;0.2797;0.0134;848.0;-22.26;-21.24;-27.78;274.45;-86.3;-121.51;3.1;996.27;48.002;23.031012;72.53757;28.38;NaN;;3.14;9.677419;62.58;19 / 19;69015;2018-06-12 12:17:18:089
0.3017;8.684;0.2897;0.988;9.6843;1.1866;-0.284;-1.5414;-1.5074;-0.7262;0.1765;0.0116;1305.0;-17.76;-14.64;-35.04;346.47;-80.94;-39.78;3.1;996.26;48.254;23.031012;72.53757;28.38;NaN;;3.14;9.677419;62.58;19 / 19;69515;2018-06-12 12:17:18:589
0.103;7.5683;1.8292;0.7625;8.9602;3.9121;-1.1695;-2.0479;-0.4404;0.8773;0.094;-0.1643;1879.0;-18.48;-4.02;-37.86;16.28;-66.02;-11.03;3.1;996.28;46.81;23.031012;72.53757;28.38;NaN;;3.14;9.677419;62.58;21 / 21;70015;2018-06-12 12:17:19:089