ACCELEROMETER X (m/s²),ACCELEROMETER Y (m/s²),ACCELEROMETER Z (m/s²),GRAVITY X (m/s²),GRAVITY Y (m/s²),GRAVITY Z (m/s²),LINEAR ACCELERATION X (m/s²),LINEAR ACCELERATION Y (m/s²),LINEAR ACCELERATION Z (m/s²),GYROSCOPE X (rad/s),GYROSCOPE Y (rad/s),GYROSCOPE Z (rad/s),LIGHT (lux),MAGNETIC FIELD X (μT),MAGNETIC FIELD Y (μT),MAGNETIC FIELD Z (μT),ORIENTATION Z (azimuth °),ORIENTATION X (pitch °),ORIENTATION Y (roll °),PROXIMITY (i),ATMOSPHERIC PRESSURE (hPa),SOUND LEVEL (dB),LOCATION Latitude : ,LOCATION Longitude : ,LOCATION Altitude ( m),LOCATION Altitude-google ( m),LOCATION Altitude-atmospheric pressure ( m),LOCATION Speed ( Kmh),LOCATION Accuracy ( m),LOCATION ORIENTATION (°),Satellites in range,Time since start in ms ,YYYY-MO-DD HH-MI-SS_SSS,OUT
-0.129,8.085,4.803,-0.581,8.425,4.985,0.564,-0.392,-0.146,0.273,-0.015,0.046,20,-4,-2.1,-40.3,14.8,-59.1,6.7,0,999.7,53.88,23.03461,72.50908,40.3,167.3228349,,0.6,9.67742,,20 / 23,25,2018-08-24 19:42:24:339,4.5
0.227,8.22,4.729,-0.491,8.518,4.835,0.685,-0.255,-0.142,0.112,0.061,0.047,20,-4,-2.9,-41.4,14,-59.9,6.3,0,999.7,53.88,23.03461,72.50908,40.3,167.3228349,,0.6,9.67742,,20 / 23,125,2018-08-24 19:42:24:439,4.5
-0.314,8.619,4.681,-0.46,8.553,4.775,0.166,0.011,-0.072,0.068,0.074,0.055,20,-4,-3.3,-41.2,13.6,-60.6,5.7,0,999.7,53.88,23.03461,72.50908,40.3,167.3228349,,0.6,9.67742,,20 / 23,225,2018-08-24 19:42:24:539,4.5
-0.551,8.849,4.264,-0.377,8.588,4.72,-0.095,0.202,-0.559,0.017,-0.086,0.158,17,-3.1,-3.4,-40.4,11,-60.9,5.1,0,999.7,47.28,23.03461,72.50908,40.3,167.3228349,,0.6,9.67742,,20 / 23,325,2018-08-24 19:42:24:639,4.5
-1.008,8.49,5.109,-0.257,8.565,4.769,-0.772,-0.121,0.391,0.23,-0.05,0.207,17,-4.1,-3,-41.1,10.3,-60.9,3.1,0,999.7,47.28,23.03461,72.50908,40.3,167.3228349,,0.6,9.67742,,20 / 23,425,2018-08-24 19:42:24:739,4.5
-0.029,8.971,2.828,-0.205,8.689,4.542,0.014,0.352,-1.609,0.025,0.509,0.062,16,-3.8,-4.4,-40,9.5,-62.2,2.2,0,999.7,47.28,23.03461,72.50908,40.3,167.3228349,,0.6,9.67742,,20 / 23,525,2018-08-24 19:42:24:839,4.5
-0.642,8.73,4.693,-0.338,8.588,4.723,-0.476,0.036,0.202,-0.219,-0.12,-0.02,12,-2.4,-4.7,-41.3,8.2,-61.4,3.9,0,999.7,45.94,23.03461,72.50908,40.3,167.3228349,,0.5,9.67742,,20 / 23,625,2018-08-24 19:42:24:939,4.5
-1.312,8.481,5.267,-0.404,8.512,4.853,-0.554,-0.141,0.232,0.036,0.4,-0.04,12,-2.2,-3.1,-40.7,10.2,-60.3,4.3,0,999.7,45.94,23.03461,72.50908,40.3,167.3228349,,0.5,9.67742,,20 / 23,726,2018-08-24 19:42:25:040,4.5
-0.505,8.684,5.471,-0.506,8.534,4.805,0.24,-0.128,0.257,0.085,-0.16,-0.133,12,-1.3,-2.7,-41,8.8,-60.5,6,0,999.7,45.94,23.03461,72.50908,40.3,167.3228349,,0.5,9.67742,,20 / 23,825,2018-08-24 19:42:25:139,4.5
-0.857,8.83,4.142,-0.554,8.684,4.522,-0.257,0.325,-0.547,0.137,0.378,0.187,12,-0.8,-4.3,-40.9,9.7,-61.6,6.6,0,999.7,50.39,23.03461,72.50908,40.3,167.3226095,,0.5,9.67742,,20 / 23,926,2018-08-24 19:42:25:240,4.5
-0.563,8.662,3.757,-0.475,8.731,4.44,-0.361,-0.001,-0.456,0.089,0.004,0.251,11,0.4,-5,-41,8.2,-62.6,6.8,0,999.7,50.39,23.03461,72.50908,40.3,167.3226095,,0.5,9.67742,,20 / 23,1025,2018-08-24 19:42:25:339,4.5
-0.831,9.077,3.357,-0.43,8.846,4.211,-0.4,0.23,-0.854,0.282,0.547,0.319,11,0.7,-6.2,-41.9,5.1,-63.9,5.7,0,999.7,50.39,23.03461,72.50908,40.3,167.3226095,,0.5,9.67742,,20 / 23,1125,2018-08-24 19:42:25:439,4.5
-0.678,8.859,4.159,-0.337,8.832,4.249,-0.34,0.027,-0.09,-0.103,-0.23,0.027,12,1.7,-6.7,-39.2,1.9,-64.2,4.5,0,999.7,50.39,23.03461,72.50908,40.3,167.3226095,,0.5,9.67742,,20 / 23,1226,2018-08-24 19:42:25:540,4.5
-0.5,9.041,3.754,-0.253,8.857,4.201,-0.209,0.059,-0.37,0.129,0.155,0.063,12,1.4,-6,-40.3,2.4,-64.5,3.4,0,999.7,55.19,23.03461,72.50908,40.3,167.3226095,,0.5,9.67742,,20 / 23,1325,2018-08-24 19:42:25:639,4.5
0.302,9.084,3.781,-0.211,8.925,4.058,0.536,0.161,-0.297,0.062,0.01,0.013,12,2.2,-6.1,-39.3,358.7,-65.4,3.2,0,999.7,55.19,23.03461,72.50908,40.3,167.3226095,,0.5,9.67742,,20 / 23,1425,2018-08-24 19:42:25:739,4.5
0.206,9.115,4.393,-0.22,8.995,3.901,0.409,0.094,0.55,0.284,0.067,0.027,12,2.5,-7.2,-40.1,358.8,-66.2,3.2,0,999.7,55.19,23.03461,72.50908,40.3,167.3226095,,0.5,9.67742,,20 / 23,1526,2018-08-24 19:42:25:840,4.5
0.096,9.357,3.821,-0.29,9.101,3.641,0.367,0.301,0.563,0.477,0.333,-0.069,12,3,-8.3,-39.4,359.7,-67.7,4.1,0,999.7,57.83,23.03462,72.50908,40.3,167.3226095,,0.6,9.67742,,20 / 23,1625,2018-08-24 19:42:25:939,4.5
-0.053,9.517,3.005,-0.497,9.216,3.314,0.426,0.291,-0.309,0.132,0.473,0.022,13,4.1,-11,-39.2,3.1,-69.4,7,0,999.7,57.83,23.03462,72.50908,40.3,167.3226095,,0.6,9.67742,,20 / 23,1725,2018-08-24 19:42:26:039,4.5
-0.254,9.146,3.721,-0.509,9.167,3.445,0.203,0.008,0.302,-0.114,-0.252,0.005,13,5.9,-9.9,-38.6,0,-69.3,8.7,0,999.7,57.83,23.03462,72.50908,40.3,167.3226095,,0.6,9.67742,,20 / 23,1825,2018-08-24 19:42:26:139,4.5
-0.022,8.931,3.366,-0.382,9.19,3.4,0.384,-0.298,0.201,0.372,0.12,0.171,14,5.4,-10.1,-39.3,359.6,-69.1,6.9,0,999.7,55.02,23.03462,72.50908,40.3,167.3226095,,0.6,9.67742,,20 / 23,1926,2018-08-24 19:42:26:240,4.5
-0.565,9.852,2.133,-0.342,9.332,2.994,-0.242,0.456,-0.852,0.198,0.124,0.191,14,6.5,-11.3,-38.3,358.5,-71.4,6.2,0,999.7,55.02,23.03462,72.50908,40.3,167.3226095,,0.6,9.67742,,20 / 23,2026,2018-08-24 19:42:26:340,4.5
0.017,9.838,2.988,-0.178,9.327,3.024,0.291,0.396,-0.07,0.018,-0.072,0.091,13,6.4,-12.2,-38.7,355.2,-72.2,4.6,0,999.7,55.02,23.03462,72.50908,40.3,167.3226095,,0.6,9.67742,,20 / 23,2125,2018-08-24 19:42:26:439,4.5
1.111,9.687,1.741,0.063,9.465,2.565,1.048,0.222,-0.825,0.734,-0.09,0.148,13,5.9,-13.4,-38.3,348.2,-74.8,-1.4,0,999.7,58.68,23.03462,72.50908,40.3,167.3226095,,0.6,9.67742,,20 / 23,2225,2018-08-24 19:42:26:539,4.5
0.706,10.252,-0.134,0.11,9.637,1.815,0.597,0.616,-1.949,0.601,0.357,0.011,14,5.8,-16.2,-36.9,347.9,-77.9,-3.1,0,999.7,58.68,23.03462,72.50908,40.3,167.3226095,,0.6,9.67742,,20 / 23,2325,2018-08-24 19:42:26:639,4.5
0.457,8.974,1.906,0.108,9.673,1.613,0.145,-0.502,0.372,0.061,0.056,0.046,11,6.9,-17.8,-37.2,344.2,-80.4,-3.6,0,999.7,58.68,23.03462,72.50908,40.3,167.3226095,,0.6,9.67742,,20 / 23,2425,2018-08-24 19:42:26:739,4.5
0.919,8.981,1.755,0.31,9.654,1.697,0.664,-0.692,-0.076,-0.452,-0.098,0.129,11,7.3,-18.7,-36.8,341.1,-80.7,-6.1,0,999.7,58.68,23.03462,72.50908,40.3,167.3226095,,0.6,9.67742,,20 / 23,2525,2018-08-24 19:42:26:839,4.5
0.924,9.469,2.258,0.383,9.586,2.033,0.597,-0.09,0.052,-0.277,0.928,0.079,12,6.2,-17.7,-36.9,336.9,-78.1,-11.2,0,999.7,61.61,23.03462,72.50908,40.3,167.3226095,,0.5,9.67742,,20 / 24,2628,2018-08-24 19:42:26:942,4.5
0.12,9.896,2.813,0.294,9.564,2.148,-0.018,0.142,0.713,0.113,0.347,-0.144,12,8.7,-16.7,-36,334.6,-77.2,-8.3,0,999.7,61.61,23.03462,72.50908,40.3,167.3226095,,0.5,9.67742,,20 / 24,2725,2018-08-24 19:42:27:039,4.5
0.771,10.338,1.441,0.293,9.562,2.156,0.509,0.922,-1.11,-0.929,-0.272,0.058,12,10.4,-16.9,-35.8,334.3,-77.9,-7.3,0,999.7,61.61,23.03462,72.50908,40.3,167.3226095,,0.5,9.67742,,20 / 24,2825,2018-08-24 19:42:27:139,4.5
-0.012,9.769,2.344,0.256,9.485,2.478,-0.356,0.561,0.015,0.273,0.64,0.098,12,10.7,-15.8,-37.7,334.7,-75.1,-6,0,999.7,50.52,23.03462,72.50908,40.3,167.3226095,,0.5,9.67742,,20 / 24,2926,2018-08-24 19:42:27:240,4.5
-0.364,9.618,2.739,0.212,9.484,2.485,-1.095,0.392,0.539,-0.093,-0.115,0.327,12,11.8,-15.6,-36.4,333.8,-75.4,-4.3,0,999.7,50.52,23.03462,72.50908,40.3,167.3226095,,0.5,9.67742,,20 / 24,3025,2018-08-24 19:42:27:339,4.5
0.374,8.639,3.611,0.417,9.402,2.758,-0.041,-0.785,0.845,0.015,0.21,0.106,12,11,-14.7,-36.4,331.4,-73.9,-8.1,0,999.7,50.52,23.03462,72.50908,40.3,167.3226095,,0.5,9.67742,,20 / 24,3125,2018-08-24 19:42:27:439,4.5
-0.4,9.354,3.184,0.327,9.435,2.655,-0.545,-0.128,0.472,0.075,0.313,-0.127,15,11.7,-15.3,-36.8,330.4,-74,-8.5,0,999.7,50.61,23.03462,72.50908,40.3,167.3226095,,0.5,9.67742,,20 / 24,3225,2018-08-24 19:42:27:539,4.5
0.153,9.649,2.038,0.342,9.451,2.596,-0.189,0.198,-0.559,0.074,0.047,0.118,13,12,-15.7,-35.1,329.2,-74.5,-7.5,0,999.7,50.61,23.03462,72.50908,40.3,167.3226095,,0.5,9.67742,,20 / 24,3325,2018-08-24 19:42:27:639,4.5
0.56,9.773,1.566,0.468,9.482,2.458,0.111,0.284,-0.94,0.117,0.029,0.046,13,10.6,-15.7,-36.3,327.5,-74.8,-9.5,0,999.7,50.61,23.03462,72.50908,40.3,167.3226095,,0.5,9.67742,,20 / 24,3426,2018-08-24 19:42:27:740,4.5
0.754,9.845,1.592,0.484,9.519,2.306,0.311,0.343,-0.656,0.008,0.006,-0.032,12,11.9,-16.3,-35.8,325.7,-75.9,-11.7,0,999.7,48.73,23.03462,72.50908,40.3,167.3226095,,0.5,9.67742,,20 / 24,3526,2018-08-24 19:42:27:840,4.5
1.039,9.541,2.308,0.482,9.538,2.228,0.557,0.003,0.08,-0.007,-0.219,-0.167,12,12.1,-16.9,-35.5,324.4,-76.5,-12.3,0,999.7,48.73,23.03462,72.50908,40.3,167.3226095,,0.5,9.67742,,20 / 24,3625,2018-08-24 19:42:27:939,4.5
0.838,9.319,2.552,0.468,9.542,2.213,0.327,-0.195,0.426,0.006,-0.126,-0.086,11,11.7,-16.1,-36.1,327.4,-76.7,-11.9,0,999.7,48.73,23.03462,72.50908,40.3,167.3226095,,0.5,9.67742,,20 / 23,3725,2018-08-24 19:42:28:039,4.5
0.431,9.319,2.962,0.413,9.535,2.253,0.018,-0.217,0.709,0.114,-0.119,-0.12,11,11.9,-16,-35.8,325.5,-76.5,-10.7,0,999.7,48.73,23.03462,72.50908,40.3,167.3226095,,0.5,9.67742,,20 / 23,3826,2018-08-24 19:42:28:140,4.5
0.256,9.721,2.052,0.341,9.56,2.159,-0.058,0.146,-0.093,0.05,-0.04,-0.001,11,11.8,-16.9,-35.8,328.9,-77,-9,0,999.7,53.62,23.03462,72.50908,40.3,167.3226095,,0.5,9.67742,,20 / 23,3925,2018-08-24 19:42:28:239,4.5
-0.441,9.919,2.236,0.246,9.579,2.087,-0.653,0.25,0.259,-0.16,-0.067,0.099,11,11.3,-17.6,-35.9,329.8,-77.5,-7.8,0,999.7,53.62,23.03462,72.50908,40.3,167.3226095,,0.5,9.67742,,20 / 23,4026,2018-08-24 19:42:28:340,4.5
0.01,10.008,1.422,0.202,9.621,1.887,-0.145,0.346,-0.465,0.309,-0.008,0.202,12,10.4,-17.3,-35.6,336.8,-78.4,-5.2,0,999.7,53.62,23.03462,72.50908,40.3,167.3226095,,0.5,9.67742,,20 / 23,4125,2018-08-24 19:42:28:439,4.5
-0.168,9.908,0.948,0.249,9.664,1.65,-0.417,0.244,-0.702,0.281,0.555,0.117,11,10.6,-18.5,-35.6,331.8,-79.7,-8.5,0,999.7,57.22,23.03462,72.50908,40.3,167.3226095,,0.5,9.67742,,20 / 23,4225,2018-08-24 19:42:28:539,4.5
-0.735,10.305,1.762,0.143,9.67,1.625,-0.878,0.635,0.137,0.022,0.278,0.048,11,11.6,-18.5,-34.8,330.4,-80.5,-7.9,0,999.7,57.22,23.03462,72.50908,40.3,167.3226095,,0.5,9.67742,,20 / 23,4325,2018-08-24 19:42:28:639,4.5
-0.374,10.099,2.097,0.042,9.661,1.683,-0.416,0.438,0.414,0.071,0.152,-0.033,12,13.5,-18.3,-34.3,332.9,-80.1,-2.2,0,999.7,57.22,23.03462,72.50908,40.3,167.3226095,,0.5,9.67742,,20 / 23,4426,2018-08-24 19:42:28:740,4.5
-0.364,9.659,1.767,-0.058,9.673,1.611,-0.308,0.198,-0.024,-0.031,0.327,0.007,12,13.8,-19,-33.7,336.7,-80.5,1.3,0,999.7,54.22,23.03462,72.50908,40.3,167.3226095,,0.5,9.67742,,20 / 23,4528,2018-08-24 19:42:28:842,4.5
-0.177,9.773,1.836,-0.076,9.662,1.676,0.109,0.229,0.01,-0.094,0.353,0.132,14,15.5,-18.8,-32.9,338.5,-80.3,2.9,0,999.7,54.22,23.03462,72.50908,40.3,167.3226095,,0.5,9.67742,,20 / 21,4625,2018-08-24 19:42:28:939,4.5
-0.273,9.802,1.959,-0.009,9.647,1.761,-0.274,0.081,0.161,0.14,0.339,0.132,14,15.5,-18.5,-33.2,333.3,-79.5,0.6,0,999.7,54.22,23.03462,72.50908,40.3,167.3226095,,0.5,9.67742,,20 / 21,4726,2018-08-24 19:42:29:040,4.5
-0.014,9.323,1.829,0.1,9.661,1.679,-0.114,-0.338,0.151,0.01,0.307,0.167,14,16.9,-19.2,-32.3,325.9,-80.1,-2.8,0,999.7,54.38,23.03462,72.50908,40.3,167.3226095,,0.5,9.67742,,20 / 21,4826,2018-08-24 19:42:29:140,4.5
0.824,9.321,0.869,0.193,9.668,1.634,0.642,-0.342,-0.781,0.05,0.577,0.027,14,16.9,-19.6,-31.4,323.5,-80.2,-6.2,0,999.7,54.38,23.03462,72.50908,40.3,167.3226095,,0.5,9.67742,,20 / 21,4925,2018-08-24 19:42:29:239,4.5
1.532,9.524,0.479,0.155,9.681,1.558,1.382,-0.152,-1.099,-0.113,0.445,-0.107,12,18.5,-19.9,-30.7,319.9,-80.8,-6.3,0,999.7,54.38,23.03462,72.50908,40.3,167.3226095,,0.5,9.67742,,20 / 21,5025,2018-08-24 19:42:29:339,4.5
0.038,9.34,2.964,-0.025,9.641,1.795,-0.095,-0.365,1.214,0.035,0.345,-0.091,13,21.3,-18.8,-29.9,320.9,-79.8,-0.5,0,999.7,55.3,23.03462,72.50908,40.3,167.3226095,,0.5,9.67742,,20 / 21,5125,2018-08-24 19:42:29:439,4.5
0.115,10.245,2.267,-0.132,9.662,1.671,0.276,0.614,0.568,0.212,0.403,0.043,13,22.1,-19.1,-28.8,322.4,-79.7,3.3,0,999.7,55.3,23.03462,72.50908,40.3,167.3226095,,0.5,9.67742,,20 / 21,5225,2018-08-24 19:42:29:539,4.5
-0.227,10.013,1.164,-0.107,9.699,1.446,-0.082,0.369,-0.383,0.336,0.489,0.141,12,22.8,-20,-27.1,320.4,-81.5,4.2,0,999.7,55.3,23.03462,72.50908,40.3,167.3226095,,0.5,9.67742,,20 / 21,5327,2018-08-24 19:42:29:641,4.5
-0.347,10.025,1.654,-0.037,9.686,1.535,-0.36,0.308,0.136,-0.13,0.112,0.03,12,24.8,-20.3,-26.3,313.5,-81,1.4,0,999.7,55.3,23.03462,72.50908,40.3,167.3226095,,0.5,9.67742,,20 / 21,5427,2018-08-24 19:42:29:741,4.5
-0.977,9.855,1.784,-0.001,9.674,1.61,-0.876,0.121,0.16,0.085,0.433,0.047,11,24.6,-20.3,-26.6,311.3,-80.5,-0.5,0,999.7,52.09,23.03462,72.50908,40.3,167.3226095,,0.5,9.67742,,20 / 21,5527,2018-08-24 19:42:29:841,4.5
-0.165,10.003,1.652,0.068,9.679,1.575,-0.104,0.236,0.139,-0.059,0.039,0.062,11,25.9,-20.9,-24.8,309.3,-80.9,-1.3,0,999.7,52.09,23.03462,72.50908,40.3,167.3226095,,0.5,9.67742,,20 / 21,5625,2018-08-24 19:42:29:939,4.5
0.623,9.465,0.644,0.161,9.69,1.501,0.408,-0.163,-1.006,0.093,0.046,0.004,10,25.1,-21.2,-24.4,302.8,-81.1,-6.1,0,999.7,52.09,23.03462,72.50908,40.3,167.3226095,,0.5,9.67742,,20 / 20,5726,2018-08-24 19:42:30:040,4.5
-0.259,9.232,0.936,0.039,9.692,1.497,-0.307,-0.474,-0.494,-0.087,0.175,-0.138,10,25.9,-21.1,-23.9,305.4,-81.3,-2.7,0,999.7,53.04,23.03462,72.50908,40.3,167.3226095,,0.5,9.67742,,20 / 20,5825,2018-08-24 19:42:30:139,4.5
-1.19,9.474,1.853,-0.178,9.687,1.516,-0.911,-0.232,0.308,-0.037,0.483,-0.089,10,27.5,-20.3,-23.5,312.7,-81.1,5.1,0,999.7,53.04,23.03462,72.50908,40.3,167.3226095,,0.5,9.67742,,20 / 20,5926,2018-08-24 19:42:30:240,4.5
-1.037,9.747,1.915,-0.297,9.674,1.583,-0.611,0.052,0.325,-0.108,0.221,0.112,10,28.7,-20.5,-22.9,315,-80.7,10.7,0,999.7,53.04,23.03462,72.50908,40.3,167.3226095,,0.5,9.67742,,20 / 20,6025,2018-08-24 19:42:30:339,4.5
-0.536,9.659,1.891,-0.225,9.642,1.774,-0.278,0.026,0.041,-0.375,0.134,0.167,10,28.6,-20.2,-21.5,309.3,-79.8,8.2,0,999.7,53.04,23.03462,72.50908,40.3,167.3226095,,0.5,9.67742,,20 / 20,6126,2018-08-24 19:42:30:440,4.5
-0.385,10.178,1.93,-0.171,9.633,1.828,-0.251,0.566,0.102,0.135,0.367,0.185,11,29.2,-20.8,-21.4,305.9,-79,5.8,0,999.7,54.56,23.03462,72.50908,40.3,167.3226095,,0.5,9.67742,,20 / 20,6225,2018-08-24 19:42:30:539,4.5
-0.522,9.924,2.04,-0.109,9.646,1.764,-0.343,0.247,0.256,0.104,0.207,0.169,11,29.5,-20.9,-19.7,301.6,-79.6,3.5,0,999.7,54.56,23.03462,72.50908,40.3,167.3226095,,0.5,9.67742,,20 / 20,6325,2018-08-24 19:42:30:639,4.5
-0.362,9.536,2.559,-0.024,9.656,1.713,-0.364,-0.141,0.952,0.284,-0.029,0.121,11,29.7,-21.5,-20,299.4,-79.7,1.6,0,999.7,54.56,23.03462,72.50908,40.3,167.3226095,,0.5,9.67742,,20 / 20,6425,2018-08-24 19:42:30:739,4.5
-0.362,9.886,2.509,0.029,9.662,1.677,-0.409,0.312,0.756,-0.231,0.084,0.129,11,29.9,-22.1,-18.5,294.5,-80.4,-0.6,0,999.7,54.88,23.03462,72.50908,40.3,167.3226095,,0.5,9.67742,,20 / 20,6525,2018-08-24 19:42:30:839,4.5
0.453,9.704,1.425,0.067,9.651,1.737,0.345,0.108,-0.338,-0.08,0.412,0.043,11,29,-22,-18.4,294.8,-79.8,-2.2,0,999.7,54.88,23.03462,72.50909,40.2,167.3226095,,0,12.90323,,20 / 21,6626,2018-08-24 19:42:30:940,4.5
0.275,9.603,1.81,0.058,9.651,1.74,0.191,-0.086,0.008,0.073,0.027,0.021,11,30,-22,-17.8,293.6,-79.7,-1.8,0,999.7,54.88,23.03462,72.50909,40.2,167.3226095,,0,12.90323,,20 / 21,6725,2018-08-24 19:42:31:039,4.5
0.4,9.548,1.772,0.118,9.643,1.782,0.282,-0.094,-0.011,-0.017,0.059,0.029,12,30.1,-22.4,-18.4,291.9,-79.7,-2.6,0,999.7,54.12,23.03462,72.50909,40.2,167.3226095,,0,12.90323,,20 / 21,6826,2018-08-24 19:42:31:140,4.5
0.443,9.342,2.026,0.206,9.617,1.906,0.289,-0.297,0.496,0.095,0.092,-0.119,12,30.2,-22.4,-18.1,289.2,-79.2,-5,0,999.7,54.12,23.03462,72.50909,40.2,167.3226095,,0,12.90323,,20 / 21,6926,2018-08-24 19:42:31:240,4.5
-0.366,9.45,1.525,0.118,9.636,1.816,-0.484,-0.186,-0.291,-0.031,0.064,-0.094,12,30.7,-21.8,-16.9,287.3,-79.3,-4.7,0,999.7,54.12,23.03462,72.50909,40.2,167.3226095,,0,12.90323,,20 / 21,7025,2018-08-24 19:42:31:339,4.5
0.199,9.515,0.929,0.108,9.632,1.84,0.119,-0.208,-0.844,-0.217,0.073,0.04,11,30.3,-22.4,-16.6,289.1,-79.4,-3.4,0,999.7,55.36,23.03462,72.50909,40.2,167.3226095,,0,12.90323,,20 / 21,7125,2018-08-24 19:42:31:439,4.5
0.354,9.563,1.544,0.051,9.588,2.057,0.303,-0.026,-0.513,-0.188,0.163,-0.122,11,31.2,-21.7,-16.3,287.7,-78.2,-2.6,0,999.7,55.36,23.03462,72.50909,40.2,167.3226095,,0,12.90323,,20 / 21,7226,2018-08-24 19:42:31:540,4.5
0.364,9.912,2.129,-0.108,9.553,2.215,0.417,0.384,-0.058,-0.062,0.112,-0.262,12,31.7,-19.9,-16.6,290,-77.3,0.5,0,999.7,55.36,23.03462,72.50909,40.2,167.3226095,,0,12.90323,,20 / 21,7326,2018-08-24 19:42:31:640,4.5
-0.766,10.18,2.301,-0.355,9.56,2.155,-0.382,0.56,0.103,-0.022,0.249,-0.119,12,33.5,-18.8,-15.2,296.1,-77.1,8.4,0,999.7,55.36,23.03462,72.50909,40.2,167.3226095,,0,12.90323,,20 / 21,7425,2018-08-24 19:42:31:739,4.5
-0.426,10.188,1.944,-0.4,9.549,2.195,0.062,0.619,-0.335,-0.014,0.057,0.139,12,33.4,-18.1,-14.5,298.7,-76.8,10.8,0,999.7,53.56,23.03462,72.50909,40.2,167.3226095,,0,12.90323,,20 / 21,7525,2018-08-24 19:42:31:839,4.5
-0.06,10.01,2.143,-0.264,9.535,2.276,0.176,0.482,0.021,0.052,-0.037,0.214,12,33,-17,-15,295.5,-76.4,7.5,0,999.7,53.56,23.03462,72.50909,40.2,167.3226095,,0,12.90323,,20 / 21,7625,2018-08-24 19:42:31:939,4.5
0.184,9.594,2.564,-0.037,9.513,2.38,0.221,0.08,0.184,-0.114,-0.29,0.069,12,31.9,-17.9,-15.7,291.4,-76.2,2,0,999.7,53.56,23.03462,72.50909,40.2,167.3226095,,0,12.90323,,22 / 22,7725,2018-08-24 19:42:32:039,4.5
-1.188,8.969,3.611,-0.042,9.468,2.553,-1.17,-0.485,1.052,-0.208,0.12,0.047,11,32.3,-17.8,-16.1,289.6,-75,0.9,0,999.7,53.64,23.03462,72.50909,40.2,167.3226095,,0,12.90323,,22 / 22,7826,2018-08-24 19:42:32:140,4.5
-1.116,9.125,2.236,-0.171,9.413,2.746,-0.962,-0.3,-0.404,-0.426,0.189,-0.017,11,31.1,-17.1,-16.1,292,-74.3,2.7,0,999.7,53.64,23.03462,72.50909,40.2,167.3226095,,0,12.90323,,22 / 22,7926,2018-08-24 19:42:32:240,4.5
-0.682,9.52,2.818,-0.28,9.31,3.067,-0.419,0.259,-0.237,-0.136,0.218,0.056,12,31.5,-16.4,-16.5,292.6,-72,4.7,0,999.7,53.64,23.03462,72.50909,40.2,167.3226095,,0,12.90323,,22 / 22,8026,2018-08-24 19:42:32:340,4.5
-0.366,9.694,2.923,-0.35,9.307,3.07,-0.017,0.387,-0.146,0.066,0.205,0.087,12,31.4,-16.1,-15.4,292.4,-71.6,6.4,0,999.7,53.22,23.03462,72.50909,40.2,167.3226095,,0,12.90323,,22 / 22,8126,2018-08-24 19:42:32:440,4.5
-0.168,9.496,2.873,-0.342,9.355,2.921,0.175,0.14,-0.048,0.236,0.107,0.124,12,31.6,-17.2,-15.3,293.4,-72.3,6.9,0,999.7,53.22,23.03462,72.50909,40.2,167.3226095,,0,12.90323,,22 / 22,8225,2018-08-24 19:42:32:539,4.5
-0.144,9.412,2.684,-0.246,9.404,2.77,0.1,-0.145,0.285,0.132,-0.027,0.151,12,32,-17.3,-13.7,290.2,-73.5,5.1,0,999.7,53.22,23.03462,72.50909,40.2,167.3226095,,0,12.90323,,22 / 22,8325,2018-08-24 19:42:32:639,4.5
-0.098,9.472,3.18,-0.103,9.445,2.637,-0.086,0.003,0.555,0.28,-0.128,0.121,13,31.4,-17.3,-13.6,288.8,-74.1,2.9,0,999.7,53.22,23.03462,72.50909,40.2,167.3226095,,0,12.90323,,22 / 22,8426,2018-08-24 19:42:32:740,4.5
-0.211,9.903,2.892,0.058,9.547,2.24,-0.268,0.339,0.721,0.515,-0.135,0.225,13,31,-19.3,-11.8,284.6,-75.5,0.4,0,999.7,54.73,23.03462,72.50909,40.2,167.3226095,,0,12.90323,,22 / 22,8526,2018-08-24 19:42:32:840,4.5
0.678,10.374,1.635,0.294,9.629,1.832,0.405,0.747,-0.19,0.496,0.031,0.109,12,32.4,-17.7,-13.3,278.3,-78.3,-7.5,0,999.7,54.73,23.03462,72.50908,40.2,167.3226095,,0.2,12.90323,,23 / 23,8626,2018-08-24 19:42:32:940,4.5
1.142,9.508,1.212,0.431,9.652,1.681,0.711,-0.144,-0.469,-0.268,-0.185,-0.045,11,31.9,-18.4,-13.8,272.9,-80.1,-13.9,0,999.7,54.73,23.03462,72.50908,40.2,167.3226095,,0.2,12.90323,,23 / 23,8727,2018-08-24 19:42:33:041,4.5
0.067,8.957,2.701,0.422,9.626,1.824,-0.35,-0.674,0.896,0.016,-0.013,-0.033,11,31.6,-17.7,-14.2,275.9,-79.1,-13.5,0,999.7,54.44,23.03462,72.50908,40.2,167.3226095,,0.2,12.90323,,23 / 23,8825,2018-08-24 19:42:33:139,4.5
1.058,8.636,1.259,0.471,9.632,1.781,0.558,-0.792,-0.74,0.198,0.022,0.06,11,31,-17.9,-13.5,272,-79.2,-14.8,0,999.7,54.44,23.03462,72.50908,40.2,167.3226095,,0.2,12.90323,,23 / 23,8925,2018-08-24 19:42:33:239,4.5
1.362,9.345,0.73,0.603,9.625,1.779,0.838,-0.256,-1.003,-0.38,-0.029,0.04,11,31.1,-18.4,-13.1,269.5,-79.4,-18.1,0,999.7,54.44,23.03462,72.50908,40.2,167.3226095,,0.2,12.90323,,23 / 23,9026,2018-08-24 19:42:33:340,4.5
1.403,9.575,2.272,0.604,9.551,2.14,0.799,0.023,0.132,-0.345,-0.026,-0.193,11,32.1,-17.4,-15.1,272.2,-77.2,-16.6,0,999.7,55.52,23.03462,72.50908,40.2,167.3226095,,0.2,12.90323,,23 / 23,9125,2018-08-24 19:42:33:439,4.5
0.716,9.84,2.964,0.43,9.53,2.274,0.215,0.32,0.865,-0.107,0.022,-0.178,11,31.9,-17,-14.7,277.6,-76.4,-10.7,0,999.7,55.52,23.03462,72.50908,40.2,167.3226095,,0.2,12.90323,,23 / 23,9225,2018-08-24 19:42:33:539,4.5
0.453,9.867,2.715,0.303,9.512,2.366,0.126,0.376,0.316,0.01,0.249,-0.076,11,32.5,-15.8,-14.9,279.9,-75.9,-7.9,0,999.7,55.52,23.03462,72.50908,40.2,167.3226095,,0.2,12.90323,,23 / 23,9325,2018-08-24 19:42:33:639,4.5
0.294,9.886,2.361,0.186,9.526,2.323,0.06,0.442,0.083,0.161,0.13,-0.061,11,33,-15.7,-14.6,282.9,-76,-5,0,999.7,55.86,23.03462,72.50908,40.2,167.3226095,,0.2,12.90323,,23 / 23,9425,2018-08-24 19:42:33:739,4.5
0.177,9.903,2.334,0.143,9.557,2.194,-0.038,0.451,0.081,0.101,0.047,0.044,12,33.7,-15.3,-14.5,283.2,-76.9,-3.6,0,999.7,55.86,23.03462,72.50908,40.2,167.3226095,,0.2,12.90323,,23 / 23,9525,2018-08-24 19:42:33:839,4.5
0.11,9.472,2.349,0.188,9.569,2.139,-0.2,-0.015,0.313,0.116,0.134,0.037,12,32.7,-15,-13.7,281.1,-77.2,-4.7,0,999.7,55.86,23.03462,72.50908,40.3,167.3226095,,0.4,12.90323,,23 / 23,9625,2018-08-24 19:42:33:939,4.5
0.271,10.03,1.427,0.257,9.575,2.104,0.02,0.443,-0.711,-0.088,-0.084,0.132,12,32.8,-15.8,-13.2,279.6,-77.5,-6.4,0,999.7,53.84,23.03462,72.50908,40.3,167.3226095,,0.4,12.90323,,20 / 21,9725,2018-08-24 19:42:34:039,4.5
-0.024,9.098,2.871,0.417,9.516,2.333,-0.413,-0.252,0.279,-0.479,-0.382,0.083,12,32.1,-15.7,-13.1,275.2,-76,-10.1,0,999.7,53.84,23.03462,72.50908,40.3,167.3226095,,0.4,12.90323,,20 / 21,9826,2018-08-24 19:42:34:140,4.5
-0.453,9.639,3.184,0.435,9.454,2.57,-0.854,0.073,0.825,0.161,0.276,0.021,12,31.6,-15.6,-16.1,279.1,-74.6,-10.6,0,999.7,53.84,23.03462,72.50908,40.3,167.3226095,,0.4,12.90323,,20 / 21,9926,2018-08-24 19:42:34:240,4.5
-0.022,9.68,2.646,0.435,9.45,2.585,-0.45,0.187,0.108,0.018,-0.051,0.044,12,31.4,-15.5,-15.9,280.3,-74.5,-9.5,0,999.7,53.84,23.03462,72.50908,40.3,167.3226095,,0.4,12.90323,,20 / 21,10025,2018-08-24 19:42:34:339,4.5
0.134,9.352,3.151,0.468,9.441,2.611,-0.334,-0.089,0.54,-0.034,-0.171,0.045,12,31.1,-15.2,-15.7,279.9,-74.3,-10.2,0,999.7,54.99,23.03462,72.50908,40.3,167.3226095,,0.4,12.90323,,20 / 21,10125,2018-08-24 19:42:34:439,4.5
0.294,9.553,2.231,0.428,9.462,2.541,-0.124,0.096,-0.297,0.075,-0.012,0.002,11,30.8,-15.5,-15.4,278.6,-74.6,-9.6,0,999.7,54.99,23.03462,72.50908,40.3,167.3226095,,0.4,12.90323,,20 / 21,10227,2018-08-24 19:42:34:541,4.5
0.481,9.388,1.939,0.418,9.488,2.442,0.025,-0.105,-0.503,0.136,0.048,-0.028,11,30.9,-16.3,-15.8,280.3,-75.2,-9.7,0,999.7,54.99,23.03462,72.50908,40.3,167.3226095,,0.4,12.90323,,20 / 21,10325,2018-08-24 19:42:34:639,4.5
0.658,9.548,1.511,0.405,9.526,2.294,0.253,0.022,-0.783,0.089,-0.003,-0.055,12,30.1,-15.9,-15.4,279.7,-76.3,-10,0,999.7,53.56,23.03462,72.50908,40.3,167.3226095,,0.4,12.90323,,20 / 21,10425,2018-08-24 19:42:34:739,4.5
0.395,9.419,2.006,0.451,9.545,2.205,0.227,-0.028,-0.304,-0.132,-0.049,0.058,12,30.7,-15.7,-15.7,278.3,-76.9,-11.1,0,999.7,53.56,23.03462,72.50908,40.3,167.3226095,,0.4,12.90323,,20 / 21,10525,2018-08-24 19:42:34:839,4.5
0.397,9.659,2.567,0.521,9.516,2.313,-0.076,0.054,0.392,-0.149,-0.021,0.112,12,31,-16.5,-15.3,276.9,-76.5,-12,0,999.7,53.56,23.03461,72.50908,40.3,167.3226095,,0.2,12.90323,,20 / 21,10625,2018-08-24 19:42:34:939,4.5
0.5,9.738,2.82,0.568,9.496,2.381,0.117,0.296,0.246,0.075,0.165,0.018,11,30,-15.7,-16,278.3,-75.6,-13.2,0,999.7,53.7,23.03461,72.50908,40.3,167.3226095,,0.2,12.90323,,21 / 22,10725,2018-08-24 19:42:35:039,4.5
0.534,9.656,2.064,0.532,9.53,2.25,0.022,0.339,-0.265,0.178,0.182,-0.033,11,30.6,-16.3,-15.5,277.2,-76.1,-13.4,0,999.7,53.7,23.03461,72.50908,40.3,167.3226095,,0.2,12.90323,,21 / 22,10826,2018-08-24 19:42:35:140,4.5
0.62,9.436,1.082,0.395,9.594,1.99,0.01,-0.003,-0.92,0.372,0.526,-0.099,11,31.3,-16.1,-14.3,276.4,-77.6,-11.8,0,999.7,53.7,23.03461,72.50908,40.3,167.3226095,,0.2,12.90323,,21 / 22,10926,2018-08-24 19:42:35:240,4.5
-0.306,9.953,2.643,0.295,9.601,1.975,-0.606,0.309,0.767,-0.32,-0.227,-0.025,11,32.3,-15.8,-14.1,278.8,-78.9,-9.5,0,999.7,54.84,23.03461,72.50908,40.3,167.3226095,,0.2,12.90323,,21 / 22,11027,2018-08-24 19:42:35:341,4.5
0.129,9.936,2.361,0.338,9.596,1.993,-0.207,0.34,0.368,0.203,0.089,0.062,11,30.7,-16.1,-14.3,279.5,-77.8,-8.8,0,999.7,54.84,23.03461,72.50908,40.3,167.3226095,,0.2,12.90323,,21 / 22,11125,2018-08-24 19:42:35:439,4.5
0.172,10.168,1.374,0.394,9.629,1.816,-0.274,0.678,-0.566,0.118,0.137,0.124,11,31.6,-17.2,-14.1,276.6,-78.8,-11.4,0,999.7,54.84,23.03461,72.50908,40.3,167.3226095,,0.2,12.90323,,21 / 22,11225,2018-08-24 19:42:35:539,4.5
0.907,9.149,0.9,0.508,9.633,1.768,0.325,-0.472,-0.727,0.076,0.01,0.108,11,31.4,-17.1,-14.1,274.6,-79.1,-14.1,0,999.7,54.84,23.03461,72.50908,40.3,167.3226095,,0.2,12.90323,,21 / 22,11325,2018-08-24 19:42:35:639,4.5
0.381,9.498,1.86,0.527,9.629,1.782,-0.125,-0.112,0.078,-0.074,0.092,-0.034,11,31.3,-17.4,-13.1,270.1,-79.2,-16.8,0,999.7,54.96,23.03461,72.50908,40.3,167.3226095,,0.2,12.90323,,21 / 22,11426,2018-08-24 19:42:35:740,4.5
0.05,9.644,2.061,0.436,9.622,1.843,-0.433,0.058,0.266,0.054,0.325,0.033,11,31.3,-16.6,-13.3,273.2,-78.8,-13.8,0,999.7,54.96,23.03461,72.50908,40.3,167.3226095,,0.2,12.90323,,21 / 22,11526,2018-08-24 19:42:35:840,4.5
0.122,9.283,2.595,0.429,9.59,2.007,-0.307,-0.307,0.589,-0.322,0.237,0.084,11,32.3,-17.3,-12.7,273.8,-78.6,-12.5,0,999.7,54.96,23.03461,72.50908,40.3,167.3226095,,0.2,12.90323,,21 / 22,11626,2018-08-24 19:42:35:940,4.5
0.048,9.754,2.15,0.427,9.565,2.122,-0.276,0.127,-0.08,-0.024,0.451,0.106,11,32.3,-17.9,-12,273.6,-77.3,-11.7,0,999.7,53.98,23.03461,72.50908,40.3,167.3226095,,0.2,12.90323,,21 / 22,11727,2018-08-24 19:42:36:041,4.5
0.757,9.814,1.647,0.447,9.549,2.188,0.273,0.26,-0.543,0.014,0.556,0.086,11,32.7,-18.4,-10.7,270.1,-76.9,-11.8,0,999.7,53.98,23.03461,72.50908,40.3,167.3226095,,0.2,12.90323,,21 / 22,11827,2018-08-24 19:42:36:141,4.5
0.843,9.534,2.009,0.428,9.538,2.24,0.417,0.015,-0.331,-0.184,0.425,0.013,11,33.3,-18.3,-9.7,268.8,-76.7,-11,0,999.7,53.98,23.03461,72.50908,40.3,167.3226095,,0.2,12.90323,,21 / 22,11928,2018-08-24 19:42:36:242,4.5
0.646,9.721,2.229,0.318,9.522,2.325,0.438,0.118,-0.058,-0.066,0.545,-0.058,8,33.8,-18.1,-8.4,267.5,-76.2,-8.5,0,999.7,55.29,23.03461,72.50908,40.3,167.3226095,,0.2,12.90323,,21 / 22,12026,2018-08-24 19:42:36:340,4.5
-0.074,9.431,2.99,0.166,9.501,2.423,-0.214,-0.104,0.594,0.046,0.591,0.005,8,34.7,-18.4,-6.3,268.7,-75.8,-5.3,0,999.7,55.29,23.03461,72.50908,40.3,167.3226095,,0.2,12.90323,,21 / 22,12125,2018-08-24 19:42:36:439,4.5
-0.508,9.244,3.11,0.062,9.497,2.445,-0.529,-0.174,0.752,-0.005,0.555,0.12,9,35.5,-18.7,-5,268.8,-75.6,-1.5,0,999.7,55.29,23.03461,72.50908,40.3,167.3226095,,0.2,12.90323,,21 / 22,12225,2018-08-24 19:42:36:539,4.5
-0.441,10.152,2.959,-0.016,9.461,2.581,-0.425,0.691,0.379,-0.213,0.767,0.109,9,35.3,-19.3,-2.7,266.3,-75.3,-0.7,0,999.7,55.54,23.03461,72.50908,40.3,167.3226095,,0.2,12.90323,,21 / 22,12325,2018-08-24 19:42:36:639,4.5
-1.659,9.534,4.858,-0.058,9.374,2.88,-1.561,0.304,1.848,-0.184,0.659,0.347,9,34.7,-19.6,-0.4,261.8,-73.4,1.2,0,999.7,55.54,23.03461,72.50908,40.3,167.3226095,,0.2,12.90323,,21 / 22,12425,2018-08-24 19:42:36:739,4.5
-1.53,9.486,3.666,-0.132,9.384,2.846,-1.398,0.103,0.819,0.435,0.974,0.563,8,34.9,-20,3.2,258.5,-73.1,2.7,3,999.7,55.54,23.03461,72.50908,40.3,167.3226095,,0.2,12.90323,,21 / 22,12525,2018-08-24 19:42:36:839,4.5
-0.433,9.17,2.473,-0.043,9.449,2.624,-0.426,-0.279,-0.24,0.394,1.087,0.536,8,32.3,-22.3,7.9,248.1,-74.1,1.5,3,999.7,54.2,23.03462,72.50908,40.4,167.3226095,,0.6,12.90323,,23 / 24,12625,2018-08-24 19:42:36:939,4.5
0.237,8.859,1.408,0.056,9.546,2.246,0.159,-0.639,-0.85,0.537,1.701,0.335,6,31.1,-22.3,12.3,241.2,-75.8,-1.1,3,999.7,54.2,23.03462,72.50908,40.4,167.3226095,,0.6,12.90323,,23 / 24,12725,2018-08-24 19:42:37:039,4.5
-0.005,9.52,1.276,0.031,9.617,1.919,-0.036,-0.097,-0.643,0.053,1.465,0.321,6,28,-23.4,18.1,232.8,-78.2,-1,3,999.7,54.2,23.03462,72.50908,40.4,167.3226095,,0.6,12.90323,,23 / 24,12826,2018-08-24 19:42:37:140,4.5
0.476,9.283,2.076,0.138,9.606,1.967,0.315,-0.331,-0.032,-0.191,1.343,0.421,5,24.3,-24.4,21.4,220.7,-78.6,-3.1,3,999.7,54.2,23.03462,72.50908,40.4,167.3226095,,0.6,12.90323,,23 / 24,12926,2018-08-24 19:42:37:240,4.5
1.257,9.376,2.548,0.31,9.559,2.166,0.882,-0.128,0.425,-0.143,1.236,0.377,5,19.4,-25.7,24.4,209.4,-77.4,-7.5,3,999.7,54.11,23.03462,72.50908,40.4,167.3226095,,0.6,12.90323,,23 / 24,13026,2018-08-24 19:42:37:340,4.5
1.116,9.419,3.316,0.392,9.503,2.39,0.846,-0.165,1.106,0.032,0.864,0.128,4,15.4,-27.1,24.5,198.2,-75.9,-9.3,3,999.7,54.11,23.03462,72.50908,40.4,167.3226095,,0.6,12.90323,,23 / 24,13125,2018-08-24 19:42:37:439,4.5
0.364,9.812,2.653,0.297,9.509,2.378,0.067,0.302,0.275,0.149,0.77,0.035,4,12.4,-27.1,27.5,194.2,-75.5,-8.8,3,999.7,54.11,23.03462,72.50908,40.4,167.3226095,,0.6,12.90323,,23 / 24,13225,2018-08-24 19:42:37:539,4.5
0.414,9.529,1.865,0.213,9.522,2.337,0.233,0.012,-0.428,0.149,0.458,0.009,4,11,-26.9,28.5,192.8,-76,-5.6,3,999.7,53.24,23.03462,72.50908,40.4,167.3226095,,0.6,12.90323,,23 / 24,13325,2018-08-24 19:42:37:639,4.5
-0.254,10.168,2.727,0.138,9.537,2.281,-0.342,0.632,0.463,0.06,0.322,0.066,4,10.2,-26.5,29.5,192.7,-76.5,-3.5,3,999.7,53.24,23.03462,72.50908,40.4,167.3226095,,0.6,12.90323,,23 / 24,13428,2018-08-24 19:42:37:742,4.5
0.213,9.838,2.373,0.194,9.561,2.172,0.007,0.289,0.268,0.31,0.083,0.11,4,9.4,-25.8,29.7,190.5,-76.9,-4.6,3,999.7,53.24,23.03462,72.50908,40.4,167.3226095,,0.6,12.90323,,23 / 24,13525,2018-08-24 19:42:37:839,4.5
0.074,9.232,2.847,0.243,9.574,2.109,-0.226,-0.497,0.963,-0.265,0.263,0.026,3,8,-25.9,30.8,188.6,-78,-6.8,3,999.7,53.48,23.03461,72.50907,40.5,167.3226095,,1,12.90323,,23 / 24,13625,2018-08-24 19:42:37:939,4.5
-0.534,8.768,2.871,0.15,9.578,2.1,-0.349,-0.798,0.529,0.015,0.551,-0.011,3,7.8,-25.9,30.5,188.5,-77.5,-5.1,3,999.7,53.48,23.03461,72.50907,40.5,167.3226095,,1,12.90323,,21 / 23,13726,2018-08-24 19:42:38:040,4.5
0.316,9.51,1.453,0.035,9.578,2.106,0.326,-0.06,-0.66,-0.089,0.643,0.088,4,4.6,-26,31.1,186.6,-77.5,-1.5,3,999.7,53.48,23.03461,72.50907,40.5,167.3226095,,1,12.90323,,21 / 23,13828,2018-08-24 19:42:38:142,4.5
-0.74,9.931,2.485,-0.09,9.552,2.22,-0.497,0.181,0.28,0.079,1.048,0.056,4,3.9,-26.1,30.7,187.3,-76.9,1.3,3,999.7,53.08,23.03461,72.50907,40.5,167.3226095,,1,12.90323,,21 / 23,13926,2018-08-24 19:42:38:240,4.5
0.376,9.764,1.961,-0.189,9.548,2.227,0.435,0.12,-0.547,-0.246,0.587,0.117,4,0.9,-26.5,30.8,185.8,-77,5,3,999.7,53.08,23.03461,72.50907,40.5,167.3226095,,1,12.90323,,21 / 23,14025,2018-08-24 19:42:38:339,4.5
0.108,9.757,2.679,-0.195,9.529,2.31,0.272,0.264,0.352,-0.036,0.613,0.146,4,-2,-26.4,30.2,182.5,-76.4,4.9,3,999.7,53.08,23.03461,72.50907,40.5,167.3226095,,1,12.90323,,21 / 23,14125,2018-08-24 19:42:38:439,4.5
-0.225,9.637,2.667,-0.183,9.514,2.371,-0.128,0.185,0.28,-0.152,0.459,0.241,4,-4.8,-27.2,30.2,176.1,-76.1,4.8,3,999.7,53.68,23.03461,72.50907,40.5,167.3226095,,1,12.90323,,21 / 23,14225,2018-08-24 19:42:38:539,4.5
-0.129,9.328,2.548,-0.075,9.493,2.46,-0.093,-0.155,0.119,0.021,0.562,0.21,5,-7.6,-26.8,29.7,170.8,-75.6,2.6,3,999.7,53.68,23.03461,72.50907,40.5,167.3226095,,1,12.90323,,21 / 23,14325,2018-08-24 19:42:38:639,4.5
-0.031,9.496,2.03,-0.046,9.504,2.416,0.307,0.015,-0.675,-0.08,0.743,0.124,5,-9.7,-26.8,28.8,166.4,-75.6,1,3,999.7,53.68,23.03461,72.50907,40.5,167.3226095,,1,12.90323,,21 / 23,14426,2018-08-24 19:42:38:740,4.5
0.079,9.685,1.908,-0.093,9.497,2.443,0.177,0.193,-0.554,-0.053,0.726,0.09,5,-11.7,-26.9,27.9,162,-75.6,1.8,3,999.7,53.68,23.03461,72.50907,40.5,167.3226095,,1,12.90323,,21 / 23,14525,2018-08-24 19:42:38:839,4.5
0.184,9.761,2.454,-0.124,9.481,2.502,0.404,0.204,-0.082,0.104,0.762,0.124,5,-13.3,-26.9,27.2,159.2,-75.3,2.6,3,999.7,55.34,23.03461,72.50907,40.7,167.3226095,,1.2,12.90323,,21 / 23,14625,2018-08-24 19:42:38:939,4.5
-0.05,9.479,2.959,-0.142,9.488,2.474,0.092,-0.009,0.485,-0.061,0.612,0.119,5,-15.3,-27.1,25.7,157.6,-75.5,3.2,3,999.7,55.34,23.03461,72.50907,40.7,167.3226095,,1.2,12.90323,,20 / 22,14726,2018-08-24 19:42:39:040,4.5
0.795,9.637,1.863,-0.135,9.494,2.452,0.408,0.081,-0.015,0.025,0.463,0.083,5,-17.6,-26,24.5,151.8,-75.3,3.2,3,999.7,55.34,23.03461,72.50907,40.7,167.3226095,,1.2,12.90323,,20 / 22,14825,2018-08-24 19:42:39:139,4.5
-0.546,9.915,2.339,-0.226,9.454,2.597,-0.19,0.162,0.078,-0.083,0.576,-0.048,6,-19.9,-26.5,23.7,151,-75,3.8,3,999.7,54.82,23.03461,72.50907,40.7,167.3226095,,1.2,12.90323,,20 / 22,14925,2018-08-24 19:42:39:239,4.5
-1.659,9.208,3.625,-0.351,9.351,2.935,-1.308,-0.142,0.69,-0.209,0.348,0.025,6,-19.9,-27.4,23,151.5,-73.1,6.4,3,999.7,54.82,23.03461,72.50907,40.7,167.3226095,,1.2,12.90323,,20 / 22,15026,2018-08-24 19:42:39:340,4.5
-0.627,9.165,2.713,-0.407,9.352,2.923,-0.223,-0.192,-0.225,-0.384,-0.008,0.2,6,-22.2,-26.7,20.8,149.3,-72.9,8.7,3,999.7,54.82,23.03461,72.50907,40.7,167.3226095,,1.2,12.90323,,20 / 22,15125,2018-08-24 19:42:39:439,4.5
-0.474,9.68,2.536,-0.344,9.332,2.993,-0.097,0.161,-0.191,0.058,0.462,0.237,6,-22.7,-26.5,20.2,145.7,-71.9,7,3,999.7,56.24,23.03461,72.50907,40.7,167.3226095,,1.2,12.90323,,20 / 22,15225,2018-08-24 19:42:39:539,4.5
-0.503,9.462,2.758,-0.261,9.343,2.969,-0.299,0.059,0.17,0.124,0.461,0.257,6,-24.2,-26.3,18.6,141.5,-72.3,5,3,999.7,56.24,23.03461,72.50907,40.7,167.3226095,,1.2,12.90323,,20 / 22,15325,2018-08-24 19:42:39:639,4.5
-0.464,9.431,2.624,-0.19,9.384,2.842,-0.323,-0.041,-0.16,0.005,0.565,0.252,6,-26.1,-25.4,16.6,137.2,-73,4.2,3,999.7,56.24,23.03461,72.50907,40.7,167.3226095,,1.2,12.90323,,20 / 22,15425,2018-08-24 19:42:39:739,4.5
-0.397,9.393,2.433,-0.156,9.412,2.75,-0.195,-0.048,-0.348,0.094,0.692,0.194,6,-28.6,-23.9,15.5,132.2,-73.4,3.2,3,999.7,55.58,23.03461,72.50907,40.7,167.3226095,,1.2,12.90323,,20 / 22,15525,2018-08-24 19:42:39:839,4.5
-0.165,9.144,2.138,-0.173,9.434,2.672,0.008,-0.29,-0.534,0.024,0.671,0.099,6,-29.9,-24.6,13.7,127.3,-74.2,3.7,3,999.7,55.58,23.03461,72.50906,40.8,167.3226095,,1,12.90323,,20 / 22,15625,2018-08-24 19:42:39:939,4.5
-0.081,9.093,3.115,-0.264,9.427,2.69,0.164,-0.341,0.337,-0.095,0.422,0.023,6,-30.1,-23.5,11.4,125.1,-74.2,5,3,999.7,55.58,23.03461,72.50906,40.8,167.3226095,,1,12.90323,,22 / 23,15725,2018-08-24 19:42:40:039,4.5
-0.093,9.996,3.668,-0.348,9.431,2.664,0.446,0.555,0.793,0.068,0.482,0,6,-30.7,-23.5,10.3,125,-74,6.8,3,999.7,53.69,23.03461,72.50906,40.8,167.3226095,,1,12.90323,,22 / 23,15825,2018-08-24 19:42:40:139,4.5
0.005,9.879,2.797,-0.466,9.448,2.585,0.442,0.435,0.195,0.141,0.458,-0.131,6,-31.9,-23.1,9.2,122.9,-74.3,8.5,3,999.7,53.69,23.03461,72.50906,40.8,167.3226095,,1,12.90323,,22 / 23,15925,2018-08-24 19:42:40:239,4.5
-0.891,9.817,3.295,-0.699,9.416,2.65,-0.129,0.341,0.661,-0.334,0.109,-0.137,6,-31.9,-23.5,7.7,126.4,-74.1,14.4,3,999.7,53.69,23.03461,72.50906,40.8,167.3226095,,1,12.90323,,22 / 23,16025,2018-08-24 19:42:40:339,4.5
-1.049,9.091,4.185,-0.813,9.353,2.833,-0.236,-0.262,1.352,0.134,0.1,0.044,6,-32,-24.1,6.6,127.2,-72.6,15.8,3,999.7,51.99,23.03461,72.50906,40.8,167.3226095,,1,12.90323,,22 / 23,16126,2018-08-24 19:42:40:440,4.5
-0.553,9.386,2.787,-0.778,9.402,2.679,0.375,-0.009,-0.004,0.249,0.151,0.184,6,-31.5,-23.7,6,126.4,-73.1,16.2,3,999.7,51.99,23.03461,72.50906,40.8,167.3226095,,1,12.90323,,22 / 23,16225,2018-08-24 19:42:40:539,4.5
-0.127,9.16,2.404,-0.564,9.457,2.534,0.365,-0.169,-0.219,0.093,-0.134,0.179,6,-32.6,-24,5.9,123.8,-74.3,14.4,3,999.7,51.99,23.03461,72.50906,40.8,167.3226095,,1,12.90323,,22 / 23,16326,2018-08-24 19:42:40:640,4.5
0.038,9.797,2.124,-0.436,9.499,2.398,0.369,0.452,-0.526,0.007,-0.074,0,6,-32.7,-23.5,6.6,120.3,-75.5,10.4,3,999.7,51.99,23.03461,72.50906,40.8,167.3226095,,1,12.90323,,22 / 23,16426,2018-08-24 19:42:40:740,4.5
-0.326,10.008,2.126,-0.414,9.535,2.252,0.06,0.564,-0.09,0.14,0.009,-0.08,6,-32.1,-23.4,7.6,121.7,-75.9,10,3,999.7,54.85,23.03461,72.50906,40.8,167.3226095,,1,12.90323,,22 / 23,16526,2018-08-24 19:42:40:840,4.5
-0.326,9.656,1.616,-0.381,9.573,2.093,-0.014,0.04,-0.371,-0.067,0.012,0.019,6,-31.7,-23.6,7.6,122,-77.3,10.7,3,999.7,54.85,23.03461,72.50906,40.8,167.3226095,,0.7,12.90323,,22 / 24,16625,2018-08-24 19:42:40:939,4.5
-0.637,9.309,1.647,-0.303,9.575,2.098,-0.199,-0.285,-0.522,0.102,0.071,0.054,6,-32.7,-23.1,8.2,120.6,-77.2,8.5,3,999.7,54.85,23.03461,72.50906,40.8,167.3226095,,0.7,12.90323,,22 / 24,16725,2018-08-24 19:42:41:039,4.5
-0.632,9.364,1.865,-0.291,9.575,2.098,-0.317,-0.206,-0.233,0.05,0.071,0.065,6,-32.6,-22.4,8.7,119.1,-77.6,8,3,999.7,51.51,23.03461,72.50906,40.8,167.3226095,,0.7,12.90323,,22 / 24,16826,2018-08-24 19:42:41:140,4.5
-0.424,9.659,1.465,-0.37,9.592,2.006,-0.054,0.047,-0.524,0.082,0.179,-0.03,6,-32.8,-22.7,8.7,121.5,-77.9,9.8,3,999.7,51.51,23.03461,72.50906,40.8,167.3226095,,0.7,12.90323,,22 / 24,16926,2018-08-24 19:42:41:240,4.5
-0.943,10.145,1.659,-0.496,9.626,1.809,-0.424,0.543,-0.138,0.189,0.406,0.018,7,-33,-23.2,8.2,124.4,-78.6,13.3,3,999.7,51.51,23.03461,72.50906,40.8,167.3226095,,0.7,12.90323,,22 / 24,17025,2018-08-24 19:42:41:339,4.5
-0.385,9.398,1.597,-0.483,9.65,1.68,0.191,-0.283,-0.213,0.129,0.335,0.127,7,-34.3,-22.5,7.1,123,-79.6,16.3,3,999.7,53.53,23.03461,72.50906,40.8,167.3226095,,0.7,12.90323,,22 / 24,17126,2018-08-24 19:42:41:440,4.5
-0.103,9.467,1.736,-0.373,9.673,1.57,0.318,-0.101,0.039,0.1,0.133,0.166,7,-34.6,-22.4,6.1,120.1,-80.2,15,3,999.7,53.53,23.03461,72.50906,40.8,167.3226095,,0.7,12.90323,,22 / 24,17225,2018-08-24 19:42:41:539,4.5
-0.01,10.032,1.932,-0.233,9.672,1.603,0.223,0.36,0.329,-0.323,-0.026,0.14,7,-34.4,-22.2,6,115.3,-80.8,10.7,3,999.7,53.53,23.03461,72.50906,40.8,167.3226095,,0.7,12.90323,,22 / 24,17325,2018-08-24 19:42:41:639,4.5
-0.022,9.065,2.536,-0.124,9.64,1.795,0.102,-0.575,0.741,0.129,-0.056,0.058,7,-34.9,-20.8,5.3,108.3,-79.4,4.4,3,999.7,51.61,23.03461,72.50906,40.8,167.3226095,,0.7,12.90323,,22 / 24,17425,2018-08-24 19:42:41:739,4.5
0.977,9.043,1.283,-0.014,9.641,1.795,1.077,-0.667,-0.413,-0.424,-0.548,0.055,7,-34.5,-21.4,5.2,106.6,-79.9,2.9,3,999.7,51.61,23.03461,72.50906,40.8,167.3226095,,0.7,12.90323,,22 / 24,17525,2018-08-24 19:42:41:839,4.5
0.266,9.879,2.308,0.039,9.583,2.083,0.387,0.133,0.165,0.032,0.009,-0.152,7,-34.1,-21.9,5.5,104.1,-77.8,-1.3,3,999.7,51.61,23.03461,72.50906,40.8,167.3226095,,0.7,12.90323,,22 / 24,17625,2018-08-24 19:42:41:939,4.5
-0.625,10.008,3.548,-0.038,9.561,2.182,-1.143,0.747,1.604,-0.186,-0.721,0.03,7,-34.4,-22.3,7,108.4,-77.6,1.2,3,999.7,51.61,23.03461,72.50906,40.8,167.3226095,,0.7,12.90323,,21 / 22,17726,2018-08-24 19:42:42:040,4.5
-0.007,9.711,1.846,0.075,9.566,2.157,-0.065,0.2,-0.275,0.287,-0.341,-0.007,7,-33.8,-22.6,9,110.9,-77,-1.5,3,999.7,53.41,23.03461,72.50906,40.8,167.3226095,,0.7,12.90323,,21 / 22,17825,2018-08-24 19:42:42:139,4.5
-0.369,9.388,1.635,0.125,9.599,2.004,-0.616,0.05,-0.68,-0.134,-0.488,0.011,6,-33.5,-21.7,9.2,109,-78.2,-3.1,3,999.7,53.41,23.03461,72.50906,40.8,167.3226095,,0.7,12.90323,,21 / 22,17925,2018-08-24 19:42:42:239,4.5
-0.306,9.242,1.987,0.131,9.605,1.976,-0.485,-0.389,0.176,0.133,-0.123,-0.011,6,-33.3,-21.3,11.1,110.4,-78,-4.1,3,999.7,53.41,23.03461,72.50906,40.8,167.3226095,,0.7,12.90323,,21 / 22,18025,2018-08-24 19:42:42:339,4.5
0.283,9.797,1.281,0.118,9.609,1.953,0.085,0.186,-0.577,-0.014,-0.213,-0.022,6,-33.4,-22.3,11.9,112.9,-78.5,-3.4,3,999.7,52.59,23.03461,72.50906,40.8,167.3226095,,0.7,12.90323,,21 / 22,18125,2018-08-24 19:42:42:439,4.5
0.043,9.563,2.167,0.081,9.601,1.996,-0.037,-0.038,0.17,-0.103,-0.124,-0.117,6,-32.7,-21.8,12.7,114.8,-78.4,-2.9,3,999.7,52.59,23.03461,72.50906,40.8,167.3226095,,0.7,12.90323,,21 / 22,18225,2018-08-24 19:42:42:539,4.5
-0.441,9.864,3.122,-0.06,9.579,2.1,-0.35,0.336,0.953,-0.08,-0.009,-0.164,6,-32.5,-22.5,12.2,117.8,-77.7,0.8,3,999.7,52.59,23.03461,72.50906,40.8,167.3226095,,0.7,12.90323,,21 / 22,18325,2018-08-24 19:42:42:639,4.5
0.11,10.252,1.051,-0.26,9.587,2.047,0.504,0.689,-0.974,-0.051,0.378,-0.273,6,-29.8,-23.9,6.9,116.7,-77.7,5.4,3,999.7,52.4,23.03461,72.50906,40.8,167.3226095,,0.7,12.90323,,21 / 22,18425,2018-08-24 19:42:42:739,4.5
0.223,9.891,1.674,-0.29,9.557,2.178,-0.002,0.475,-0.351,-0.267,-0.424,0.117,6,-29,-24,7.6,121,-77.6,9.3,3,999.7,52.4,23.03461,72.50906,40.8,167.3226095,,0.7,12.90323,,21 / 22,18525,2018-08-24 19:42:42:839,4.5
-0.235,9.046,3.369,-0.219,9.503,2.41,-0.015,-0.458,0.958,-0.155,0.026,0.043,6,-28.9,-23,8.3,119.5,-75.9,5.3,3,999.7,52.4,23.03461,72.50906,41.1,167.3226095,,0.4,12.90323,,21 / 22,18625,2018-08-24 19:42:42:939,4.5
0.369,9.503,3.12,-0.203,9.469,2.541,0.572,0.024,0.583,-0.065,-0.159,0.015,7,-29.6,-24.5,7.3,117.6,-75,4.7,3,999.7,54.07,23.03461,72.50906,41.1,167.3226095,,0.4,12.90323,,20 / 22,18725,2018-08-24 19:42:43:039,4.5
0.261,9.295,3.771,0.024,9.393,2.818,0.252,-0.106,0.884,-0.086,-0.283,0.038,7,-28.5,-24.5,7.9,117.7,-73.4,-0.2,3,999.7,54.07,23.03461,72.50906,41.1,167.3226095,,0.4,12.90323,,20 / 22,18825,2018-08-24 19:42:43:139,4.5
-0.007,9.108,3.259,0.12,9.38,2.858,-0.159,-0.105,0.314,-0.004,-0.186,-0.009,7,-28.1,-24.8,8.6,116.3,-73.1,-2,3,999.7,54.07,23.03461,72.50906,41.1,167.3226095,,0.4,12.90323,,20 / 22,18925,2018-08-24 19:42:43:239,4.5
-0.125,9.821,2.433,0.061,9.418,2.734,-0.198,0.387,-0.29,0.08,0.241,0.019,7,-28.3,-24.4,9.7,118.9,-73.6,-1.6,3,999.7,52.86,23.03461,72.50906,41.1,167.3226095,,0.4,12.90323,,20 / 22,19025,2018-08-24 19:42:43:339,4.5
-0.369,9.687,3.098,0.035,9.384,2.848,-0.339,0.291,0.149,0.003,0.362,0.033,7,-28.8,-24.9,9.1,118.1,-73.1,-0.7,3,999.7,52.86,23.03461,72.50906,41.1,167.3226095,,0.4,12.90323,,20 / 22,19125,2018-08-24 19:42:43:439,4.5
0.069,9.52,3.393,0.007,9.379,2.864,0.089,0.246,0.394,-0.06,0.219,0.08,7,-28.6,-24.7,7.4,117.1,-73.2,-0.1,3,999.7,52.86,23.03461,72.50906,41.1,167.3226095,,0.4,12.90323,,20 / 22,19225,2018-08-24 19:42:43:539,4.5
0.182,9.242,2.978,0.025,9.427,2.703,0.243,-0.079,0.045,0.172,0.395,0.119,7,-29.6,-24.1,6.9,113.7,-73.7,-0.5,3,999.7,52.86,23.03461,72.50906,41.1,167.3226095,,0.4,12.90323,,20 / 22,19325,2018-08-24 19:42:43:639,4.5
0.809,9.608,2.04,0.093,9.449,2.621,0.757,0.202,-0.619,-0.137,0.212,0.108,7,-29.3,-24.6,6.3,111.8,-74.4,-1.2,3,999.7,53.42,23.03461,72.50906,41.1,167.3226095,,0.4,12.90323,,20 / 22,19425,2018-08-24 19:42:43:739,4.5
-0.151,9.307,2.622,0.183,9.415,2.739,-0.362,-0.103,0.074,0.032,0.007,0.219,7,-31.3,-23.8,6.4,109.1,-73.7,-3.2,3,999.7,53.42,23.03461,72.50906,41.1,167.3226095,,0.4,12.90323,,20 / 22,19525,2018-08-24 19:42:43:839,4.5
0.251,9.038,2.718,0.403,9.384,2.819,-0.128,-0.341,-0.097,-0.163,-0.026,0.224,8,-32.8,-23.1,8.4,108,-73.5,-6.6,3,999.7,53.42,23.03461,72.50906,41.1,167.3226095,,0.4,12.90323,,20 / 22,19625,2018-08-24 19:42:43:939,4.5
0.697,9.369,3.184,0.444,9.354,2.911,0.253,0.015,0.273,0.036,-0.037,-0.155,8,-32.7,-23.2,7.7,104.2,-72.6,-9,3,999.7,53.89,23.03461,72.50906,41.1,167.3226095,,0.4,12.90323,,21 / 21,19726,2018-08-24 19:42:44:040,4.5
-0.551,9.817,3.589,0.214,9.383,2.842,-0.767,0.45,0.732,0.203,0.168,-0.152,8,-33.3,-22.7,10.2,111.7,-72.9,-5.2,3,999.7,53.89,23.03461,72.50906,41.1,167.3226095,,0.4,12.90323,,21 / 21,19825,2018-08-24 19:42:44:139,4.5
-0.567,9.436,2.179,0.103,9.449,2.624,-0.637,-0.027,-0.426,0.19,0.172,-0.012,8,-34,-23.3,9.7,112.7,-74.2,-2.6,3,999.7,53.89,23.03461,72.50906,41.1,167.3226095,,0.4,12.90323,,21 / 21,19925,2018-08-24 19:42:44:239,4.5
-0.23,9.584,2.049,0.079,9.462,2.574,-0.309,0.122,-0.525,-0.147,0.048,0.017,8,-34,-22.6,9.4,111.8,-74.8,-1.8,3,999.7,57.34,23.03461,72.50906,41.1,167.3226095,,0.4,12.90323,,21 / 21,20026,2018-08-24 19:42:44:340,4.5
0.196,9.917,2.548,0.019,9.453,2.608,0.146,0.464,-0.061,-0.012,0.04,-0.051,8,-33.2,-22.7,9.2,113.6,-74.6,-0.6,3,999.7,57.34,23.03461,72.50906,41.1,167.3226095,,0.4,12.90323,,21 / 21,20126,2018-08-24 19:42:44:440,4.5
-0.06,9.888,2.612,-0.016,9.461,2.58,0.059,0.269,0.164,0.245,0.168,-0.094,8,-33.6,-23.3,9.5,113.5,-74.6,0,3,999.7,57.34,23.03461,72.50906,41.1,167.3226095,,0.4,12.90323,,21 / 21,20225,2018-08-24 19:42:44:539,4.5
-0.376,10.01,2.308,-0.094,9.51,2.392,-0.282,0.5,-0.084,0.189,0.08,0.056,9,-33.6,-23.4,9.7,116.7,-75.5,1.8,3,999.7,60.92,23.03461,72.50906,41.1,167.3226095,,0.4,12.90323,,21 / 21,20325,2018-08-24 19:42:44:639,4.5
-0.163,9.503,2.421,0.011,9.528,2.32,-0.088,-0.057,0.122,0.009,-0.046,0.17,9,-33.4,-22.8,10,115.4,-76.3,0.8,3,999.7,60.92,23.03461,72.50906,41.1,167.3226095,,0.4,12.90323,,21 / 21,20425,2018-08-24 19:42:44:739,4.5
1.089,9.058,2.064,0.182,9.519,2.35,0.908,-0.462,-0.286,-0.107,-0.373,-0.031,8,-34.6,-22.1,9.7,110.2,-76.2,-3.8,3,999.7,60.92,23.03461,72.50906,41.1,167.3226095,,0.4,12.90323,,21 / 21,20525,2018-08-24 19:42:44:839,4.5
0.263,9.091,2.26,0.163,9.535,2.286,0.1,-0.444,-0.026,0.289,-0.011,-0.099,8,-33.7,-22.4,11.2,111.1,-76.1,-4.4,3,999.7,60.92,23.0346,72.50906,41.1,167.3226095,,0.2,12.90323,,21 / 21,20625,2018-08-24 19:42:44:939,4.5
0.211,9.273,2.727,0.183,9.569,2.14,-0.131,-0.322,0.829,0.129,-0.517,0.06,8,-33.8,-21.9,11.6,112.3,-77.3,-3.9,3,999.7,58.61,23.0346,72.50906,41.1,167.3226095,,0.2,12.90323,,21 / 22,20725,2018-08-24 19:42:45:039,4.5
-0.06,9.805,2.069,0.28,9.6,1.983,-0.474,0.269,0.112,0.185,0.075,0.116,7,-33.1,-21.5,12.8,109.6,-78,-7.6,3,999.7,58.61,23.0346,72.50906,41.1,167.3226095,,0.2,12.90323,,21 / 22,20826,2018-08-24 19:42:45:140,4.5
0.783,9.503,2.638,0.346,9.585,2.045,0.409,-0.087,0.546,-0.058,-0.188,-0.032,7,-33.7,-20.6,12.5,106.4,-77.8,-9.6,3,999.7,58.61,23.0346,72.50906,41.1,167.3226095,,0.2,12.90323,,21 / 22,20925,2018-08-24 19:42:45:239,4.5
0.919,9.943,2.243,0.331,9.589,2.028,0.584,0.386,0.201,0.041,-0.162,-0.047,7,-32.8,-21.8,13.2,108.8,-77.8,-9.3,3,999.7,57.65,23.0346,72.50906,41.1,167.3226095,,0.2,12.90323,,21 / 22,21025,2018-08-24 19:42:45:339,4.5
0.632,9.314,2.516,0.371,9.565,2.132,0.357,-0.289,0.295,-0.036,-0.299,-0.05,7,-33.4,-21.9,14.6,111.5,-77.3,-9.7,3,999.7,57.65,23.0346,72.50906,41.1,167.3226095,,0.2,12.90323,,21 / 22,21125,2018-08-24 19:42:45:439,4.5
0.429,9.405,2.349,0.349,9.552,2.192,0.079,-0.147,0.157,-0.03,-0.211,-0.165,7,-32.7,-22.7,14.7,112,-77,-9.7,3,999.7,57.65,23.0346,72.50906,41.1,167.3226095,,0.2,12.90323,,21 / 22,21226,2018-08-24 19:42:45:540,4.5
0.065,9.527,1.959,0.28,9.563,2.155,-0.064,-0.081,-0.355,-0.122,-0.3,-0.153,7,-31.8,-22.7,16.8,116.9,-77.2,-7.9,3,999.7,59.48,23.0346,72.50906,41.1,167.3226095,,0.2,12.90323,,21 / 22,21327,2018-08-24 19:42:45:641,4.5
0.079,9.472,1.927,0.212,9.545,2.239,-0.183,-0.071,-0.136,-0.084,-0.111,-0.115,7,-30.4,-23.2,16.6,120.6,-76.8,-5.9,3,999.7,59.48,23.0346,72.50906,41.1,167.3226095,,0.2,12.90323,,21 / 22,21425,2018-08-24 19:42:45:739,4.5
0.038,9.421,2.016,0.171,9.524,2.33,-0.099,-0.141,-0.29,-0.139,-0.064,-0.017,7,-29.8,-23.3,16.4,121.1,-76.4,-4.3,3,999.7,59.48,23.0346,72.50906,41.1,167.3226095,,0.2,12.90323,,21 / 22,21526,2018-08-24 19:42:45:840,4.5
0.108,9.67,2.181,0.148,9.507,2.401,-0.122,0.197,-0.393,-0.292,0.037,0.062,7,-30.4,-24.4,16.3,122.2,-75.9,-3.6,3,999.7,59.48,23.0346,72.50906,41.1,167.3226095,,0.1,12.90323,,21 / 22,21625,2018-08-24 19:42:45:939,4.5
-0.405,9.412,3.177,0.122,9.463,2.571,-0.503,-0.046,0.704,0.04,0.425,0.018,7,-30.1,-23.2,15.6,122.4,-75.2,-3.4,3,999.7,57.21,23.0346,72.50906,41.1,167.3226095,,0.1,12.90323,,22 / 23,21725,2018-08-24 19:42:46:039,4.5
-0.771,9.4,4.535,-0.026,9.46,2.584,-0.802,-0.062,1.62,0.11,0.47,0.035,7,-31.8,-23.8,13.2,121,-74.7,0.6,3,999.7,57.21,23.0346,72.50906,41.1,167.3226095,,0.1,12.90323,,22 / 23,21825,2018-08-24 19:42:46:139,4.5
-1.441,10.008,3.292,-0.182,9.434,2.672,-1.044,0.541,0.501,-0.568,0.8,0.116,9,-32.7,-23.3,12.9,122.8,-74.5,3.6,3,999.7,57.21,23.0346,72.50906,41.1,167.3226095,,0.1,12.90323,,22 / 23,21925,2018-08-24 19:42:46:239,4.5
-0.74,9.043,3.596,-0.161,9.281,3.163,-0.644,-0.238,0.387,-0.224,0.537,0.323,9,-33.1,-23.3,8.3,118.6,-72,3.7,3,999.7,57.23,23.0346,72.50906,41.1,167.3226095,,0.1,12.90323,,22 / 23,22026,2018-08-24 19:42:46:340,4.5
-0.915,9.443,2.933,-0.215,9.352,2.942,-0.699,0.091,-0.009,0.338,1.027,0.478,11,-34.6,-22.6,6.2,115,-71.6,3.8,3,999.7,57.23,23.0346,72.50906,41.1,167.3226095,,0.1,12.90323,,22 / 23,22127,2018-08-24 19:42:46:441,4.5
-0.23,8.854,3.206,-0.068,9.367,2.903,0.028,-0.463,0.238,0.065,1.042,0.506,11,-37.1,-20.3,2,103.7,-72.7,1.9,3,999.7,57.23,23.0346,72.50906,41.1,167.3226095,,0.1,12.90323,,22 / 23,22226,2018-08-24 19:42:46:540,4.5
-0.309,8.447,3.326,-0.036,9.366,2.906,-0.541,-0.773,0.607,0.013,1.271,0.287,12,-36.7,-18.6,-0.4,97.2,-72.8,0.3,3,999.7,58.91,23.0346,72.50906,41.1,167.3226095,,0.1,12.90323,,22 / 23,22326,2018-08-24 19:42:46:640,4.5
-0.026,9.615,2.327,-0.154,9.38,2.857,0.128,0.236,-0.53,-0.036,1.351,0.146,21,-38.3,-16.6,-4.6,92,-73.1,1.9,3,999.7,58.91,23.0346,72.50906,41.1,167.3226095,,0.1,12.90323,,22 / 23,22425,2018-08-24 19:42:46:739,4.5
-0.421,9.352,3.381,-0.321,9.36,2.909,-0.1,-0.008,0.472,-0.144,1.008,0.154,21,-36.8,-17.2,-9.2,91.4,-72.8,5.7,3,999.7,58.91,23.0346,72.50906,41.1,167.3226095,,0.1,12.90323,,22 / 23,22525,2018-08-24 19:42:46:839,4.5
-0.615,9.251,3.5,-0.485,9.328,2.987,-0.135,-0.074,0.497,-0.205,0.898,0.223,30,-36.5,-16.6,-14.4,86.1,-72.2,8.8,3,999.7,58.22,23.0346,72.50906,41.1,167.3226095,,0.1,12.90323,,22 / 22,22625,2018-08-24 19:42:46:939,4.5
-0.385,9.022,3.445,-0.526,9.285,3.111,0.141,-0.264,0.335,-0.168,0.793,0.255,30,-34.5,-14.9,-17.8,81.1,-71.4,9.6,3,999.7,58.22,23.0346,72.50906,41.1,167.3228349,,0.1,12.90323,,22 / 22,22726,2018-08-24 19:42:47:040,4.5
-0.251,9.204,3.539,-0.571,9.244,3.224,0.298,-0.033,0.314,-0.136,0.745,0.22,32,-32.9,-13,-19.7,76.4,-70.8,9.8,3,999.7,58.22,23.0346,72.50906,41.1,167.3228349,,0.1,12.90323,,22 / 22,22825,2018-08-24 19:42:47:139,4.5
-0.278,9.079,4.216,-0.587,9.187,3.38,0.352,-0.084,0.695,-0.243,0.654,0.192,32,-32,-13.2,-23.7,70.7,-69.8,10,3,999.7,57.86,23.0346,72.50906,41.1,167.3228349,,0.1,12.90323,,22 / 22,22926,2018-08-24 19:42:47:240,4.5
0.163,8.902,3.785,-0.595,9.144,3.494,0.758,-0.242,0.291,-0.089,0.386,0.138,13,-30.1,-11,-26.6,67.7,-69.1,9.9,3,999.7,57.86,23.0346,72.50906,41.1,167.3228349,,0.1,12.90323,,22 / 22,23025,2018-08-24 19:42:47:339,4.5
-0.242,9.218,3.405,-0.571,9.13,3.533,0.276,0.085,-0.117,-0.1,0.219,0.168,13,-29.2,-10.6,-27.1,63.7,-68.6,9.4,3,999.7,57.86,23.0346,72.50906,41.1,167.3228349,,0.1,12.90323,,22 / 22,23126,2018-08-24 19:42:47:440,4.5
-0.395,9.228,3.646,-0.503,9.127,3.553,0.108,0.101,0.094,0.046,0.164,0.179,10,-29.3,-10.3,-27,62.7,-68.4,8.4,3,999.7,58.06,23.0346,72.50906,41.1,167.3228349,,0.1,12.90323,,22 / 22,23225,2018-08-24 19:42:47:539,4.5
-0.699,9.436,3.922,-0.421,9.142,3.524,-0.278,0.294,0.398,0.07,0.081,0.146,11,-28.3,-10.3,-28.3,58.7,-68.6,7.1,3,999.7,58.06,23.0346,72.50906,41.1,167.3228349,,0.1,12.90323,,22 / 22,23325,2018-08-24 19:42:47:639,4.5
0.33,8.878,3.831,-0.179,9.151,3.522,0.495,-0.256,0.293,-0.146,-0.168,0.244,11,-28.7,-9.6,-28.9,55.8,-69,5.1,3,999.7,58.06,23.0346,72.50906,41.1,167.3228349,,0.1,12.90323,,22 / 22,23427,2018-08-24 19:42:47:741,4.5
0.01,10.391,2.54,-0.07,9.188,3.427,-0.459,0.925,-0.2,0.035,0.819,0.093,12,-29.3,-8.8,-28,52.1,-69.4,0.5,3,999.7,58.06,23.0346,72.50906,41.1,167.3228349,,0.1,12.90323,,22 / 22,23526,2018-08-24 19:42:47:840,4.5
0.129,8.811,3.579,-0.096,9.156,3.511,0.225,-0.345,0.068,-0.025,-0.427,0.011,12,-27.8,-8.9,-29.6,50.5,-69.1,1.9,3,999.7,56.95,23.0346,72.50906,41.2,167.3228349,,0.2,9.67742,,22 / 22,23625,2018-08-24 19:42:47:939,4.5
0.553,7.939,3.84,-0.27,9.144,3.534,0.859,-1.281,0.333,0.424,0.362,-0.493,11,-27.9,-9.3,-28,54.1,-68.6,3.1,3,999.7,56.95,23.0346,72.50906,41.2,167.3228349,,0.2,9.67742,,21 / 22,23725,2018-08-24 19:42:48:039,4.5
-0.275,9.335,2.844,-0.482,9.23,3.278,0.099,-0.002,-0.194,0.291,-0.227,-0.034,11,-27.3,-10.6,-29,55.9,-69.6,7.9,3,999.7,56.95,23.0346,72.50906,41.2,167.3228349,,0.2,9.67742,,21 / 22,23825,2018-08-24 19:42:48:139,4.5
0.048,9.448,2.562,-0.326,9.295,3.11,0.539,0.112,-0.689,-0.01,-0.087,0.281,10,-27.2,-11.5,-28.4,56.7,-71.3,7.4,3,999.7,54.43,23.0346,72.50906,41.2,167.3228349,,0.2,9.67742,,21 / 22,23925,2018-08-24 19:42:48:239,4.5
0.23,9.527,2.818,-0.172,9.268,3.2,0.402,0.259,-0.382,-0.131,0.036,0.153,10,-27.4,-10.4,-29,51.9,-71,4.2,3,999.7,54.43,23.0346,72.50906,41.2,167.3228349,,0.2,9.67742,,21 / 22,24025,2018-08-24 19:42:48:339,4.5
0.168,9.599,2.607,-0.117,9.285,3.154,0.28,0.302,-0.542,0.227,0.111,0.06,10,-27.5,-10.7,-30.1,50.8,-71,2.2,3,999.7,54.43,23.0346,72.50906,41.2,167.3228349,,0.2,9.67742,,21 / 22,24125,2018-08-24 19:42:48:439,4.5
0.189,9.85,1.973,-0.038,9.367,2.904,0.193,0.447,-0.919,0.079,0.07,0.148,10,-27.7,-10.5,-28.6,50.7,-72.3,1.5,3,999.7,58.24,23.0346,72.50906,41.2,167.3228349,,0.2,9.67742,,21 / 22,24226,2018-08-24 19:42:48:540,4.5
0.237,9.177,2.861,0.084,9.35,2.957,0.146,-0.17,-0.113,-0.135,-0.07,0.054,10,-26.9,-10.6,-30.4,45.5,-72.6,-1.2,3,999.7,58.24,23.0346,72.50906,41.2,167.3228349,,0.2,9.67742,,21 / 22,24326,2018-08-24 19:42:48:640,4.5
-0.237,9.575,2.993,0.068,9.367,2.903,-0.356,0.083,0.396,-0.132,0.052,-0.002,10,-27.3,-10,-29.3,45.3,-72.8,-1.7,3,999.7,58.24,23.0346,72.50906,41.2,167.3228349,,0.2,9.67742,,21 / 22,24425,2018-08-24 19:42:48:739,4.5
-0.175,9.256,2.943,0.038,9.362,2.919,-0.213,-0.106,0.023,0.044,0.157,0.082,10,-26.3,-10.3,-29.8,46.6,-72.7,-0.9,3,999.7,58.68,23.0346,72.50906,41.2,167.3228349,,0.2,9.67742,,21 / 22,24525,2018-08-24 19:42:48:839,4.5
-0.663,9.149,4.034,0.011,9.343,2.98,-0.674,-0.194,1.054,0.089,0.319,0.064,11,-26.1,-10,-30.8,44.2,-72.3,-0.2,3,999.7,58.68,23.0346,72.50906,41.2,167.3228349,,0.2,9.67742,,18 / 19,24625,2018-08-24 19:42:48:939,4.5
-0.929,9.263,3.213,-0.09,9.378,2.865,-0.571,0.043,-0.219,0.295,0.406,0.133,11,-25.1,-10.9,-31.6,44,-72.6,1.4,3,999.7,58.68,23.0346,72.50906,41.2,167.3228349,,0.2,9.67742,,18 / 19,24725,2018-08-24 19:42:49:039,4.5
-0.144,9.232,3.242,-0.077,9.332,3.012,-0.067,-0.1,0.23,-0.418,0.098,0.11,10,-24.7,-9.7,-32.5,43.7,-72.9,1.8,3,999.7,58.68,23.0346,72.50906,41.2,167.3228349,,0.2,9.67742,,18 / 19,24825,2018-08-24 19:42:49:139,4.5
-1.267,8.947,3.376,-0.173,9.304,3.096,-1.094,-0.356,0.28,0.196,0.751,0.11,10,-23.9,-8.9,-32.5,42.9,-71.4,2.5,3,999.7,59.98,23.0346,72.50906,41.2,167.3228349,,0.2,9.67742,,18 / 19,24925,2018-08-24 19:42:49:239,4.5
-0.759,9.601,2.727,-0.242,9.322,3.034,-0.517,0.279,-0.307,-0.051,0.357,0.3,10,-22.5,-9.7,-34.4,43.4,-71.9,4.8,3,999.7,59.98,23.0346,72.50906,41.2,167.3228349,,0.2,9.67742,,18 / 19,25025,2018-08-24 19:42:49:339,4.5
-0.184,9.424,2.591,-0.138,9.305,3.095,-0.156,0.021,-0.217,0.145,0.425,0.208,11,-21.7,-8.5,-34.4,39.5,-71.5,2.8,3,999.7,59.98,23.0346,72.50906,41.2,167.3228349,,0.2,9.67742,,18 / 19,25125,2018-08-24 19:42:49:439,4.5
-0.453,9.697,2.727,-0.142,9.344,2.975,-0.306,0.332,-0.293,0.077,0.337,0.11,11,-19.4,-8.5,-35.3,36.5,-72.1,2.5,3,999.7,61.88,23.0346,72.50906,41.2,167.3228349,,0.2,9.67742,,18 / 19,25226,2018-08-24 19:42:49:540,4.5
0.036,9.328,2.67,-0.102,9.364,2.911,0.141,-0.07,-0.239,0.021,0.108,0.092,28,-18.3,-8.6,-36.5,32,-72.7,2.4,3,999.7,61.88,23.0346,72.50906,41.2,167.3228349,,0.2,9.67742,,18 / 19,25326,2018-08-24 19:42:49:640,4.5
-0.105,9.335,2.775,-0.016,9.387,2.838,-0.149,0.037,-0.051,-0.014,-0.062,0.195,28,-17.5,-8.7,-35.3,31.1,-73,1.7,3,999.7,61.88,23.0346,72.50906,41.2,167.3228349,,0.2,9.67742,,18 / 19,25425,2018-08-24 19:42:49:739,4.5
-0.706,9.378,3.848,0.129,9.369,2.894,-0.888,0.021,0.968,-0.105,-0.117,0.256,25,-18.6,-8.3,-36,29,-73,-1.5,3,999.7,59.16,23.0346,72.50906,41.2,167.3228349,,0.2,9.67742,,18 / 19,25525,2018-08-24 19:42:49:839,4.5
0.11,9.783,3.565,0.311,9.386,2.826,-0.009,0.352,0.744,0.176,-0.023,0.198,25,-18.5,-7.3,-35.9,23.6,-72.9,-5.1,3,999.7,59.16,23.0346,72.50906,41.2,167.3228349,,0.4,9.67742,,19 / 20,25625,2018-08-24 19:42:49:939,4.5
0.828,9.931,2.88,0.518,9.41,2.713,0.311,0.522,0.167,0.049,0.022,0.191,27,-18.9,-7.4,-35.4,20.8,-73.5,-9.6,3,999.7,59.16,23.0346,72.50906,41.2,167.3228349,,0.4,9.67742,,19 / 20,25725,2018-08-24 19:42:50:039,4.5
1.805,9.924,1.686,0.656,9.429,2.614,1.149,0.495,-0.929,0.174,0.104,-0.003,27,-20.2,-7.6,-34.7,18.7,-73.6,-12.7,3,999.7,56.71,23.0346,72.50906,41.2,167.3228349,,0.4,9.67742,,19 / 20,25825,2018-08-24 19:42:50:139,4.5
1.398,9.625,2.703,0.638,9.441,2.575,0.782,0.167,0.032,-0.065,-0.228,-0.209,28,-19.8,-7.6,-35.3,16.9,-74.3,-14.3,3,999.7,56.71,23.0346,72.50906,41.2,167.3228349,,0.4,9.67742,,19 / 20,25925,2018-08-24 19:42:50:239,4.5
0.606,8.806,2.82,0.61,9.398,2.736,0.116,-0.704,0.286,0.038,-0.053,-0.213,29,-19.6,-7.3,-35.2,18.3,-73.5,-13,3,999.7,56.71,23.0346,72.50906,41.2,167.3228349,,0.4,9.67742,,19 / 20,26025,2018-08-24 19:42:50:339,4.5
0.905,8.694,2.804,0.551,9.396,2.755,0.088,-0.621,0.097,-0.247,-0.28,-0.001,29,-20.5,-7.9,-34.7,18.9,-73.7,-11.4,3,999.7,58.86,23.0346,72.50906,41.2,167.3228349,,0.4,9.67742,,19 / 20,26125,2018-08-24 19:42:50:439,4.5
0.304,8.844,3.328,0.552,9.349,2.909,-0.262,-0.483,0.412,-0.106,0.164,0.135,27,-20,-7.3,-34.4,21.5,-72.8,-11.1,3,999.7,58.86,23.0346,72.50906,41.2,167.3228349,,0.4,9.67742,,19 / 20,26225,2018-08-24 19:42:50:539,4.5
0.56,9.697,2.962,0.595,9.308,3.03,0.044,0.329,0.075,-0.168,-0.053,0.022,27,-20,-6.1,-33.8,21.4,-71.6,-11.1,3,999.7,58.86,23.0346,72.50906,41.2,167.3228349,,0.4,9.67742,,19 / 20,26325,2018-08-24 19:42:50:639,4.5
1.326,9.307,2.722,0.617,9.297,3.06,0.403,-0.043,-0.171,-0.055,-0.102,-0.186,28,-20.6,-7,-33.8,22.5,-71.5,-11.5,3,999.7,58.86,23.0346,72.50906,41.2,167.3228349,,0.4,9.67742,,19 / 20,26425,2018-08-24 19:42:50:739,4.5
0.886,9.326,2.303,0.539,9.345,2.925,0.347,-0.019,-0.622,-0.019,0.015,-0.121,28,-19.1,-7,-34.6,21.1,-72.2,-10.7,3,999.7,57.76,23.0346,72.50906,41.2,167.3228349,,0.4,9.67742,,19 / 20,26525,2018-08-24 19:42:50:839,4.5
0.778,9.544,2.84,0.442,9.33,2.987,0.386,0.192,-0.174,0.068,0.123,-0.088,28,-19.9,-6.5,-33.5,24.9,-72,-8.8,3,999.7,57.76,23.0346,72.50906,41.2,167.3228349,,0.4,9.67742,,19 / 22,26625,2018-08-24 19:42:50:939,4.5
0.757,9.515,2.449,0.356,9.351,2.933,0.434,0.145,-0.482,0.045,-0.043,-0.084,28,-20.8,-7.5,-33.2,27.1,-72.2,-7.1,3,999.7,57.76,23.0346,72.50906,41.2,167.3228349,,0.4,9.67742,,19 / 22,26725,2018-08-24 19:42:51:039,4.5
0.127,10.094,1.915,0.281,9.404,2.768,-0.154,0.69,-0.852,0.297,0.133,0.06,27,-20.2,-7.4,-33.4,27.8,-72.9,-5.9,3,999.7,55.37,23.0346,72.50906,41.2,167.3228349,,0.4,9.67742,,19 / 22,26825,2018-08-24 19:42:51:139,4.5
0.838,9.108,2.789,0.352,9.418,2.71,0.244,-0.169,0.158,-0.07,-0.153,0.106,27,-19.5,-8.3,-33.9,26.3,-73.8,-6.5,3,999.7,55.37,23.0346,72.50906,41.2,167.3228349,,0.4,9.67742,,19 / 22,26925,2018-08-24 19:42:51:239,4.5
0.895,9.369,3.182,0.456,9.357,2.898,0.492,0.086,0.119,-0.4,-0.247,-0.037,27,-20.9,-7.4,-33,23.8,-73.1,-8.8,3,999.7,55.37,23.0346,72.50906,41.2,167.3228349,,0.4,9.67742,,19 / 22,27026,2018-08-24 19:42:51:340,4.5
0.907,9.019,3.759,0.512,9.26,3.186,0.407,-0.466,0.903,-0.413,-0.504,-0.141,26,-21.4,-6.4,-33,25.6,-71.6,-9.2,3,999.7,58.27,23.0346,72.50906,41.2,167.3228349,,0.4,9.67742,,19 / 22,27125,2018-08-24 19:42:51:439,4.5
0.151,9.711,3.606,0.456,9.241,3.252,-0.315,0.466,0.385,0.585,0.104,-0.142,26,-22.7,-5.5,-32,30.3,-70.2,-8.2,3,999.7,58.27,23.0346,72.50906,41.2,167.3228349,,0.4,9.67742,,19 / 22,27225,2018-08-24 19:42:51:539,4.5
0.213,9.62,3.012,0.451,9.3,3.077,-0.238,0.32,-0.065,-0.294,-0.756,-0.089,8,-22.3,-7.8,-31.1,31.4,-71.7,-7.6,3,999.7,58.27,23.0346,72.50906,41.2,167.3228349,,0.4,9.67742,,19 / 22,27325,2018-08-24 19:42:51:639,4.5
0.117,9.225,2.926,0.445,9.298,3.084,-0.455,-0.09,-0.048,0.212,-0.142,-0.12,8,-24.4,-8.1,-30.6,32.4,-71,-8.6,3,999.7,56.96,23.0346,72.50906,41.2,167.3228349,,0.4,9.67742,,19 / 22,27425,2018-08-24 19:42:51:739,4.5
0.187,9.149,2.492,0.317,9.359,2.911,-0.175,-0.201,-0.373,0.205,-0.041,-0.102,9,-25,-7.8,-29.3,38.1,-72.6,-6.2,3,999.7,56.96,23.0346,72.50906,41.2,167.3228349,,0.4,9.67742,,19 / 22,27525,2018-08-24 19:42:51:839,4.5
0.347,8.943,2.476,0.223,9.367,2.896,0.124,-0.424,-0.42,-0.123,-0.023,-0.146,9,-25.7,-8.9,-29.4,39.5,-72.9,-5.1,3,999.7,56.96,23.0346,72.50906,41.6,167.3228349,,0.5,12.90323,,19 / 20,27625,2018-08-24 19:42:51:939,4.5
-0.067,9.345,2.734,0.08,9.345,2.973,-0.147,0,-0.239,-0.301,-0.164,-0.095,8,-24.4,-8.4,-28.5,42.5,-72.6,-2,3,999.7,56.83,23.0346,72.50906,41.6,167.3228349,,0.5,12.90323,,19 / 20,27726,2018-08-24 19:42:52:040,4.5
-0.022,9.642,3.062,0.012,9.29,3.141,-0.033,0.352,-0.078,-0.056,0.067,-0.016,7,-24.8,-8.9,-29.6,42.5,-71.4,-0.6,3,999.7,56.83,23.0346,72.50906,41.6,167.3228349,,0.5,12.90323,,19 / 20,27826,2018-08-24 19:42:52:140,4.5
-0.002,9.591,3.56,-0.021,9.236,3.295,0.002,0.393,0.217,-0.163,-0.054,-0.023,7,-24.4,-7.5,-29.7,43.3,-70.8,0.2,3,999.7,56.83,23.0346,72.50906,41.6,167.3228349,,0.5,12.90323,,19 / 20,27925,2018-08-24 19:42:52:239,4.5
-0.048,9.553,3.876,0.035,9.165,3.489,-0.074,0.41,0.193,-0.319,-0.275,-0.003,7,-24.7,-7.1,-28.7,45,-69.5,-0.3,3,999.7,56.83,23.0346,72.50906,41.6,167.3228349,,0.5,12.90323,,19 / 20,28025,2018-08-24 19:42:52:339,4.5
-0.63,9.63,4.434,0.1,9.113,3.621,-0.73,0.517,0.813,0.182,-0.123,-0.017,7,-26.1,-6.2,-28.2,45.9,-68.3,-1.6,3,999.7,60.7,23.0346,72.50906,41.6,167.3228349,,0.5,12.90323,,19 / 20,28128,2018-08-24 19:42:52:442,4.5
-0.18,9.247,3.309,0.168,9.199,3.394,-0.347,0.048,-0.085,0.52,-0.199,0.039,8,-25.6,-6.3,-27.4,43.8,-68.9,-2.3,3,999.7,60.7,23.0346,72.50906,41.6,167.3228349,,0.5,12.90323,,19 / 20,28226,2018-08-24 19:42:52:540,4.5
0.793,9.771,1.678,0.312,9.365,2.894,0.48,0.296,-1.163,0.473,-0.235,0.063,8,-26.9,-8.6,-26.3,45.2,-72.1,-5.4,3,999.7,60.7,23.0346,72.50906,41.6,167.3228349,,0.5,12.90323,,19 / 20,28325,2018-08-24 19:42:52:639,4.5
1.513,9.218,2.212,0.485,9.402,2.744,1.028,-0.184,-0.532,-0.041,-0.186,-0.091,8,-28.4,-8,-25.4,42.9,-73.6,-9.2,3,999.7,60.2,23.0346,72.50906,41.6,167.3228349,,0.5,12.90323,,19 / 20,28426,2018-08-24 19:42:52:740,4.5
0.263,8.378,3.809,0.479,9.385,2.804,-0.321,-1.034,1.116,-0.006,-0.499,-0.097,8,-28.2,-8.5,-25.4,42,-73.3,-9.6,3,999.7,60.2,23.0346,72.50906,41.6,167.3228349,,0.5,12.90323,,19 / 20,28525,2018-08-24 19:42:52:839,4.5
0.417,9.546,2.322,0.497,9.443,2.598,-0.081,0.103,-0.275,0.218,-0.078,0.087,8,-28.6,-8.8,-24.2,42.7,-73.9,-10.2,3,999.7,60.2,23.0346,72.50906,41.6,167.3228349,,0.1,12.90323,,19 / 21,28625,2018-08-24 19:42:52:939,4.5
0.429,8.816,3.426,0.687,9.385,2.762,-0.16,-0.543,0.344,-0.238,-0.324,0.117,6,-29.8,-9.2,-24.5,40.4,-74.2,-12.4,3,999.7,60.8,23.0346,72.50906,41.6,167.3228349,,0.1,12.90323,,19 / 21,28726,2018-08-24 19:42:53:040,4.5
1.688,9.041,2.167,0.825,9.365,2.79,0.834,-0.243,-0.74,-0.27,-0.214,-0.043,6,-29.2,-8,-24.1,37.4,-72.7,-16.5,3,999.7,60.8,23.0346,72.50906,41.6,167.3228349,,0.1,12.90323,,19 / 21,28826,2018-08-24 19:42:53:140,4.5
1.911,9.85,2.976,0.767,9.349,2.86,1.146,0.434,0.056,0.122,0,-0.242,6,-29.1,-7.1,-23.9,38.8,-72.4,-15,3,999.7,60.8,23.0346,72.50906,41.6,167.3228349,,0.1,12.90323,,19 / 21,28926,2018-08-24 19:42:53:240,4.5
0.819,9.445,4.231,0.661,9.303,3.033,0.275,0.418,0.746,-0.337,-0.325,-0.281,6,-30.1,-8.9,-23.6,42.7,-71.9,-13,3,999.7,58.35,23.0346,72.50906,41.6,167.3228349,,0.1,12.90323,,19 / 21,29025,2018-08-24 19:42:53:339,4.5
0.496,9.417,3.158,0.584,9.303,3.047,-0.122,0.147,0.243,0.225,-0.205,-0.108,6,-31,-9.4,-22.7,47.3,-71.3,-10.9,3,999.7,58.35,23.0346,72.50906,41.6,167.3228349,,0.1,12.90323,,19 / 21,29126,2018-08-24 19:42:53:440,4.5
1.144,9.508,2.478,0.635,9.335,2.935,0.538,0.16,-0.486,-0.102,-0.55,-0.085,6,-32.3,-10.8,-21.9,48.3,-72.2,-11.7,3,999.7,58.35,23.0346,72.50906,41.6,167.3228349,,0.1,12.90323,,19 / 21,29226,2018-08-24 19:42:53:540,4.5
1.42,9.453,2.538,0.718,9.336,2.915,0.644,0.009,-0.192,0.196,-0.523,-0.133,5,-34,-11.3,-20.9,49.9,-72.1,-13.6,3,999.7,58.35,23.0346,72.50906,41.6,167.3228349,,0.1,12.90323,,19 / 21,29326,2018-08-24 19:42:53:640,4.5
0.615,9.041,3.275,0.778,9.35,2.853,-0.163,-0.309,0.422,0.037,-0.66,-0.131,5,-35.3,-11.8,-19.3,52.1,-72.4,-15,3,999.7,57.92,23.0346,72.50906,41.6,167.3228349,,0.1,12.90323,,19 / 21,29425,2018-08-24 19:42:53:739,4.5
0.716,9.369,2.636,0.816,9.383,2.732,-0.27,-0.086,0.186,0.06,-0.618,-0.095,8,-36.1,-11.9,-16.6,53.7,-72.8,-16,3,999.7,57.92,23.0346,72.50906,41.6,167.3228349,,0.1,12.90323,,19 / 21,29526,2018-08-24 19:42:53:840,4.5
0.876,9.146,3.481,0.876,9.363,2.782,0,-0.217,0.699,-0.118,-0.552,-0.251,9,-37.6,-13.3,-14.4,56.1,-72.9,-17.7,3,999.7,57.92,23.0346,72.50906,41.6,167.3228349,,0.1,12.90323,,19 / 19,29630,2018-08-24 19:42:53:944,4.5
0.127,9.165,3.014,0.644,9.411,2.682,-0.565,-0.176,0.239,0.066,-0.1,-0.372,9,-37.2,-13.5,-12.5,60.9,-73.2,-16.2,3,999.7,54.49,23.0346,72.50906,41.6,167.3228349,,0.1,12.90323,,19 / 19,29727,2018-08-24 19:42:54:041,4.5
0.438,8.976,3.412,0.346,9.426,2.683,0.119,-0.493,0.705,0.152,-0.093,-0.269,24,-37.4,-16,-12.2,68.5,-73.7,-10.3,3,999.7,54.49,23.0346,72.50906,41.6,167.3228349,,0.1,12.90323,,19 / 19,29826,2018-08-24 19:42:54:140,4.5
0.402,9.141,2.806,0.249,9.435,2.663,0.153,-0.294,0.143,-0.064,-0.393,-0.122,24,-37,-16.1,-11.7,73.5,-74.2,-5.5,3,999.7,54.49,23.0346,72.50906,41.6,167.3228349,,0.1,12.90323,,19 / 19,29926,2018-08-24 19:42:54:240,4.5
0.232,9.886,2.854,0.305,9.391,2.808,-0.047,0.456,0.075,-0.214,-0.643,-0.064,22,-37.9,-16.7,-9.1,77.2,-73.6,-5.7,3,999.7,55.88,23.0346,72.50906,41.6,167.3228349,,0.1,12.90323,,19 / 19,30025,2018-08-24 19:42:54:339,4.5
0.093,9.345,3.759,0.392,9.328,3,-0.316,0.045,0.788,-0.098,-0.512,-0.088,22,-38.2,-16.9,-8.5,79.3,-72.2,-7.2,3,999.7,55.88,23.0346,72.50906,41.6,167.3228349,,0.1,12.90323,,19 / 19,30125,2018-08-24 19:42:54:439,4.5
0.721,8.916,3.321,0.489,9.294,3.091,0.232,-0.378,0.23,-0.033,-0.712,-0.149,19,-38.6,-17.2,-5,83.5,-71.6,-8.3,3,999.7,55.88,23.0346,72.50906,41.6,167.3228349,,0.1,12.90323,,19 / 19,30225,2018-08-24 19:42:54:539,4.5
0.795,9.172,3.249,0.461,9.286,3.12,0.265,-0.159,0.235,-0.163,-0.636,-0.352,19,-38.8,-17.5,-2.5,85.7,-71.5,-9,3,999.7,58.12,23.0346,72.50906,41.6,167.3228349,,0.1,12.90323,,19 / 19,30325,2018-08-24 19:42:54:639,4.5
0.357,9.201,3.654,0.257,9.244,3.265,0.1,-0.043,0.389,-0.07,-0.681,-0.497,17,-37.3,-19.7,0,94.9,-70.6,-5.8,3,999.7,58.12,23.0346,72.50906,41.6,167.3228349,,0.1,12.90323,,19 / 19,30425,2018-08-24 19:42:54:739,4.5
0.139,9.256,3.843,0.074,9.208,3.374,0.065,0.048,0.469,-0.147,-0.848,-0.435,12,-36.5,-21.4,3,101.9,-70.1,-2,3,999.7,58.12,23.0346,72.50906,41.6,167.3228349,,0.1,12.90323,,19 / 19,30525,2018-08-24 19:42:54:839,4.5
0.338,9.034,3.788,0.038,9.157,3.511,0.254,-0.135,0.349,-0.227,-0.907,-0.371,12,-35.5,-22.9,5.6,108,-69.5,-0.7,3,999.7,56.4,23.0346,72.50906,41.6,167.3228349,,0.1,12.90323,,22 / 22,30625,2018-08-24 19:42:54:939,4.5
-0.268,9.177,3.9,0.047,9.117,3.613,-0.097,0.097,-0.005,-0.031,-0.889,-0.395,10,-33.8,-24.3,8.5,113.4,-68.6,-0.9,3,999.7,56.4,23.0346,72.50906,41.6,167.3228349,,0.1,12.90323,,22 / 22,30725,2018-08-24 19:42:55:039,4.5
-0.208,9.354,3.484,0.057,9.106,3.64,-0.265,0.248,-0.156,-0.075,-0.885,-0.273,10,-31.9,-25.3,10.4,119.4,-68.2,-0.9,3,999.7,56.4,23.0346,72.50906,41.6,167.3228349,,0.1,12.90323,,22 / 22,30826,2018-08-24 19:42:55:140,4.5
-0.654,9.247,4.087,0.112,9.08,3.702,-0.766,0.166,0.385,-0.02,-0.823,-0.251,6,-29.2,-27.2,14.3,126.9,-67.9,-1.5,3,999.7,56.4,23.0346,72.50906,41.6,167.3228349,,0.1,12.90323,,22 / 22,30927,2018-08-24 19:42:55:241,4.5
0.086,9.187,4.434,0.174,9.078,3.706,-0.088,0.109,0.729,0.198,-0.951,-0.34,6,-26.7,-27.6,17.3,131.1,-67.7,-2.2,3,999.7,56.66,23.0346,72.50906,41.6,167.3228349,,0.1,12.90323,,22 / 22,31025,2018-08-24 19:42:55:339,4.5
0.12,9.79,3.357,0.101,9.205,3.381,0.018,0.585,-0.024,0.368,-0.556,-0.431,6,-23.8,-27.5,20.7,139.4,-69.8,-1.7,3,999.7,56.66,23.0346,72.50906,41.6,167.3228349,,0.1,12.90323,,22 / 22,31125,2018-08-24 19:42:55:439,4.5
-0.223,9.216,3.187,-0.015,9.307,3.091,-0.208,-0.091,0.095,0.342,-0.857,-0.249,6,-22.1,-27.8,22.3,143.7,-71.5,0.3,3,999.7,56.66,23.0346,72.50906,41.6,167.3228349,,0.1,12.90323,,22 / 22,31225,2018-08-24 19:42:55:539,4.5
0.096,9.067,2.267,0.042,9.393,2.818,0.111,-0.304,-0.627,0.499,-0.78,-0.066,6,-19.4,-27.6,25.1,148.1,-72.6,-0.1,3,999.7,58.53,23.0346,72.50906,41.6,167.3228349,,0.1,12.90323,,22 / 22,31325,2018-08-24 19:42:55:639,4.5
0.711,9.563,1.882,0.167,9.464,2.562,0.506,0.132,-0.616,0.117,-0.993,-0.112,6,-18,-26.8,27.8,149.7,-74.5,-2.8,3,999.7,58.53,23.0346,72.50906,41.6,167.3228349,,0.1,12.90323,,22 / 22,31426,2018-08-24 19:42:55:740,4.5
0.948,9.359,1.975,0.392,9.479,2.484,0.544,-0.127,-0.437,-0.174,-1.012,-0.075,6,-12.6,-26.9,30.3,152.3,-75.3,-7.4,3,999.7,58.53,23.0346,72.50906,41.6,167.3228349,,0.1,12.90323,,22 / 22,31529,2018-08-24 19:42:55:843,4.5
0.994,9.278,2.557,0.559,9.483,2.435,0.434,-0.205,0.122,0.181,-0.765,-0.069,5,-10.3,-26.3,30.9,153.6,-75.2,-12.9,3,999.7,60.48,23.0346,72.50906,41.7,167.3228349,,0.4,12.90323,,22 / 23,31625,2018-08-24 19:42:55:939,4.5
0.998,9.57,1.812,0.508,9.53,2.257,0.49,0.04,-0.445,0.182,-0.51,-0.252,5,-7.9,-26.7,32.2,155.3,-75.8,-13,3,999.7,60.48,23.0346,72.50906,41.7,167.3228349,,0.4,12.90323,,22 / 23,31725,2018-08-24 19:42:56:039,4.5
0.618,9.29,1.865,0.368,9.539,2.244,0.319,-0.302,-0.405,-0.218,-0.449,-0.228,5,-6.2,-26.6,32.8,161.4,-76.8,-11.1,3,999.7,60.48,23.0346,72.50906,41.7,167.3228349,,0.4,12.90323,,22 / 23,31825,2018-08-24 19:42:56:139,4.5
0.718,9.424,2.928,0.309,9.476,2.505,0.297,0.067,0.21,-0.345,-0.376,-0.23,5,-3.8,-26.9,31.3,165.4,-76,-8.3,3,999.7,58.35,23.0346,72.50906,41.7,167.3228349,,0.4,12.90323,,22 / 23,31927,2018-08-24 19:42:56:241,4.5
1.022,10.015,2.421,0.212,9.462,2.568,0.811,0.553,-0.147,0.198,-0.231,-0.27,5,-1.6,-28.6,31.2,172.2,-74.4,-5.7,3,999.7,58.35,23.0346,72.50906,41.7,167.3228349,,0.4,12.90323,,22 / 23,32026,2018-08-24 19:42:56:340,4.5
0.536,9.599,2.076,0.177,9.491,2.46,0.508,0.05,-0.346,0.035,-0.508,-0.163,5,0.2,-27.8,31.4,176.7,-75.3,-4,3,999.7,58.35,23.0346,72.50906,41.7,167.3228349,,0.4,12.90323,,22 / 23,32126,2018-08-24 19:42:56:440,4.5
0.481,9.469,1.865,0.199,9.489,2.467,0.22,-0.022,-0.571,-0.179,-0.329,-0.141,5,2.3,-28,31.6,179.1,-75.4,-4.6,3,999.7,58.35,23.0346,72.50906,41.7,167.3228349,,0.4,12.90323,,22 / 23,32226,2018-08-24 19:42:56:540,4.5
0.05,9.529,2.344,0.195,9.435,2.668,-0.145,0.095,-0.324,-0.212,-0.434,-0.136,5,3.2,-28.7,30.6,181.1,-74.7,-4.2,3,999.7,58.53,23.0346,72.50906,41.7,167.3228349,,0.4,12.90323,,22 / 23,32325,2018-08-24 19:42:56:639,4.5
0.012,9.764,3.098,0.198,9.371,2.884,-0.196,0.383,0.193,-0.336,-0.525,-0.13,5,4,-28.3,30.4,183,-72.9,-3.9,3,999.7,58.53,23.0346,72.50906,41.7,167.3228349,,0.4,12.90323,,22 / 23,32425,2018-08-24 19:42:56:739,4.5
-0.431,8.777,3.898,0.198,9.284,3.153,-0.628,-0.507,0.745,0.065,-0.026,-0.193,7,6.1,-29.9,29.6,187.3,-71.5,-4.3,3,999.7,58.53,23.0346,72.50906,41.7,167.3228349,,0.4,12.90323,,22 / 23,32525,2018-08-24 19:42:56:839,4.5
-0.12,9.376,2.739,0.108,9.325,3.034,-0.227,0.051,-0.295,-0.074,-0.564,-0.036,7,6.8,-29.8,29.9,188.9,-72,-2,3,999.7,56.93,23.0346,72.50906,41.7,167.3228349,,0.4,12.90323,,22 / 23,32625,2018-08-24 19:42:56:939,4.5
0.445,9.295,2.662,0.207,9.325,3.029,0.233,-0.037,-0.386,-0.062,-0.304,-0.036,7,6.9,-28.9,28.9,186.8,-72,-3.1,3,999.7,56.93,23.0346,72.50906,41.7,167.3228349,,0.4,12.90323,,22 / 23,32725,2018-08-24 19:42:57:039,4.5
0.05,9.041,3.362,0.234,9.311,3.07,-0.184,-0.27,0.291,-0.099,-0.273,-0.002,7,8.2,-29.8,28.9,189,-71.8,-4,3,999.7,56.93,23.0346,72.50906,41.7,167.3228349,,0.4,12.90323,,22 / 23,32825,2018-08-24 19:42:57:139,4.5
-0.062,9.378,3.225,0.196,9.303,3.095,-0.258,0.075,0.13,-0.039,-0.016,-0.047,6,8.6,-29.9,29.5,190.6,-71.6,-3.9,3,999.7,57.57,23.0346,72.50906,41.7,167.3228349,,0.4,12.90323,,22 / 23,32926,2018-08-24 19:42:57:240,4.5
-0.199,9.386,2.54,0.127,9.295,3.124,-0.268,0.105,-0.526,0.032,0.283,0.089,6,8.8,-29.6,28.3,191.9,-71.3,-2.7,3,999.7,57.57,23.0346,72.50906,41.7,167.3228349,,0.4,12.90323,,22 / 23,33025,2018-08-24 19:42:57:339,4.5
-0.117,9.182,3.536,0.188,9.221,3.331,-0.305,-0.039,0.205,-0.287,0.059,0.173,7,9,-30.1,28.4,190.4,-71.2,-2.3,3,999.7,57.57,23.0346,72.50906,41.7,167.3228349,,0.4,12.90323,,22 / 23,33125,2018-08-24 19:42:57:439,4.5
0.261,9.539,3.397,0.265,9.156,3.503,-0.059,0.364,-0.048,-0.212,0.09,0.044,8,8.2,-31.1,26.9,189.2,-69,-4.3,3,999.7,58.13,23.0346,72.50906,41.7,167.3228349,,0.4,12.90323,,22 / 23,33226,2018-08-24 19:42:57:540,4.5
0.467,9.374,3.335,0.192,9.142,3.543,0.294,0.281,-0.258,-0.039,0.219,-0.13,8,7.7,-32.1,27.1,189.4,-68.8,-3.9,3,999.7,58.13,23.0346,72.50906,41.7,167.3228349,,0.4,12.90323,,22 / 23,33325,2018-08-24 19:42:57:639,4.5
0.227,9.747,2.447,0.025,9.197,3.405,0.202,0.551,-0.958,0.071,0.305,0,8,7.4,-30.8,27.2,191.4,-69.2,-1.4,3,999.7,58.13,23.0346,72.50906,41.7,167.3228349,,0.4,12.90323,,22 / 23,33425,2018-08-24 19:42:57:739,4.5
0.194,9.041,3.644,0.117,9.156,3.512,0.039,-0.155,0.187,0.151,0.046,0.117,8,7.4,-31.4,27.4,189.7,-68.9,-1.5,3,999.7,55.08,23.0346,72.50906,41.7,167.3228349,,0.4,12.90323,,22 / 23,33525,2018-08-24 19:42:57:839,4.5
0.369,9.251,4.288,0.24,9.194,3.404,0.103,0.086,0.858,0.065,-0.47,0.011,8,7.4,-31.5,28.8,187.9,-69.6,-3.7,3,999.7,55.08,23.0346,72.50906,41.7,167.3228349,,0.2,12.90323,,21 / 22,33626,2018-08-24 19:42:57:940,4.5
0.536,10.082,2.811,0.281,9.292,3.124,0.277,0.843,-0.454,0.228,0.141,-0.066,8,8.3,-30.8,27.6,188.2,-70.7,-5.4,3,999.7,55.08,23.0346,72.50906,41.7,167.3228349,,0.2,12.90323,,21 / 22,33727,2018-08-24 19:42:58:041,4.5
0.721,9.496,2.938,0.256,9.277,3.17,0.422,0.262,-0.149,-0.049,-0.148,-0.16,8,8.4,-30.1,28.1,188.8,-71.1,-4.6,3,999.7,55.08,23.0346,72.50906,41.7,167.3228349,,0.2,12.90323,,21 / 22,33826,2018-08-24 19:42:58:140,4.5
0.213,9.144,3.292,0.175,9.272,3.19,0.038,-0.128,0.102,0.011,-0.174,-0.106,8,9.2,-30.4,27.5,191.4,-71,-3.3,3,999.7,59.65,23.0346,72.50906,41.7,167.3228349,,0.2,12.90323,,21 / 22,33926,2018-08-24 19:42:58:240,4.5
0.093,8.945,3.072,0.137,9.299,3.111,-0.068,-0.366,0.016,0.073,0.07,-0.017,9,10.1,-30.1,28.1,193.4,-71.4,-2.7,3,999.7,59.65,23.0346,72.50906,41.7,167.3228349,,0.2,12.90323,,21 / 22,34026,2018-08-24 19:42:58:340,4.5
0.321,8.662,2.983,0.195,9.285,3.149,0.087,-0.663,-0.082,-0.218,-0.186,0.067,9,10.1,-29.6,27.7,193.3,-71.5,-3,3,999.7,59.65,23.0346,72.50906,41.7,167.3228349,,0.2,12.90323,,21 / 22,34126,2018-08-24 19:42:58:440,4.5
1.032,9.268,2.454,0.36,9.255,3.223,0.686,-0.023,-0.774,-0.009,-0.1,0.009,9,9.2,-30.5,27.5,190,-70.7,-4.9,3,999.7,52.7,23.0346,72.50906,41.7,167.3228349,,0.2,12.90323,,21 / 22,34225,2018-08-24 19:42:58:539,4.5
0.773,9.484,3.182,0.453,9.273,3.157,0.321,0.21,0.025,0.017,-0.068,-0.152,10,10,-29.6,27.5,190.3,-70.9,-7.7,3,999.7,52.7,23.0346,72.50906,41.7,167.3228349,,0.2,12.90323,,21 / 22,34325,2018-08-24 19:42:58:639,4.5
0.45,9.244,3.505,0.391,9.277,3.156,0.059,-0.032,0.349,-0.233,-0.042,-0.305,10,11.3,-30.4,27.8,190.9,-71.3,-7.6,3,999.7,52.7,23.0346,72.50906,41.7,167.3228349,,0.2,12.90323,,21 / 22,34428,2018-08-24 19:42:58:742,4.5
-0.225,9.505,3.189,0.09,9.284,3.157,-0.315,0.216,0.049,0.027,0.147,-0.258,10,11.4,-30,27.4,193.8,-71,-4.5,3,999.7,53,23.0346,72.50906,41.7,167.3228349,,0.2,12.90323,,21 / 22,34528,2018-08-24 19:42:58:842,4.5
-0.141,9.249,3.271,-0.085,9.266,3.21,-0.013,0.028,-0.064,-0.051,0.158,-0.113,10,11.2,-30,27.2,197.6,-71,0.9,3,999.7,53,23.0346,72.50906,41.7,167.3228349,,0.3,12.90323,,22 / 22,34626,2018-08-24 19:42:58:940,4.5
-0.208,9.17,3.33,-0.156,9.235,3.295,-0.069,-0.12,0.035,-0.03,0.02,-0.022,10,11.6,-29.9,28,200.3,-70.5,2.6,3,999.7,53,23.0346,72.50906,41.7,167.3228349,,0.3,12.90323,,22 / 22,34725,2018-08-24 19:42:59:039,4.5
0.163,8.988,2.911,-0.151,9.245,3.269,0.304,-0.235,-0.324,0.007,-0.174,-0.014,10,11.4,-29.9,27.3,199.4,-70.5,2.8,3,999.7,53,23.0346,72.50906,41.7,167.3228349,,0.3,12.90323,,22 / 22,34825,2018-08-24 19:42:59:139,4.5
-0.077,9.295,3.615,-0.108,9.243,3.274,0.197,0.061,0.167,-0.103,-0.096,-0.126,9,12.3,-29.4,27.1,200.5,-70.6,2,3,999.7,60.16,23.0346,72.50906,41.7,167.3228349,,0.3,12.90323,,22 / 22,34925,2018-08-24 19:42:59:239,4.5
-0.558,8.789,4.001,-0.255,9.262,3.213,-0.302,-0.472,0.788,0.284,-0.015,-0.179,9,13.1,-29.6,26.7,204.3,-70.5,3.6,3,999.7,60.16,23.0346,72.50906,41.7,167.3228349,,0.3,12.90323,,22 / 22,35026,2018-08-24 19:42:59:340,4.5
-1.575,9.304,4.077,-0.504,9.288,3.106,-1.062,-0.017,0.959,-0.05,0.236,-0.149,10,14.3,-28.4,27.7,207.2,-71.5,7.2,3,999.7,60.16,23.0346,72.50906,41.7,167.3228349,,0.3,12.90323,,22 / 22,35125,2018-08-24 19:42:59:439,4.5
-0.704,9.017,3.182,-0.526,9.25,3.213,-0.152,-0.102,-0.122,-0.252,-0.138,0.091,10,13.8,-29.1,27.7,209.1,-70.8,9.7,3,999.7,58.73,23.0346,72.50906,41.7,167.3228349,,0.3,12.90323,,22 / 22,35226,2018-08-24 19:42:59:540,4.5
-0.883,9.299,3.249,-0.546,9.271,3.15,-0.338,0.028,0.099,0.1,0.133,0.041,10,13.3,-28.7,27.3,207.5,-70.8,9.5,3,999.7,58.73,23.0346,72.50906,41.7,167.3228349,,0.3,12.90323,,22 / 22,35325,2018-08-24 19:42:59:639,4.5
-0.472,9.194,4.631,-0.388,9.167,3.461,-0.084,0.027,1.169,-0.534,-0.451,0.14,10,13.3,-29.2,27,205.6,-69.5,6.9,3,999.7,58.73,23.0346,72.50906,41.7,167.3228349,,0.3,12.90323,,22 / 22,35427,2018-08-24 19:42:59:741,4.5
-0.417,9.218,3.929,-0.255,9.129,3.573,-0.162,0.089,0.356,0.282,0.377,0.145,10,13.6,-30.2,25.7,205.3,-68.4,4,3,999.7,60.64,23.0346,72.50906,41.7,167.3228349,,0.3,12.90323,,22 / 22,35526,2018-08-24 19:42:59:840,4.5
-0.457,9.62,3.383,-0.231,9.194,3.405,-0.222,0.4,0.021,0.262,0.169,0.096,10,13,-30.1,26.9,203,-69.2,4,3,999.7,60.64,23.0346,72.50906,41.7,167.3228349,,0.1,12.90323,,19 / 22,35630,2018-08-24 19:42:59:944,4.5
-0.01,9.168,3.175,-0.212,9.292,3.127,0.191,-0.089,-0.153,0.361,0.127,0.018,10,12.5,-29.4,27.6,202.2,-71,3.7,3,999.7,60.64,23.0346,72.50906,41.7,167.3228349,,0.1,12.90323,,19 / 22,35725,2018-08-24 19:43:00:039,4.5
-0.321,8.974,3.778,-0.234,9.342,2.974,-0.094,-0.227,0.646,0.053,-0.449,-0.153,10,11,-28.4,28.5,200.4,-72.2,4.5,3,999.7,61.27,23.0346,72.50906,41.7,167.3228349,,0.1,12.90323,,19 / 22,35827,2018-08-24 19:43:00:141,4.5
-0.4,9.328,3.263,-0.171,9.431,2.683,-0.248,-0.191,0.657,0.415,0.167,0.133,10,11.6,-29.5,29.1,201.7,-73.1,4.1,3,999.7,61.27,23.0346,72.50906,41.7,167.3228349,,0.1,12.90323,,19 / 22,35926,2018-08-24 19:43:00:240,4.5
0.227,9.345,1.432,0,9.531,2.309,0.125,-0.062,-0.992,0.402,0.125,0.388,10,12,-27.1,29.9,200.7,-75.3,2.6,3,999.7,61.27,23.0346,72.50906,41.7,167.3228349,,0.1,12.90323,,19 / 22,36026,2018-08-24 19:43:00:340,4.5
0.359,9.994,0.539,0.278,9.564,2.151,0.105,0.308,-1.756,-0.237,0.083,0.302,9,11.5,-27.1,30.8,194.3,-77.1,-3.1,3,999.7,61.27,23.0346,72.50906,41.7,167.3228349,,0.1,12.90323,,19 / 22,36127,2018-08-24 19:43:00:441,4.5
0.678,9.105,2.981,0.534,9.506,2.348,0.143,-0.413,0.619,-0.151,-0.52,-0.006,9,10.5,-27.7,30.5,186.2,-76.1,-12.2,3,999.7,56.45,23.0346,72.50906,41.7,167.3228349,,0.1,12.90323,,19 / 22,36226,2018-08-24 19:43:00:540,4.5
-0.321,9.862,2.67,0.404,9.574,2.085,-0.725,0.288,0.584,0.519,0.362,-0.163,9,10.6,-27.1,29.8,187.3,-76.7,-12.2,3,999.7,56.45,23.0346,72.50906,41.7,167.3228349,,0.1,12.90323,,19 / 22,36326,2018-08-24 19:43:00:640,4.5
-0.522,9.496,2.437,0.248,9.652,1.715,-0.691,-0.183,0.639,0.554,0.131,-0.023,9,11.2,-26.4,31.7,189.3,-79.1,-9,3,999.7,56.45,23.0346,72.50906,41.7,167.3228349,,0.1,12.90323,,19 / 22,36425,2018-08-24 19:43:00:739,4.5
0.577,9.522,2.411,0.163,9.7,1.433,0.567,-0.348,0.892,0.216,-0.089,-0.071,9,9.6,-24.3,34,188.8,-80.6,-7.6,3,999.7,60.12,23.0346,72.50906,41.7,167.3228349,,0.1,12.90323,,19 / 22,36525,2018-08-24 19:43:00:839,4.5
-0.802,9.831,3.517,-0.041,9.699,1.45,-0.711,0.039,2.108,-0.113,0.21,0.135,9,9.8,-24.4,33.2,196.9,-81.8,1.5,3,999.7,60.12,23.0346,72.50906,41.7,167.3228349,,0.1,12.90323,,22 / 22,36626,2018-08-24 19:43:00:940,4.5
1.302,9.606,-0.144,0.101,9.701,1.433,1.223,-0.016,-1.606,0.115,0.246,0.178,8,8.9,-24.2,33.4,191,-81.5,-3.2,3,999.7,60.12,23.0346,72.50906,41.7,167.3228349,,0.1,12.90323,,22 / 22,36725,2018-08-24 19:43:01:039,4.5
0.062,10.2,1.128,0.147,9.705,1.398,-0.085,0.494,-0.271,-0.267,0.078,0.11,8,8.6,-23.8,34.4,188.1,-81.8,-6,3,999.7,60.66,23.0346,72.50906,41.7,167.3228349,,0.1,12.90323,,22 / 22,36825,2018-08-24 19:43:01:139,4.5
0.982,9.596,1.472,0.349,9.67,1.593,0.633,-0.074,-0.121,-0.047,-0.173,0.113,8,8.2,-24.5,33.2,182.3,-80.7,-10.7,3,999.7,60.66,23.0346,72.50906,41.7,167.3228349,,0.1,12.90323,,22 / 22,36925,2018-08-24 19:43:01:239,4.5
0.84,9.563,1.281,0.481,9.661,1.611,0.393,-0.07,-0.368,-0.215,-0.208,0.083,8,8.9,-24.9,33.7,178.9,-80.4,-16.1,3,999.7,60.66,23.0346,72.50906,41.7,167.3228349,,0.1,12.90323,,22 / 22,37025,2018-08-24 19:43:01:339,4.5
0.833,9.603,1.494,0.534,9.645,1.694,0.366,-0.017,-0.283,-0.088,-0.074,-0.085,8,7.6,-25.9,33.3,176.6,-79.6,-17.5,3,999.7,62.21,23.0346,72.50906,41.7,167.3228349,,0.1,12.90323,,22 / 22,37125,2018-08-24 19:43:01:439,4.5
0.579,9.632,1.441,0.491,9.652,1.662,-0.024,0.171,-0.321,-0.14,-0.01,-0.034,9,9.2,-25.5,32,180.3,-79.8,-17.1,3,999.7,62.21,23.0346,72.50906,41.7,167.3228349,,0.1,12.90323,,22 / 22,37229,2018-08-24 19:43:01:543,4.5
0.852,9.292,1.729,0.423,9.619,1.864,0.133,-0.362,0.308,-0.343,0.268,-0.19,9,9.7,-26.2,32.8,182.2,-79.1,-14.3,3,999.7,62.21,23.0346,72.50906,41.7,167.3228349,,0.1,12.90323,,22 / 22,37326,2018-08-24 19:43:01:640,4.5
-0.127,10.001,2.528,0.275,9.617,1.901,-0.349,0.355,0.663,0.039,0.086,-0.072,10,8.5,-26.1,31.4,184.8,-78.7,-9,3,999.7,62.21,23.0346,72.50906,41.7,167.3228349,,0.1,12.90323,,22 / 22,37425,2018-08-24 19:43:01:739,4.5
0.438,9.807,1.693,0.278,9.613,1.921,0.148,0.264,-0.272,-0.271,-0.114,0.137,10,8.2,-26.2,32.9,185.9,-78.8,-7,3,999.7,57.12,23.0346,72.50906,41.7,167.3228349,,0.1,12.90323,,22 / 22,37526,2018-08-24 19:43:01:840,4.5
-0.132,9.759,2.239,0.334,9.578,2.078,-0.476,0.179,0.199,-0.011,0.209,0.103,10,7.4,-26.7,31.4,183.3,-77.6,-8.9,3,999.7,57.12,23.0346,72.50906,41.8,167.3228349,,0,12.90323,,21 / 21,37625,2018-08-24 19:43:01:939,4.5
0.438,9.292,2.31,0.451,9.549,2.189,-0.013,-0.256,0.122,-0.113,-0.082,0.121,10,7.9,-27.4,31.3,183,-77,-11,3,999.7,57.12,23.0346,72.50906,41.8,167.3228349,,0,12.90323,,21 / 21,37725,2018-08-24 19:43:02:039,4.5
0.271,8.995,2.03,0.461,9.521,2.305,-0.263,-0.516,-0.265,-0.168,0.106,-0.098,10,6.8,-27.9,31.1,182,-76.4,-12.2,3,999.7,57.65,23.0346,72.50906,41.8,167.3228349,,0,12.90323,,21 / 21,37825,2018-08-24 19:43:02:139,4.5
0.098,9.73,2.437,0.324,9.487,2.46,-0.178,0.255,-0.03,-0.175,0.016,-0.048,9,6.6,-28.4,31.2,183.7,-75.5,-8.3,3,999.7,57.65,23.0346,72.50906,41.8,167.3228349,,0,12.90323,,21 / 21,37925,2018-08-24 19:43:02:239,4.5
0.024,9.699,2.691,0.202,9.47,2.539,-0.149,0.315,0.157,-0.11,0.188,-0.098,9,7.1,-28,30.9,186.3,-75,-5.2,3,999.7,57.65,23.0346,72.50906,41.8,167.3228349,,0,12.90323,,21 / 21,38025,2018-08-24 19:43:02:339,4.5
-0.634,9.857,2.588,0.002,9.476,2.523,-0.636,0.381,0.065,-0.146,0.238,-0.013,10,7.2,-28.7,30.6,190.1,-75.2,-0.6,3,999.7,60.63,23.0346,72.50906,41.8,167.3228349,,0,12.90323,,21 / 21,38125,2018-08-24 19:43:02:439,4.5
-0.139,9.728,2.217,0.031,9.483,2.499,-0.184,0.243,-0.27,0.417,0.1,0.116,10,6.6,-28.6,30.2,190.5,-74.8,-0.4,3,999.7,60.63,23.0346,72.50906,41.8,167.3228349,,0,12.90323,,21 / 21,38225,2018-08-24 19:43:02:539,4.5
0.551,9.673,1.609,0.097,9.541,2.265,0.133,0.07,-0.05,0.27,-0.397,0.018,9,6.7,-28.4,31.1,189.3,-76.4,-1.8,3,999.7,60.63,23.0346,72.50906,41.8,167.3228349,,0,12.90323,,21 / 21,38325,2018-08-24 19:43:02:639,4.5
0.824,9.457,1.611,0.123,9.579,2.096,0.694,-0.117,-0.494,0.027,-0.537,-0.189,9,7.6,-26.8,32.1,189.4,-77.5,-3.5,3,999.7,60.63,23.0346,72.50906,41.8,167.3228349,,0,12.90323,,21 / 21,38426,2018-08-24 19:43:02:740,4.5
0.263,9.271,3.35,0.087,9.567,2.153,0.38,-0.366,1.058,-0.135,-0.966,-0.133,10,9.7,-26.9,31.1,193.8,-77.5,-1.9,3,999.7,59.83,23.0346,72.50906,41.8,167.3228349,,0,12.90323,,21 / 21,38526,2018-08-24 19:43:02:840,4.5
0.436,9.814,2.737,0.033,9.571,2.137,0.369,0.284,0.581,0.096,-0.536,-0.301,10,11.8,-26.5,30.5,196.9,-77.3,-1.8,3,999.7,59.83,23.03459,72.50906,41.9,167.3228349,,0.3,12.90323,,21 / 22,38626,2018-08-24 19:43:02:940,4.5
-0.196,9.781,2.78,-0.136,9.578,2.103,0.007,0.368,0.584,-0.036,-0.427,-0.259,10,14.9,-26,29.3,206.5,-77.7,3,3,999.7,59.83,23.03459,72.50906,41.9,167.3228349,,0.3,12.90323,,21 / 22,38725,2018-08-24 19:43:03:039,4.5
0.113,9.881,1.559,-0.227,9.589,2.04,0.329,0.321,-0.467,0.043,-0.814,-0.23,11,17,-24.9,29.8,211.6,-77.9,6.1,3,999.7,59.52,23.03459,72.50906,41.9,167.3228349,,0.3,12.90323,,21 / 22,38826,2018-08-24 19:43:03:140,4.5
0.747,8.143,2.049,-0.147,9.548,2.234,1.1,-1.354,-0.336,0.094,-0.574,-0.348,11,19.7,-25.9,26.7,215.5,-77,4.1,3,999.7,59.52,23.03459,72.50906,41.9,167.3228349,,0.3,12.90323,,21 / 22,38925,2018-08-24 19:43:03:239,4.5
-1.252,9.939,2.461,-0.337,9.591,2.017,-0.889,0.343,0.434,0.119,-0.526,-0.172,11,23.4,-24.6,25.7,224.7,-77.8,8.8,3,999.7,59.52,23.03459,72.50906,41.9,167.3228349,,0.3,12.90323,,21 / 22,39025,2018-08-24 19:43:03:339,4.5
0.062,9.955,2.303,-0.236,9.571,2.123,0.426,0.341,0.159,0.094,-0.649,-0.141,11,23.6,-24.5,23.5,225.9,-77.7,7.9,3,999.7,58.58,23.03459,72.50906,41.9,167.3228349,,0.3,12.90323,,21 / 22,39126,2018-08-24 19:43:03:440,4.5
-0.642,10.293,2.205,-0.261,9.621,1.879,-0.402,0.662,0.319,0.179,-0.531,-0.007,12,26.2,-23.6,23,230.9,-78.6,8,3,999.7,58.58,23.03459,72.50906,41.9,167.3228349,,0.3,12.90323,,21 / 22,39232,2018-08-24 19:43:03:546,4.5
0.544,9.998,1.511,-0.13,9.643,1.779,0.729,0.324,-0.278,0.065,-0.527,0.062,12,27,-23.7,21.5,230.8,-79.4,5.2,3,999.7,58.58,23.03459,72.50906,41.9,167.3228349,,0.3,12.90323,,21 / 22,39325,2018-08-24 19:43:03:639,4.5
-0.007,9.122,1.542,0.003,9.658,1.701,-0.01,-0.495,-0.114,0.086,-0.348,0.084,10,28.3,-22.8,20.3,231.2,-79.8,1.6,3,999.7,57.31,23.03459,72.50906,41.9,167.3228349,,0.3,12.90323,,21 / 22,39426,2018-08-24 19:43:03:740,4.5
0.326,8.979,1.235,0.126,9.661,1.68,0.307,-0.622,-0.583,0.053,-0.319,0.065,10,28,-23.8,19,227.5,-80.1,-3.5,3,999.7,57.31,23.03459,72.50906,41.9,167.3228349,,0.3,12.90323,,21 / 22,39526,2018-08-24 19:43:03:840,4.5
0.733,9.659,1.051,0.128,9.643,1.781,0.605,0.016,-0.73,-0.138,-0.284,-0.247,10,28.9,-23.2,18.4,226.2,-79.8,-4.9,3,999.7,57.31,23.03459,72.50905,41.9,167.3228349,,0.2,12.90323,,19 / 21,39625,2018-08-24 19:43:03:939,4.5
-0.225,9.967,1.662,-0.129,9.641,1.789,-0.082,0.312,-0.134,0.01,0.045,-0.337,10,29.3,-23.5,18.1,234.9,-79.5,2.2,3,999.7,57.31,23.03459,72.50905,41.9,167.3228349,,0.2,12.90323,,19 / 21,39725,2018-08-24 19:43:04:039,4.5
-0.503,10.111,1.743,-0.369,9.643,1.747,-0.211,0.631,-0.002,-0.009,0.02,-0.078,10,29,-22,17.7,243.3,-79.5,9.8,3,999.7,59.37,23.03459,72.50905,41.9,167.3228349,,0.2,12.90323,,19 / 21,39825,2018-08-24 19:43:04:139,4.5
0.089,9.735,1.729,-0.343,9.653,1.695,0.432,0.082,0.034,0.219,-0.029,0.109,10,29.8,-22.4,18.4,245.4,-79.7,12,3,999.7,59.37,23.03459,72.50905,41.9,167.3228349,,0.2,12.90323,,19 / 21,39925,2018-08-24 19:43:04:239,4.5
0.347,9.793,1.161,-0.211,9.675,1.587,0.422,0.108,-0.12,0.12,-0.213,0.148,10,29.9,-22.1,17.9,242.9,-80.4,8.9,3,999.7,59.37,23.03459,72.50905,41.9,167.3228349,,0.2,12.90323,,19 / 21,40025,2018-08-24 19:43:04:339,4.5
0.735,9.455,1.429,0.114,9.657,1.705,0.779,-0.216,-0.251,-0.294,-0.748,0.174,10,29.7,-22.5,17.8,232.8,-80.3,-1.7,3,999.7,60.66,23.03459,72.50905,41.9,167.3228349,,0.2,12.90323,,19 / 21,40127,2018-08-24 19:43:04:441,4.5
0.737,9.28,1.724,0.312,9.644,1.754,0.456,-0.385,-0.008,0.098,-0.299,0.065,10,29.3,-23.6,16.3,227.1,-79.5,-8.9,3,999.7,60.66,23.03459,72.50905,41.9,167.3228349,,0.2,12.90323,,19 / 21,40225,2018-08-24 19:43:04:539,4.5
0.443,9.565,1.949,0.484,9.631,1.785,-0.132,0.006,0.092,-0.419,-0.555,0.167,9,29.5,-24.6,15.5,224.9,-79.7,-13.7,3,999.7,60.66,23.03459,72.50905,41.9,167.3228349,,0.2,12.90323,,19 / 21,40326,2018-08-24 19:43:04:640,4.5
1.212,9.524,2.655,0.661,9.519,2.263,0.543,0.017,0.414,-0.395,-0.419,-0.195,9,29.5,-24.8,12.2,224,-76.5,-16.8,3,999.7,59.89,23.03459,72.50905,41.9,167.3228349,,0.2,12.90323,,19 / 21,40426,2018-08-24 19:43:04:740,4.5
-0.079,9.685,3.053,0.456,9.481,2.463,-0.562,0.182,0.575,-0.021,-0.252,-0.323,9,30.7,-23.8,11.5,230.6,-75.3,-12.4,3,999.7,59.89,23.03459,72.50905,41.9,167.3228349,,0.2,12.90323,,19 / 21,40525,2018-08-24 19:43:04:839,4.5
0.132,9.587,2.124,0.241,9.484,2.482,0.027,0.112,-0.624,-0.148,-0.208,-0.378,10,32,-23.3,10.8,234.8,-75.3,-8.5,3,999.7,59.89,23.03459,72.50905,41.9,167.3228349,,0.1,12.90323,,21 / 22,40626,2018-08-24 19:43:04:940,4.5
0.146,9.67,2.389,-0.042,9.455,2.6,0.152,-0.008,-0.065,-0.017,-0.207,-0.366,10,33.6,-21.1,10.9,244.8,-74.6,0.3,3,999.7,60.41,23.03459,72.50905,41.9,167.3228349,,0.1,12.90323,,21 / 22,40726,2018-08-24 19:43:05:040,4.5
-0.553,9.785,2.794,-0.28,9.451,2.601,-0.278,0.315,0.258,0.243,-0.266,-0.234,11,34.5,-20.2,10.4,251,-74.4,5.2,3,999.7,60.41,23.03459,72.50905,41.9,167.3228349,,0.1,12.90323,,21 / 22,40826,2018-08-24 19:43:05:140,4.5
-0.591,9.405,2.816,-0.32,9.479,2.492,-0.272,-0.075,0.324,0.06,-0.564,-0.029,11,35.6,-19.5,9.8,255.2,-75.1,7.7,3,999.7,60.41,23.03459,72.50905,41.9,167.3228349,,0.1,12.90323,,21 / 22,40925,2018-08-24 19:43:05:239,4.5
-0.287,9.742,2.66,-0.178,9.496,2.44,-0.066,0.251,0.203,0.067,-0.629,0.084,9,36.8,-19,8.3,256.5,-75.4,5.6,3,999.7,60.41,23.03459,72.50905,41.9,167.3228349,,0.1,12.90323,,21 / 22,41025,2018-08-24 19:43:05:339,4.5
0.22,9.503,2.967,0.109,9.488,2.476,0.109,0.007,0.469,-0.087,-0.936,0.113,9,36.5,-18.3,6.4,254.9,-75.5,0.5,3,999.7,60.3,23.03459,72.50905,41.9,167.3228349,,0.1,12.90323,,21 / 22,41126,2018-08-24 19:43:05:440,4.5
1.034,9.443,2.095,0.353,9.475,2.504,0.576,0.085,-0.409,-0.317,-0.807,0.028,9,37.1,-17.8,2,251.9,-75.2,-7.1,3,999.7,60.3,23.03459,72.50905,41.9,167.3228349,,0.1,12.90323,,21 / 22,41226,2018-08-24 19:43:05:540,4.5
0.982,8.794,3.103,0.48,9.382,2.812,0.216,-0.545,0.384,-0.279,-0.695,-0.216,9,37.5,-17.2,-2.2,256.5,-73.4,-9.7,3,999.7,60.3,23.03459,72.50905,41.9,167.3228349,,0.1,12.90323,,21 / 22,41326,2018-08-24 19:43:05:640,4.5
0.57,8.698,3.249,0.388,9.303,3.079,0.182,-0.604,0.17,-0.286,-0.755,-0.252,9,37.8,-16.1,-5.8,264.2,-71.8,-7.3,3,999.7,58.77,23.03459,72.50905,41.9,167.3228349,,0.1,12.90323,,21 / 22,41430,2018-08-24 19:43:05:744,4.5
0.555,9.113,3.22,0.384,9.262,3.199,0.2,-0.209,0.004,-0.194,-0.643,-0.108,10,38.1,-14.9,-7.7,266.4,-71,-6.6,3,999.7,58.77,23.03459,72.50905,41.9,167.3228349,,0.1,12.90323,,21 / 22,41532,2018-08-24 19:43:05:846,4.5
0.354,9.319,2.689,0.459,9.235,3.267,-0.03,0.072,-0.571,-0.203,-0.341,-0.003,10,38.4,-14.6,-10.6,270.1,-70.5,-7.4,3,999.7,58.77,23.03459,72.50905,41.9,167.3228349,,0.1,12.90323,,23 / 23,41625,2018-08-24 19:43:05:939,4.5
1.13,9.297,3.431,0.568,9.151,3.478,0.478,0.193,-0.16,-0.436,-0.359,-0.042,11,38.3,-13.6,-12.2,270.9,-69.3,-9,3,999.7,57.85,23.03459,72.50905,41.9,167.3228349,,0.1,12.90323,,23 / 23,41725,2018-08-24 19:43:06:039,4.5
1.444,9.357,3.828,0.569,9.067,3.693,0.93,0.35,-0.001,-0.087,-0.057,-0.135,11,36.7,-13.4,-13.9,273.6,-67.7,-9.1,3,999.7,57.85,23.03459,72.50905,41.9,167.3228349,,0.1,12.90323,,23 / 23,41825,2018-08-24 19:43:06:139,4.5
1.142,9.029,4.298,0.585,9.052,3.727,0.59,-0.047,0.597,0.028,-0.318,-0.081,12,37.7,-12.5,-14.6,274.9,-67.4,-8.6,3,999.7,57.85,23.03459,72.50905,41.9,167.3228349,,0.1,12.90323,,23 / 23,41925,2018-08-24 19:43:06:239,4.5
0.675,8.897,3.919,0.68,9.074,3.656,-0.261,-0.237,0.951,0.304,-0.211,0.023,12,37.9,-12.7,-15.1,273.3,-67.7,-10.5,3,999.7,57.22,23.03459,72.50905,41.9,167.3228349,,0.1,12.90323,,23 / 23,42025,2018-08-24 19:43:06:339,4.5
0.347,9.249,3.972,0.701,9.098,3.592,-0.34,0.118,0.437,-0.32,-0.227,-0.001,11,37.1,-14.5,-15.5,272.7,-68.4,-11.1,3,999.7,57.22,23.03459,72.50905,41.9,167.3228349,,0.1,12.90323,,23 / 23,42125,2018-08-24 19:43:06:439,4.5
0.405,8.799,4.319,0.782,9.013,3.784,-0.363,-0.104,0.545,0.039,0.155,0.077,11,35.4,-14,-17.2,275.1,-66.9,-11.6,3,999.7,57.22,23.03459,72.50905,41.9,167.3228349,,0.1,12.90323,,23 / 23,42225,2018-08-24 19:43:06:539,4.5
0.804,9.299,3.472,0.785,9.057,3.677,-0.041,0.221,-0.15,0.231,0.024,0.102,12,35.5,-14,-15.6,272.1,-67.1,-11.6,3,999.7,55.58,23.03459,72.50905,41.9,167.3228349,,0.1,12.90323,,23 / 23,42325,2018-08-24 19:43:06:639,4.5
0.96,9.014,3.223,0.825,9.073,3.628,0.353,-0.152,-0.332,0.23,0.223,-0.104,11,35.5,-14.9,-15.8,270.5,-67.6,-12.9,3,999.7,55.58,23.03459,72.50905,41.9,167.3228349,,0.1,12.90323,,23 / 23,42425,2018-08-24 19:43:06:739,4.5
-0.086,9.826,2.967,0.54,9.165,3.446,-0.512,0.575,-0.623,0.164,0.354,-0.285,11,36.2,-14.8,-14.8,272.8,-68.6,-10.9,3,999.7,55.58,23.03459,72.50905,41.9,167.3228349,,0.1,12.90323,,23 / 23,42525,2018-08-24 19:43:06:839,4.5
0.192,9.297,3.278,0.368,9.194,3.392,-0.315,0.046,0.35,0.223,0.062,-0.029,10,36.5,-14.3,-14.2,276.6,-69.4,-6.5,3,999.7,55.58,23.03459,72.50905,41.9,167.3228349,,0.4,12.90323,,22 / 22,42625,2018-08-24 19:43:06:939,4.5
0.268,8.873,2.749,0.332,9.263,3.203,-0.119,-0.445,-0.215,0.228,0.012,0.026,10,37,-15,-13.6,277,-70.7,-5.7,3,999.7,55.1,23.03459,72.50905,41.9,167.3228349,,0.4,12.90323,,22 / 22,42726,2018-08-24 19:43:07:040,4.5
0.45,9.455,2.339,0.298,9.331,3.001,0.157,0.095,-0.64,0.123,0.091,-0.061,10,36.6,-16.1,-12.7,275.9,-71.4,-6.1,3,999.7,55.1,23.03459,72.50905,41.9,167.3228349,,0.4,12.90323,,22 / 22,42825,2018-08-24 19:43:07:139,4.5
0.831,9.311,2.538,0.287,9.365,2.897,0.544,-0.053,-0.359,-0.119,-0.214,-0.02,10,37.2,-15.7,-12.4,275,-72.8,-5.4,3,999.7,55.1,23.03459,72.50905,41.9,167.3228349,,0.4,12.90323,,22 / 22,42926,2018-08-24 19:43:07:240,4.5
0.718,9.972,1.927,0.314,9.384,2.829,0.019,0.679,-0.945,-0.204,-0.583,0.011,11,36.8,-15.8,-11.3,273.4,-73.1,-5.7,3,999.7,55.36,23.03459,72.50905,41.9,167.3228349,,0.4,12.90323,,22 / 22,43026,2018-08-24 19:43:07:340,4.5
0.158,9.223,3.491,0.364,9.395,2.788,-0.182,-0.143,0.662,0.194,-0.376,-0.064,11,35.7,-14.9,-13,275.5,-72.8,-7.1,3,999.7,55.36,23.03459,72.50905,41.9,167.3228349,,0.4,12.90323,,22 / 22,43125,2018-08-24 19:43:07:439,4.5
-0.591,9.606,3.362,0.355,9.444,2.62,-0.863,0.122,0.543,0.06,-0.125,0.079,9,36.3,-15.9,-14.3,276.5,-73.9,-7.7,3,999.7,55.36,23.03459,72.50905,41.9,167.3228349,,0.4,12.90323,,22 / 22,43225,2018-08-24 19:43:07:539,4.5
1.039,9.678,2.828,0.46,9.387,2.801,0.579,0.291,0.026,-0.22,-0.068,-0.06,10,34.9,-16.6,-15.4,276,-73.7,-9.5,3,999.7,57.52,23.03459,72.50905,41.9,167.3228349,,0.4,12.90323,,22 / 22,43325,2018-08-24 19:43:07:639,4.5
0.852,9.424,3.06,0.43,9.347,2.935,0.305,0.129,0.084,-0.133,-0.149,-0.114,10,35.3,-15.2,-15.3,277.2,-72.5,-8.5,3,999.7,57.52,23.03459,72.50905,41.9,167.3228349,,0.4,12.90323,,22 / 22,43425,2018-08-24 19:43:07:739,4.5
0.661,9.22,2.677,0.395,9.335,2.979,0.223,-0.091,-0.389,0.023,-0.161,-0.059,11,35.6,-15.2,-16,279,-72.1,-7.5,3,999.7,57.52,23.03459,72.50905,41.9,167.3228349,,0.4,12.90323,,22 / 22,43526,2018-08-24 19:43:07:840,4.5
0.438,9.304,2.366,0.409,9.356,2.91,-0.012,-0.081,-0.446,0.204,0.117,0.032,11,34.6,-14.9,-15.3,279.3,-72.3,-7.8,3,999.7,58.35,23.03459,72.50905,42,167.3228349,,0.5,9.67742,,20 / 21,43626,2018-08-24 19:43:07:940,4.5
0.036,8.964,2.038,0.29,9.452,2.597,-0.209,-0.54,-0.5,0.545,0.61,-0.058,11,35.4,-15.1,-15.4,279.4,-73.9,-7,3,999.7,58.35,23.03459,72.50905,42,167.3228349,,0.5,9.67742,,20 / 21,43725,2018-08-24 19:43:08:039,4.5
0.283,9.666,1.961,0.198,9.51,2.385,0.066,0.156,-0.41,-0.008,0.097,-0.016,11,36.2,-15.8,-12.4,278.5,-75.8,-5.1,3,999.7,58.35,23.03459,72.50905,42,167.3228349,,0.5,9.67742,,20 / 21,43825,2018-08-24 19:43:08:139,4.5
-0.139,9.635,1.8,0.121,9.522,2.344,-0.269,-0.021,-0.402,0.013,0.329,-0.017,9,37,-15.8,-12.1,278.3,-76,-3.9,3,999.7,58.35,23.03459,72.50905,42,167.3228349,,0.5,9.67742,,20 / 21,43925,2018-08-24 19:43:08:239,4.5
-0.448,9.879,2.239,-0.025,9.539,2.275,-0.413,0.342,-0.015,0.097,0.621,0.011,9,37.9,-15.1,-10.6,280.6,-76.4,-0.1,3,999.7,60.38,23.03459,72.50905,42,167.3228349,,0.5,9.67742,,20 / 21,44025,2018-08-24 19:43:08:339,4.5
-0.536,9.524,2.267,-0.189,9.57,2.133,-0.347,-0.045,0.134,0.498,0.63,0.126,11,38.3,-15.9,-7.4,279.2,-77,4.5,3,999.7,60.38,23.03459,72.50905,42,167.3228349,,0.5,9.67742,,20 / 21,44125,2018-08-24 19:43:08:439,4.5
-0.208,9.62,2.265,-0.218,9.561,2.169,-0.014,0.042,0.117,-0.293,0.422,0.101,12,38.2,-15.4,-4.6,278,-77.2,5.7,3,999.7,60.38,23.03459,72.50905,42,167.3228349,,0.5,9.67742,,20 / 21,44225,2018-08-24 19:43:08:539,4.5
-1.707,9.864,4.068,-0.285,9.489,2.46,-1.008,0.258,1.042,-0.078,0.552,0.075,12,38,-15.8,-3.9,275.5,-76.1,5.6,3,999.7,58.32,23.03459,72.50905,42,167.3228349,,0.5,9.67742,,20 / 21,44326,2018-08-24 19:43:08:640,4.5
-0.175,9.256,2.253,-0.256,9.483,2.484,0.105,-0.208,-0.286,-0.143,0.104,0.18,13,39.1,-15.8,-2.3,273.3,-75.4,6.6,3,999.7,58.32,23.03459,72.50905,42,167.3228349,,0.5,9.67742,,20 / 21,44426,2018-08-24 19:43:08:740,4.5
0.089,9.4,1.674,-0.125,9.486,2.485,0.214,-0.074,-0.818,-0.016,0.174,0.153,13,38.5,-17,-1.7,268.8,-75.1,4.1,3,999.7,58.32,23.03459,72.50905,42,167.3228349,,0.5,9.67742,,20 / 21,44525,2018-08-24 19:43:08:839,4.5
-0.072,9.33,2.1,-0.044,9.487,2.485,-0.035,-0.192,-0.433,-0.124,0.16,0.117,13,38.3,-16.9,-1.4,266.3,-75.4,1.4,3,999.7,56.93,23.03459,72.50905,42,167.3228349,,0.5,9.67742,,22 / 22,44625,2018-08-24 19:43:08:939,4.5
0.072,9.417,2.308,0.004,9.455,2.604,0.061,-0.038,-0.305,-0.134,0.175,0.046,13,38.4,-17.5,-0.7,263.2,-74.8,0,3,999.7,56.93,23.03459,72.50905,42,167.3228349,,0.5,9.67742,,22 / 22,44725,2018-08-24 19:43:09:039,4.5
0.069,9.603,2.234,-0.02,9.427,2.702,-0.033,0.186,-0.358,-0.076,0.145,0.043,13,38.5,-16.8,-0.2,263.4,-74.1,0.2,3,999.7,56.93,23.03459,72.50905,42,167.3228349,,0.5,9.67742,,22 / 22,44826,2018-08-24 19:43:09:140,4.5
0.395,9.541,2.643,0.014,9.38,2.861,0.345,0.178,-0.189,-0.231,-0.096,0.066,13,38.6,-16.3,0,263.3,-73.5,0.4,3,999.7,59.99,23.03459,72.50905,42,167.3228349,,0.5,9.67742,,22 / 22,44925,2018-08-24 19:43:09:239,4.5
0.678,9.345,4.056,0.162,9.246,3.264,0.515,0.099,0.792,-0.278,-0.247,-0.139,14,39,-16.9,-1,262.2,-72.1,-1.5,3,999.7,59.99,23.03459,72.50905,42,167.3228349,,0.5,9.67742,,22 / 22,45025,2018-08-24 19:43:09:339,4.5
-0.443,10.078,3.417,0.068,9.289,3.144,-0.559,0.851,0.541,0.164,-0.302,-0.055,14,39.4,-16.1,-1.7,263.8,-71,-1.4,3,999.7,59.99,23.03459,72.50905,42,167.3228349,,0.5,9.67742,,22 / 22,45125,2018-08-24 19:43:09:439,4.5
0.294,9.024,3.206,0.179,9.296,3.119,0.008,-0.126,0.25,0.088,-0.341,-0.003,14,39.5,-15.7,-2.8,264.8,-71.5,-2.1,3,999.7,58.23,23.03459,72.50905,42,167.3228349,,0.5,9.67742,,22 / 22,45226,2018-08-24 19:43:09:540,4.5
0.01,9.481,3.929,0.118,9.333,3.009,-0.207,0.194,0.941,-0.103,-0.261,-0.056,13,39.8,-15.8,-3.1,264.9,-72.2,-2.3,3,999.7,58.23,23.03459,72.50905,42,167.3228349,,0.5,9.67742,,22 / 22,45326,2018-08-24 19:43:09:640,4.5
-0.129,9.16,3.778,0.13,9.345,2.969,-0.199,-0.027,0.694,0.172,-0.08,0.028,13,40.6,-14.1,-4,267,-72.2,-2.5,3,999.7,58.23,23.03459,72.50905,42,167.3228349,,0.5,9.67742,,22 / 22,45425,2018-08-24 19:43:09:739,4.5
1.104,9.292,1.53,0.206,9.435,2.667,0.745,-0.162,-1.09,0.526,0.034,-0.002,13,40.1,-14.8,-3.5,264.3,-73.5,-3.9,3,999.7,58.23,23.03459,72.50905,42,167.3228349,,0.5,9.67742,,22 / 22,45525,2018-08-24 19:43:09:839,4.5
0.06,9.484,1.791,0.144,9.53,2.307,0.054,-0.016,-0.873,-0.162,0.059,-0.019,13,39.8,-15.1,-2.7,265.4,-76.2,-3.7,3,999.7,56.75,23.03459,72.50905,42,167.3228349,,0.1,9.67742,,21 / 22,45625,2018-08-24 19:43:09:939,4.5
0.567,9.086,3.579,0.236,9.448,2.615,0.264,-0.374,1.031,-0.185,-0.291,0.065,12,39.8,-14.2,-3.4,264.7,-75.1,-4,3,999.7,56.75,23.03459,72.50905,42,167.3228349,,0.1,9.67742,,21 / 22,45726,2018-08-24 19:43:10:040,4.5
0.809,9.163,2.792,0.227,9.456,2.59,0.585,-0.31,0.161,0.215,-0.043,-0.221,12,40.7,-14.6,-3.5,263.5,-74.4,-5.5,3,999.7,56.75,23.03459,72.50905,42,167.3228349,,0.1,9.67742,,21 / 22,45825,2018-08-24 19:43:10:139,4.5
0.362,10.008,2.009,0.057,9.517,2.365,0.338,0.407,-0.326,0.11,-0.106,-0.185,13,40.3,-13.4,-3,267.6,-75.8,-2.1,3,999.7,60.01,23.03459,72.50905,42,167.3228349,,0.1,9.67742,,21 / 22,45925,2018-08-24 19:43:10:239,4.5
0.271,9.845,2.497,0.044,9.531,2.307,0.258,0.285,0.042,-0.041,-0.251,0.049,12,41.1,-12.7,-4,272,-76.4,-0.6,3,999.7,60.01,23.03459,72.50905,42,167.3228349,,0.1,9.67742,,21 / 22,46028,2018-08-24 19:43:10:342,4.5
0.881,9.505,2.392,0.26,9.545,2.236,0.621,-0.039,0.156,0.049,-0.294,0.157,12,40.7,-14.2,-4.9,267,-76.7,-5.4,3,999.7,60.01,23.03459,72.50905,42,167.3228349,,0.1,9.67742,,21 / 22,46126,2018-08-24 19:43:10:440,4.5
0.91,9.651,1.705,0.413,9.547,2.204,0.512,0.04,-0.421,0.101,-0.199,-0.026,13,40.4,-14.5,-6.6,265,-76.7,-10.1,3,999.7,57.6,23.03459,72.50905,42,167.3228349,,0.1,9.67742,,21 / 22,46225,2018-08-24 19:43:10:539,4.5
-0.141,9.824,2.117,0.343,9.57,2.116,-0.484,0.254,0.001,0.094,-0.388,-0.148,13,40.9,-14.2,-5.9,264.6,-77.2,-9.5,3,999.7,57.6,23.03459,72.50905,42,167.3228349,,0.1,9.67742,,21 / 22,46325,2018-08-24 19:43:10:639,4.5
0.34,9.936,1.607,0.25,9.61,1.936,0.097,0.764,-0.876,-0.152,-0.06,-0.061,12,40,-14.6,-7.2,267.9,-78.4,-7.8,3,999.7,57.6,23.03459,72.50905,42,167.3228349,,0.1,9.67742,,21 / 22,46425,2018-08-24 19:43:10:739,4.5
-0.048,9.199,2.502,0.198,9.562,2.169,-0.14,-0.428,0.252,-0.045,-0.054,-0.144,12,41,-13.7,-9.2,272.2,-77.4,-5.8,3,999.7,57.68,23.03459,72.50905,42,167.3228349,,0.1,9.67742,,21 / 22,46525,2018-08-24 19:43:10:839,4.5
-0.393,9.697,1.542,0.089,9.597,2.017,-0.398,0.052,-0.508,0.135,0.035,-0.012,12,40.7,-13.7,-9.4,275.2,-77.7,-3.4,3,999.7,57.68,23.03459,72.50905,42.1,167.3228349,,0.4,9.67742,,22 / 23,46625,2018-08-24 19:43:10:939,4.5
-0.005,9.508,1.757,0.071,9.587,2.062,-0.126,0.003,-0.314,-0.133,-0.065,-0.005,12,40.3,-13.1,-9.4,274.7,-78,-2.3,3,999.7,57.68,23.03459,72.50905,42.1,167.3228349,,0.4,9.67742,,22 / 23,46726,2018-08-24 19:43:11:040,4.5
0.045,9.539,2.526,-0.012,9.572,2.131,0.189,0.077,0.249,0.079,0.061,-0.229,12,40.7,-13.1,-9.7,279,-77.4,-0.6,3,999.7,59.62,23.03459,72.50905,42.1,167.3228349,,0.4,9.67742,,22 / 23,46826,2018-08-24 19:43:11:140,4.5
0.199,9.749,1.381,-0.099,9.59,2.046,0.243,0.264,-0.679,-0.099,-0.313,-0.033,12,40.4,-13.5,-9.3,281.7,-77.9,3.1,3,999.7,59.62,23.03459,72.50905,42.1,167.3228349,,0.4,9.67742,,22 / 23,46925,2018-08-24 19:43:11:239,4.5
0.098,9.627,1.736,-0.075,9.584,2.079,0.149,0.01,-0.288,0.033,-0.208,-0.049,12,39.4,-13.4,-11.3,283.4,-77.7,2.1,3,999.7,59.62,23.03459,72.50905,42.1,167.3228349,,0.4,9.67742,,22 / 23,47025,2018-08-24 19:43:11:339,4.5
0.007,9.577,1.851,-0.03,9.581,2.09,0.026,-0.007,-0.177,0.008,-0.219,0.033,12,39.8,-12.8,-12.1,283,-77.7,1.7,3,999.7,59.62,23.03459,72.50905,42.1,167.3228349,,0.4,9.67742,,22 / 23,47125,2018-08-24 19:43:11:439,4.5
-0.029,9.436,2.15,0.06,9.568,2.149,-0.127,-0.111,0.013,-0.125,-0.334,0.098,12,39.4,-13.6,-13.1,283.4,-77.6,-0.5,3,999.7,58.02,23.03459,72.50905,42.1,167.3228349,,0.4,9.67742,,22 / 23,47225,2018-08-24 19:43:11:539,4.5
-0.654,9.819,2.322,0.067,9.553,2.217,-0.773,0.305,0.103,-0.006,-0.092,0.024,11,38.5,-12.9,-14.8,282.9,-77,-2.5,3,999.7,58.02,23.03459,72.50905,42.1,167.3228349,,0.4,9.67742,,22 / 23,47325,2018-08-24 19:43:11:639,4.5
-0.247,9.45,2.684,0.088,9.534,2.295,-0.32,-0.091,0.387,0.016,-0.143,-0.031,11,38.5,-12.9,-14.8,284.7,-76.5,-2.2,3,999.7,58.02,23.03459,72.50905,42.1,167.3228349,,0.4,9.67742,,22 / 23,47425,2018-08-24 19:43:11:739,4.5
-0.22,9.73,2.332,0.107,9.537,2.283,-0.308,0.201,0.03,-0.092,-0.258,0.055,11,38.6,-13,-16.6,285.5,-76.6,-2.3,3,999.7,56.75,23.03459,72.50905,42.1,167.3228349,,0.4,9.67742,,22 / 23,47526,2018-08-24 19:43:11:840,4.5
-0.156,9.91,2.33,0.169,9.536,2.283,-0.377,0.422,0.114,-0.055,-0.097,0.051,11,37.6,-12.7,-17.2,285.5,-76.5,-4,3,999.7,56.75,23.0346,72.50905,42.1,167.3228349,,0.2,9.67742,,21 / 21,47625,2018-08-24 19:43:11:939,4.5
0.376,9.766,2.665,0.283,9.515,2.355,0.057,0.315,0.279,0.049,-0.156,0.049,10,37.1,-13.2,-18.2,284.7,-76,-6.4,3,999.7,56.75,23.0346,72.50905,42.1,167.3228349,,0.2,9.67742,,21 / 21,47725,2018-08-24 19:43:12:039,4.5
0.043,10.034,2.935,0.288,9.519,2.339,-0.108,0.676,0.203,-0.062,-0.054,-0.03,9,36.2,-13.4,-20,287.2,-76.1,-7.1,3,999.7,59.33,23.0346,72.50905,42.1,167.3228349,,0.2,9.67742,,21 / 21,47826,2018-08-24 19:43:12:140,4.5
0.23,9.8,2.433,0.261,9.529,2.303,-0.031,0.271,0.13,0.197,0.103,-0.044,9,36.1,-13.4,-20.5,287.8,-76,-7,3,999.7,59.33,23.0346,72.50905,42.1,167.3228349,,0.2,9.67742,,21 / 21,47926,2018-08-24 19:43:12:240,4.5
0.599,9.443,1.939,0.233,9.544,2.241,0.366,-0.101,-0.302,0.278,-0.036,-0.066,7,35,-13.7,-20.2,288.7,-76.4,-6,3,999.7,59.33,23.0346,72.50905,42.1,167.3228349,,0.2,9.67742,,21 / 21,48025,2018-08-24 19:43:12:339,4.5
0.323,9.137,2.196,0.198,9.57,2.134,0.125,-0.433,0.062,0.156,-0.086,-0.06,7,36.4,-13.3,-20.8,290.7,-77.3,-5.3,3,999.7,59.33,23.0346,72.50905,42.1,167.3228349,,0.2,9.67742,,21 / 21,48125,2018-08-24 19:43:12:439,4.5
0.005,9.302,2.133,0.166,9.59,2.044,-0.116,-0.247,0.027,-0.066,-0.107,-0.005,7,35.6,-14.3,-19.9,292.2,-77.9,-4.7,3,999.7,55.99,23.0346,72.50905,42.1,167.3228349,,0.2,9.67742,,21 / 21,48225,2018-08-24 19:43:12:539,4.5
0.457,9.704,2.37,0.192,9.577,2.102,0.253,0.225,0.173,-0.039,0.002,-0.046,7,34.9,-13,-20.7,291.6,-77.6,-5.2,3,999.7,55.99,23.0346,72.50905,42.1,167.3228349,,0.2,9.67742,,21 / 21,48325,2018-08-24 19:43:12:639,4.5
0.462,9.668,2.15,0.218,9.567,2.144,0.213,0.125,0.061,0.027,-0.139,0.038,5,35.6,-14.2,-21.5,290.2,-77.3,-5.5,3,999.7,55.99,23.0346,72.50905,42.1,167.3228349,,0.2,9.67742,,21 / 21,48425,2018-08-24 19:43:12:739,4.5
0.924,8.883,2.291,0.436,9.561,2.139,0.472,-0.685,0.217,-0.042,-0.269,-0.098,5,35,-13.7,-21.6,289.2,-77.2,-8.4,3,999.7,56.8,23.0346,72.50905,42.1,167.3228349,,0.2,9.67742,,21 / 21,48525,2018-08-24 19:43:12:839,4.5
0.742,9.28,2.241,0.466,9.555,2.158,0.317,-0.28,0.04,-0.074,-0.289,-0.155,7,34,-12.9,-22.4,286.2,-77.1,-12.3,3,999.7,56.8,23.0346,72.50905,42.3,167.3228349,,0.4,9.67742,,20 / 20,48625,2018-08-24 19:43:12:939,4.5
0.666,9.596,2.164,0.475,9.54,2.222,0.162,0.076,-0.098,-0.218,-0.421,-0.08,5,32.7,-12.8,-23.9,289.4,-76.8,-12.1,3,999.7,56.8,23.0346,72.50905,42.3,167.3228349,,0.4,9.67742,,20 / 20,48725,2018-08-24 19:43:13:039,4.5
0.577,9.558,2.579,0.47,9.501,2.382,0.42,-0.14,-0.189,-0.191,-0.291,-0.193,5,32.4,-12,-26.6,294.2,-75.8,-11.6,3,999.7,58.53,23.0346,72.50905,42.3,167.3228349,,0.4,9.67742,,20 / 20,48825,2018-08-24 19:43:13:139,4.5
0.685,9.936,2.959,0.407,9.446,2.602,0.185,0.495,0.688,-0.328,-0.547,-0.201,5,31.3,-11.1,-28.2,298.2,-75.1,-9.6,3,999.7,58.53,23.0346,72.50905,42.3,167.3228349,,0.4,9.67742,,20 / 20,48925,2018-08-24 19:43:13:239,4.5
0.266,9.675,2.957,0.353,9.454,2.582,-0.088,0.221,0.375,0.345,-0.14,-0.174,5,28.9,-9.7,-29.6,301.3,-74.1,-8.5,3,999.7,58.53,23.0346,72.50905,42.3,167.3228349,,0.4,9.67742,,20 / 20,49025,2018-08-24 19:43:13:339,4.5
0.079,9.433,2.164,0.348,9.539,2.248,-0.269,-0.137,-0.065,0.112,-0.595,0.005,7,28,-11,-29.8,305.1,-76.5,-8.1,3,999.7,57.24,23.0346,72.50905,42.3,167.3228349,,0.4,9.67742,,20 / 20,49125,2018-08-24 19:43:13:439,4.5
0.596,10.042,0.816,0.502,9.561,2.125,0.135,0.562,-1.315,0.072,-0.283,0.186,7,27.2,-11.5,-31.1,303.1,-77,-12,3,999.7,57.24,23.0346,72.50905,42.3,167.3228349,,0.4,9.67742,,20 / 20,49226,2018-08-24 19:43:13:540,4.5
0.663,9.192,3.752,0.694,9.45,2.527,-0.186,-0.165,1.392,-0.06,-0.468,-0.003,6,25.4,-11,-32.8,303.4,-75,-15.1,3,999.7,57.24,23.0346,72.50905,42.3,167.3228349,,0.4,9.67742,,20 / 20,49325,2018-08-24 19:43:13:639,4.5
0.577,9.421,2.248,0.695,9.477,2.422,-0.372,0.016,-0.138,0.083,-0.271,-0.015,6,23.2,-10.8,-33.6,304.9,-74.7,-15.8,3,999.7,55.04,23.0346,72.50905,42.3,167.3228349,,0.4,9.67742,,20 / 20,49425,2018-08-24 19:43:13:739,4.5
1.147,9.165,2.241,0.732,9.465,2.461,0.389,-0.271,-0.265,-0.235,-0.445,-0.138,7,22.7,-11.7,-34.1,304.5,-75,-16.8,3,999.7,55.04,23.0346,72.50905,42.3,167.3228349,,0.4,9.67742,,20 / 20,49525,2018-08-24 19:43:13:839,4.5
0.39,9.491,2.351,0.535,9.458,2.536,-0.2,0.023,-0.17,-0.06,-0.189,-0.356,7,21.3,-10.2,-35,309.2,-74.6,-14.7,3,999.7,55.04,23.0346,72.50905,42.3,167.3228349,,0.2,9.67742,,22 / 23,49625,2018-08-24 19:43:13:939,4.5
0.259,9.572,2.229,0.334,9.462,2.556,-0.124,0.12,-0.281,0.108,-0.354,-0.191,7,21.5,-9.1,-36.4,316.2,-74.6,-9,3,999.7,55.04,23.0346,72.50905,42.3,167.3228349,,0.2,9.67742,,22 / 23,49726,2018-08-24 19:43:14:040,4.5
0.093,9.357,2.816,0.259,9.445,2.626,-0.165,-0.088,0.19,-0.138,-0.373,-0.163,8,19.5,-8.5,-35.8,323,-74.7,-6.2,3,999.7,56.46,23.0346,72.50905,42.3,167.3228349,,0.2,9.67742,,22 / 23,49825,2018-08-24 19:43:14:139,4.5
0.438,9.299,2.562,0.214,9.436,2.661,0.301,-0.094,-0.106,-0.04,-0.519,-0.228,8,18.2,-8,-37.4,325.2,-74.2,-4.9,3,999.7,56.46,23.0346,72.50905,42.3,167.3228349,,0.2,9.67742,,22 / 23,49927,2018-08-24 19:43:14:241,4.5
-0.474,9.802,2.653,0.134,9.45,2.619,-0.623,0.338,0.053,-0.029,-0.516,-0.124,9,16.7,-7.9,-38,329.5,-74.4,-3.3,3,999.7,56.46,23.0346,72.50905,42.3,167.3228349,,0.2,9.67742,,22 / 23,50026,2018-08-24 19:43:14:340,4.5
0.031,9.388,2.859,0.184,9.44,2.649,-0.213,-0.062,0.162,-0.048,-0.531,-0.086,9,15.8,-7.9,-38.4,331,-74.3,-3.8,3,999.7,56.15,23.0346,72.50905,42.3,167.3228349,,0.2,9.67742,,22 / 23,50126,2018-08-24 19:43:14:440,4.5
-0.496,9.898,3.086,0.175,9.441,2.647,-0.591,0.483,0.294,-0.06,-0.32,-0.147,10,13,-7.7,-38.9,335.3,-74.3,-4.3,3,999.7,56.15,23.0346,72.50905,42.3,167.3228349,,0.2,9.67742,,22 / 23,50226,2018-08-24 19:43:14:540,4.5
-0.22,9.613,2.876,0.155,9.455,2.597,0.037,0.177,-0.222,0.164,-0.271,-0.177,10,11.9,-8,-38.9,337.3,-74.3,-3.6,3,999.7,56.15,23.0346,72.50905,42.3,167.3228349,,0.2,9.67742,,22 / 23,50325,2018-08-24 19:43:14:639,4.5
1.018,9.613,2.023,0.19,9.491,2.46,0.947,-0.23,0.083,0.28,-0.764,-0.219,10,8.2,-9,-39.6,343.2,-75.3,-4.1,3,999.7,55.23,23.0346,72.50905,42.3,167.3228349,,0.2,9.67742,,22 / 23,50425,2018-08-24 19:43:14:739,4.5
0.05,8.907,2.516,0.124,9.511,2.385,-0.198,-0.55,0.318,-0.044,-0.716,-0.201,8,6.4,-8.3,-39.8,346.6,-76.2,-3.6,3,999.7,55.23,23.0346,72.50905,42.3,167.3228349,,0.2,9.67742,,22 / 23,50525,2018-08-24 19:43:14:839,4.5
-0.206,8.933,3.031,0.022,9.503,2.42,-0.254,-0.719,0.762,-0.292,-0.423,-0.257,8,5.7,-8.3,-40.4,348.2,-76.2,-2.4,3,999.7,55.23,23.0346,72.50905,42.3,167.3228349,,0.4,9.67742,,21 / 21,50626,2018-08-24 19:43:14:940,4.5
-0.134,9.496,3.05,-0.041,9.475,2.529,-0.058,0.023,0.397,-0.276,-0.279,-0.059,8,4,-8.7,-39.4,353.1,-75.4,0.8,3,999.7,57.45,23.0346,72.50905,42.3,167.3228349,,0.4,9.67742,,21 / 21,50725,2018-08-24 19:43:15:039,4.5
0.292,9.491,2.641,0.04,9.447,2.632,0.252,0.054,0.04,-0.042,-0.247,-0.007,8,2.9,-7,-40,354.7,-74.4,-0.6,3,999.7,57.45,23.0346,72.50905,42.3,167.3228349,,0.4,9.67742,,21 / 21,50825,2018-08-24 19:43:15:139,4.5
0.395,9.62,2.552,0.086,9.421,2.723,0.153,0.264,-0.13,-0.176,-0.177,-0.05,10,1.4,-7.3,-40.7,356.5,-74.1,-1.8,3,999.7,57.45,23.0346,72.50905,42.3,167.3228349,,0.4,9.67742,,21 / 21,50926,2018-08-24 19:43:15:240,4.5
0.855,9.529,2.715,0.172,9.352,2.946,0.687,0.177,-0.257,-0.016,-0.314,-0.105,10,0.1,-6.4,-40.1,356.5,-72.6,-3.2,3,999.7,57.45,23.0346,72.50905,42.3,167.3228349,,0.4,9.67742,,21 / 21,51025,2018-08-24 19:43:15:339,4.5
0.247,9.769,2.366,0.101,9.392,2.821,0.153,0.336,-0.434,0.049,-0.201,-0.162,11,-0.8,-6.5,-40.5,359,-73.1,-2.4,3,999.7,56.33,23.0346,72.50905,42.3,167.3228349,,0.4,9.67742,,21 / 21,51126,2018-08-24 19:43:15:440,4.5
0.29,9.706,2.33,0.07,9.393,2.816,0.129,0.203,-0.213,0.119,-0.121,-0.063,11,-2,-6.1,-40.5,0,-73.2,-1.4,3,999.7,56.33,23.0346,72.50905,42.3,167.3228349,,0.4,9.67742,,21 / 21,51225,2018-08-24 19:43:15:539,4.5
0.318,9.445,2.569,0.083,9.417,2.735,0.114,0.043,-0.023,0.072,-0.106,-0.007,10,-1.1,-6.7,-40.7,0.1,-73.5,-1.3,3,999.7,56.33,23.0346,72.50905,42.3,167.3228349,,0.4,9.67742,,21 / 21,51325,2018-08-24 19:43:15:639,4.5
-0.022,9.558,2.696,0.097,9.458,2.589,0.003,0.059,-0.039,0.109,-0.059,0.043,11,-2.1,-7.4,-41,0.9,-74.5,-2,3,999.7,55.52,23.0346,72.50905,42.3,167.3228349,,0.4,9.67742,,21 / 21,51425,2018-08-24 19:43:15:739,4.5
0.113,9.594,2.179,0.115,9.495,2.45,0.002,0.094,-0.276,0.076,0.068,0.086,11,-2,-8,-40,0.5,-75,-2.4,3,999.7,55.52,23.0346,72.50905,42.3,167.3228349,,0.4,9.67742,,21 / 21,51526,2018-08-24 19:43:15:840,4.5
0.314,9.917,2.066,0.183,9.509,2.389,0.196,0.456,-0.706,-0.155,0.214,0.149,13,-1.8,-8.4,-39.3,358.9,-75.8,-4,3,999.7,55.52,23.0346,72.50905,42.3,167.3228349,,0.4,9.67742,,22 / 22,51625,2018-08-24 19:43:15:939,4.5
0.634,9.448,2.935,0.361,9.432,2.662,0.221,0.035,0.226,-0.195,-0.184,0.139,13,-1.5,-6.7,-40,356.4,-74.8,-6.2,3,999.7,55.52,23.0346,72.50905,42.3,167.3228349,,0.4,9.67742,,22 / 22,51726,2018-08-24 19:43:16:040,4.5
-0.268,9.45,2.83,0.307,9.46,2.565,-0.559,-0.051,0.277,0.4,0.432,-0.047,13,-1.4,-6.9,-40.4,354.1,-73.9,-8.1,3,999.7,57.27,23.0346,72.50905,42.3,167.3228349,,0.4,9.67742,,22 / 22,51825,2018-08-24 19:43:16:139,4.5
0.12,9.153,3.074,0.246,9.46,2.573,-0.143,-0.29,0.47,-0.223,-0.052,-0.002,13,0.3,-7.1,-40.4,354,-75,-5.5,3,999.7,57.27,23.0346,72.50905,42.3,167.3228349,,0.4,9.67742,,22 / 22,51926,2018-08-24 19:43:16:240,4.5
-0.113,9.575,2.536,0.172,9.47,2.542,-0.196,0.119,-0.133,0.031,0.202,-0.018,13,-0.1,-8,-39.6,355,-74.7,-4.5,3,999.7,57.27,23.0346,72.50905,42.3,167.3228349,,0.4,9.67742,,22 / 22,52026,2018-08-24 19:43:16:340,4.5
0.539,9.362,2.179,0.162,9.472,2.533,0.336,0.028,-0.436,-0.118,-0.026,0.099,13,0,-7.6,-40.1,356.4,-75,-3.3,3,999.7,57.44,23.0346,72.50905,42.3,167.3228349,,0.4,9.67742,,22 / 22,52126,2018-08-24 19:43:16:440,4.5
0.474,9.398,2.148,0.209,9.464,2.561,0.217,-0.124,-0.368,0.108,0.084,-0.059,12,0.2,-7.7,-39.7,356.6,-74.6,-4.6,3,999.7,57.44,23.0346,72.50905,42.3,167.3228349,,0.4,9.67742,,22 / 22,52226,2018-08-24 19:43:16:540,4.5
0.213,9.544,2.119,0.162,9.479,2.507,0.051,0.064,-0.389,-0.088,0.012,-0.089,13,0.7,-8.6,-40.3,354.2,-75.1,-3.9,3,999.7,57.44,23.0346,72.50905,42.3,167.3228349,,0.4,9.67742,,22 / 22,52325,2018-08-24 19:43:16:639,4.5
-0.115,9.527,3.031,0.088,9.462,2.575,-0.141,0.11,0.439,-0.173,-0.002,-0.043,13,0.5,-7.7,-40,357.5,-75,-2.2,3,999.7,55.74,23.0346,72.50905,42.3,167.3228349,,0.4,9.67742,,22 / 22,52425,2018-08-24 19:43:16:739,4.5
-0.022,9.472,2.72,0.054,9.449,2.625,-0.109,0.081,0.037,-0.063,0.072,0.064,13,1,-7.6,-39.4,357.2,-74.5,-1.2,3,999.7,55.74,23.0346,72.50905,42.3,167.3228349,,0.4,9.67742,,22 / 22,52525,2018-08-24 19:43:16:839,4.5
-0.354,9.931,2.315,0.047,9.462,2.576,-0.298,0.333,-0.242,0.058,0.178,0.172,13,1.4,-7.4,-39.5,357.4,-74.7,-0.9,3,999.7,55.74,23.0346,72.50905,42.3,167.3228349,,0.4,9.67742,,22 / 23,52626,2018-08-24 19:43:16:940,4.5
0.105,9.388,2.413,0.111,9.448,2.626,0.047,0.067,-0.366,0.038,0.088,0.131,14,1.7,-7.4,-40.4,354.5,-74.4,-2.2,3,999.7,55.9,23.0346,72.50905,42.3,167.3228349,,0.4,9.67742,,22 / 23,52726,2018-08-24 19:43:17:040,4.5
-0.072,9.556,3.177,0.097,9.444,2.639,-0.15,0.243,0.373,0.169,0.162,-0.011,14,2.1,-7,-39.8,354.3,-74.3,-2.4,3,999.7,55.9,23.0346,72.50905,42.3,167.3228349,,0.4,9.67742,,22 / 23,52825,2018-08-24 19:43:17:139,4.5
0.287,9.678,2.073,0.043,9.455,2.602,0.235,0.158,-0.366,0.305,0.214,-0.106,13,1.6,-6.8,-40,355.5,-74.5,-1.3,3,999.7,55.9,23.0346,72.50905,42.3,167.3228349,,0.4,9.67742,,22 / 23,52925,2018-08-24 19:43:17:239,4.5
0.177,9.163,2.883,-0.088,9.441,2.65,0.21,-0.528,0.523,-0.287,-0.11,-0.116,13,3.2,-6.8,-39.8,356.8,-75,1.4,3,999.7,55.18,23.0346,72.50905,42.3,167.3228349,,0.4,9.67742,,22 / 23,53025,2018-08-24 19:43:17:339,4.5
-0.584,8.825,3.697,-0.171,9.382,2.85,-0.382,-0.475,0.833,-0.173,0.07,0.066,13,4.4,-6.6,-40.1,357.7,-73.3,3.6,3,999.7,55.18,23.0346,72.50905,42.3,167.3228349,,0.4,9.67742,,22 / 23,53127,2018-08-24 19:43:17:441,4.5
0.215,9.376,2.773,-0.071,9.352,2.952,0.287,0.024,-0.179,-0.115,0.046,0.218,13,4.1,-5.9,-40.6,356.1,-72.6,2.1,3,999.7,55.18,23.0346,72.50905,42.3,167.3228349,,0.4,9.67742,,22 / 23,53225,2018-08-24 19:43:17:539,4.5
0.807,9.33,2.876,0.177,9.291,3.132,0.795,-0.059,-0.355,-0.12,0.156,0.291,13,4.4,-5.6,-40.1,351,-71.5,-2.4,3,999.7,55.18,23.0346,72.50905,42.3,167.3228349,,0.4,9.67742,,22 / 23,53325,2018-08-24 19:43:17:639,4.5
0.065,9.35,3.998,0.295,9.232,3.293,-0.242,0.139,0.717,-0.101,0.207,0.185,17,4.9,-4.8,-40.1,348.3,-70.5,-4.8,3,999.7,56.29,23.0346,72.50905,42.3,167.3228349,,0.4,9.67742,,22 / 23,53425,2018-08-24 19:43:17:739,4.5
0.881,9.137,3.589,0.432,9.198,3.374,0.48,-0.088,0.256,0.036,0.035,0.095,17,5.5,-4.4,-39.8,343,-69.8,-6.9,3,999.7,56.29,23.0346,72.50905,42.3,167.3228349,,0.4,9.67742,,22 / 23,53525,2018-08-24 19:43:17:839,4.5
0.821,8.797,3.132,0.524,9.234,3.261,0.251,-0.476,-0.093,-0.03,0.032,0.103,18,6.3,-5.1,-39.5,341.2,-70.3,-8.3,3,999.7,56.29,23.0346,72.50905,42.3,167.3228349,,0.1,9.67742,,23 / 24,53625,2018-08-24 19:43:17:939,4.5
0.919,8.943,3.098,0.623,9.23,3.253,0.249,-0.271,-0.115,0.003,0.212,0.024,18,6.1,-4.7,-39.8,338.8,-70.2,-10.6,3,999.7,55.89,23.0346,72.50905,42.3,167.3228349,,0.1,9.67742,,23 / 24,53726,2018-08-24 19:43:18:040,4.5
0.467,9.362,3.541,0.633,9.232,3.248,-0.127,0.099,0.207,0.018,0.371,0.065,18,6.7,-4.9,-39.5,336.8,-70.3,-11.1,3,999.7,55.89,23.0346,72.50905,42.3,167.3228349,,0.1,9.67742,,23 / 24,53826,2018-08-24 19:43:18:140,4.5
-0.247,9.781,3.646,0.614,9.268,3.145,-0.86,0.512,0.501,0.214,0.6,0.237,18,7.9,-5.6,-40.3,335.3,-70.9,-11,3,999.7,55.89,23.0346,72.50905,42.3,167.3228349,,0.1,9.67742,,23 / 24,53925,2018-08-24 19:43:18:239,4.5
0.503,8.986,4.36,0.775,9.18,3.362,-0.241,-0.194,0.948,0.172,0.314,0.219,18,9,-5.4,-39.6,332,-69.7,-12.4,3,999.7,56.13,23.0346,72.50905,42.3,167.3228349,,0.1,9.67742,,23 / 24,54026,2018-08-24 19:43:18:340,4.5
0.297,9.017,3.431,0.8,9.224,3.234,-0.527,-0.202,0.181,0.131,0.335,0.182,18,10.4,-5.4,-38.8,329.1,-70.1,-13.7,3,999.7,56.13,23.0346,72.50905,42.3,167.3228349,,0.1,9.67742,,23 / 24,54125,2018-08-24 19:43:18:439,4.5
1.132,9.199,2.878,0.919,9.253,3.116,-0.084,0.078,-0.416,-0.093,0.136,0.365,18,10.9,-7.4,-37.9,325.5,-70.7,-14.9,3,999.7,56.13,23.0346,72.50905,42.3,167.3228349,,0.1,9.67742,,23 / 24,54226,2018-08-24 19:43:18:540,4.5
1.417,9.529,2.6,1.083,9.233,3.122,0.378,0.267,-0.539,0.115,0.393,0.068,11,11.6,-7.2,-38,319.5,-70.2,-19,3,999.7,57.27,23.0346,72.50905,42.3,167.3228349,,0.1,9.67742,,23 / 24,54325,2018-08-24 19:43:18:639,4.5
0.816,8.9,3.584,1.002,9.244,3.118,-0.186,-0.344,0.466,0.144,0.264,-0.007,11,13.1,-7.6,-37.5,319.6,-70.5,-18.2,3,999.7,57.27,23.0346,72.50905,42.3,167.3228349,,0.1,9.67742,,23 / 24,54425,2018-08-24 19:43:18:739,4.5
0.623,8.854,3.029,0.899,9.293,2.999,-0.231,-0.463,-0.196,0.004,0.19,-0.026,9,14,-8,-37.3,318.2,-71,-17.4,3,999.7,57.27,23.0346,72.50905,42.3,167.3228349,,0.1,9.67742,,23 / 24,54525,2018-08-24 19:43:18:839,4.5
0.816,8.837,2.658,0.762,9.308,2.992,0.047,-0.456,-0.344,-0.063,0.125,-0.119,9,15.2,-8,-36.8,319.8,-71.7,-14.3,3,999.7,56.82,23.0346,72.50905,42.3,167.3228349,,0.1,9.67742,,22 / 22,54625,2018-08-24 19:43:18:939,4.5
0.797,9.472,3.275,0.613,9.31,3.02,0.185,0.162,0.255,0.068,0.015,-0.174,9,16.3,-7.7,-37,320.6,-71.5,-12.2,3,999.7,56.82,23.0346,72.50905,42.3,167.3228349,,0.1,9.67742,,22 / 22,54726,2018-08-24 19:43:19:040,4.5
0.579,10.147,2.674,0.574,9.356,2.882,-0.014,0.71,-0.031,0.032,-0.073,0.034,9,14.5,-7.8,-37.3,321.6,-72.2,-10.8,3,999.7,56.82,23.0346,72.50905,42.3,167.3228349,,0.1,9.67742,,22 / 22,54826,2018-08-24 19:43:19:140,4.5
0.563,9.764,2.938,0.645,9.368,2.828,-0.084,0.396,0.115,0.139,-0.216,0.024,8,14.8,-8.3,-37.6,322.8,-72.7,-12.4,3,999.7,56.82,23.0346,72.50905,42.3,167.3228349,,0.1,9.67742,,22 / 22,54925,2018-08-24 19:43:19:239,4.5
0.493,9.68,3.292,0.721,9.428,2.6,-0.261,0.206,0.805,0.416,-0.417,-0.017,8,14.2,-9.1,-37,321.4,-73.5,-14.3,3,999.7,57.81,23.0346,72.50905,42.3,167.3228349,,0.1,9.67742,,22 / 22,55026,2018-08-24 19:43:19:340,4.5
0.596,9.888,2.648,0.801,9.509,2.259,-0.085,0.437,0.262,0.105,-0.302,-0.051,8,13,-10.4,-38.4,318.6,-75.7,-19.2,3,999.7,57.81,23.0346,72.50905,42.3,167.3228349,,0.1,9.67742,,22 / 22,55126,2018-08-24 19:43:19:440,4.5
0.634,9.642,1.492,0.828,9.596,1.842,-0.194,0.045,-0.35,0.516,-0.17,-0.013,8,11.4,-12.2,-37.7,317.1,-77.6,-23.1,3,999.7,57.81,23.0346,72.50905,42.3,167.3228349,,0.1,9.67742,,22 / 22,55225,2018-08-24 19:43:19:539,4.5
1.377,9.175,0.821,0.902,9.651,1.485,0.467,-0.484,-0.64,0.289,-0.38,0.03,8,9.8,-13.6,-37.4,312.4,-79.2,-27.6,3,999.7,57.08,23.0346,72.50905,42.3,167.3228349,,0.1,9.67742,,22 / 22,55325,2018-08-24 19:43:19:639,4.5
1.422,9.11,0.733,0.882,9.683,1.279,0.549,-0.527,-0.518,0.027,-0.107,-0.136,9,8.9,-15.2,-36.2,307.9,-80.8,-34.8,3,999.7,57.08,23.0346,72.50905,42.3,167.3228349,,0.1,9.67742,,22 / 22,55425,2018-08-24 19:43:19:739,4.5
0.687,9.414,1.923,0.788,9.684,1.327,0.141,-0.378,0.407,-0.071,0.155,-0.196,9,9,-13.7,-36.8,309.7,-81,-33.7,3,999.7,57.08,23.0346,72.50905,42.3,167.3228349,,0.1,9.67742,,22 / 22,55527,2018-08-24 19:43:19:841,4.5
0.342,9.694,1.796,0.643,9.681,1.426,-0.301,0.013,0.369,-0.177,-0.173,-0.043,10,9.8,-14.2,-36.6,318,-80.8,-24.3,3,999.7,56.96,23.0346,72.50905,42.3,167.3228349,,0.1,9.67742,,20 / 23,55625,2018-08-24 19:43:19:939,4.5
0.754,9.864,1.52,0.568,9.672,1.516,0.203,0.156,0.04,-0.007,-0.066,-0.149,10,9.2,-13.6,-37.4,321.7,-80.4,-22.1,3,999.7,56.96,23.0346,72.50905,42.3,167.3228349,,0.1,9.67742,,20 / 23,55725,2018-08-24 19:43:20:039,4.5
0.694,9.982,1.02,0.426,9.673,1.555,0.269,0.347,-0.533,-0.096,-0.04,-0.201,10,8.7,-13,-37.9,328.1,-80.6,-16.5,3,999.7,56.96,23.0346,72.50905,42.3,167.3228349,,0.1,9.67742,,20 / 23,55825,2018-08-24 19:43:20:139,4.5
