ACCELEROMETER X (m/s²),ACCELEROMETER Y (m/s²),ACCELEROMETER Z (m/s²),GRAVITY X (m/s²),GRAVITY Y (m/s²),GRAVITY Z (m/s²),LINEAR ACCELERATION X (m/s²),LINEAR ACCELERATION Y (m/s²),LINEAR ACCELERATION Z (m/s²),GYROSCOPE X (rad/s),GYROSCOPE Y (rad/s),GYROSCOPE Z (rad/s),LIGHT (lux),MAGNETIC FIELD X (μT),MAGNETIC FIELD Y (μT),MAGNETIC FIELD Z (μT),ORIENTATION Z (azimuth °),ORIENTATION X (pitch °),ORIENTATION Y (roll °),PROXIMITY (i),ATMOSPHERIC PRESSURE (hPa),SOUND LEVEL (dB),LOCATION Latitude : ,LOCATION Longitude : ,LOCATION Altitude ( m),LOCATION Altitude-google ( m),LOCATION Altitude-atmospheric pressure ( m),LOCATION Speed ( Kmh),LOCATION Accuracy ( m),LOCATION ORIENTATION (°),Satellites in range,Time since start in ms ,YYYY-MO-DD HH-MI-SS_SSS,OUT
0.864,9.493,2.612,0.605,9.116,3.565,0.257,0.377,-0.876,-0.123,0.134,-0.007,56,1,-34.7,18.3,176,-68.4,-9.8,3,1000,41.35,,,,NaN,,,,,0 / 0,36,2018-08-27 12:44:16:910,0.19
1.034,9.577,2.895,0.568,9.14,3.509,0.873,0.193,-0.691,0.104,0.079,-0.182,56,0.7,-35.2,18.6,176.2,-68.5,-9.2,3,1000,41.35,,,,NaN,,,,,0 / 0,136,2018-08-27 12:44:17:010,0.19
0.383,9.869,2.957,0.538,9.21,3.325,-0.104,0.53,-0.201,0.123,-0.003,-0.296,56,2.5,-34.2,19.3,177.6,-69.6,-9.8,3,1000,41.35,,,,NaN,,,,,0 / 0,235,2018-08-27 12:44:17:109,0.19
0.39,9.369,4.856,0.409,9.222,3.31,0.173,0.14,1.34,0.077,0.021,-0.162,55,3.3,-35.1,19.3,180.9,-70.4,-7.6,3,1000,49.04,,,,NaN,,,,,0 / 0,335,2018-08-27 12:44:17:209,0.19
-0.237,8.892,4.578,0.263,9.23,3.304,-0.404,-0.378,1.379,0.223,0.093,-0.04,55,3.6,-34.9,19.4,184.4,-70.5,-5.2,3,1000,49.04,,,,NaN,,,,,0 / 0,435,2018-08-27 12:44:17:309,0.19
0.275,8.706,3.764,0.29,9.19,3.411,0.217,-0.443,-0.303,-0.154,0.188,0.127,51,3.9,-33.7,19.2,184.8,-69.7,-4.5,3,1000,49.04,,,,NaN,,,,,0 / 0,536,2018-08-27 12:44:17:410,0.19
0.658,9.146,3.374,0.37,9.148,3.514,0.131,0.104,0.173,-0.03,-0.094,0.067,51,4,-34,19.1,184.7,-69.1,-5,3,1000,49.76,,,,NaN,,,,,0 / 0,635,2018-08-27 12:44:17:509,0.19
-0.232,9.287,2.425,0.354,9.158,3.491,-0.612,0.163,-0.802,0.053,-0.025,0.065,47,2.9,-33.9,20.3,181.8,-68.8,-5.7,3,1000,49.76,,,,NaN,,,,,0 / 0,735,2018-08-27 12:44:17:609,0.19
0.151,8.962,3.589,0.304,9.189,3.411,-0.108,-0.287,0.458,0.186,0.062,-0.048,47,1.9,-34.5,21.5,180.3,-69.2,-5.3,3,1000,49.76,,,,NaN,,,,,0 / 0,835,2018-08-27 12:44:17:709,0.19
0.139,9.28,3.283,0.219,9.262,3.214,-0.03,0.003,-0.02,0.181,-0.109,-0.076,48,1.9,-33.6,20.9,181,-70.6,-4,3,1000,64.17,,,,NaN,,,,,0 / 0,936,2018-08-27 12:44:17:810,0.19
-0.069,9,3.594,0.226,9.315,3.057,-0.336,-0.138,0.13,0.142,0.088,0.049,48,2.8,-33.1,19.9,183.1,-71.5,-3.9,3,1000,64.17,,,,NaN,,,,,0 / 0,1035,2018-08-27 12:44:17:909,0.19
1.25,8.418,3.409,0.316,9.364,2.895,0.093,-0.237,-0.191,-0.209,0.162,0.368,45,2,-32.5,23,179.8,-72.7,-5.2,3,1000,64.17,,,,NaN,,,,,0 / 0,1135,2018-08-27 12:44:18:009,0.19
0.438,8.684,4.034,0.434,9.284,3.128,-0.285,-0.624,1.088,0.005,-0.544,0.064,44,1.9,-33.1,21.1,178.5,-71.7,-7.5,3,1000,64.17,,,,NaN,,,,,0 / 0,1235,2018-08-27 12:44:18:109,0.19
-0.697,10.168,4.398,0.415,9.094,3.647,-1.112,1.075,0.751,-1.566,0.722,0.181,44,1.3,-33.3,20.9,178.4,-69.5,-7.8,3,1000,56.8,,,,NaN,,,,,0 / 0,1336,2018-08-27 12:44:18:210,0.19
-0.024,8.073,5.612,0.447,8.694,4.516,-0.468,-0.804,1.357,0.159,0.465,0.345,43,-0.4,-35.7,18.1,178.4,-64.6,-5.8,3,1000,56.8,,,,NaN,,,,,0 / 0,1436,2018-08-27 12:44:18:310,0.19
-0.716,9.23,4.908,0.293,8.845,4.226,-0.918,0.294,0.256,0.207,0.865,-0.03,43,-2.5,-35.5,17.9,173.4,-64.1,-5.3,3,1000,56.8,,,,NaN,,,,,0 / 0,1536,2018-08-27 12:44:18:410,0.19
0.093,9.536,4.477,0.165,8.874,4.171,-0.273,0.847,-0.111,-0.221,1.145,0.754,55,-4,-34.9,17.7,171.5,-65,-2.1,3,1000,52.04,,,,NaN,,,,,0 / 0,1635,2018-08-27 12:44:18:509,0.19
1.106,8.243,4.305,0.359,8.78,4.353,0.596,-0.35,0.121,0.05,1.379,0.972,55,-8.4,-35.5,17.4,163,-63.7,-4.2,3,1000,52.04,,,,NaN,,,,,0 / 0,1735,2018-08-27 12:44:18:609,0.19
1.506,7.485,4.681,0.625,8.721,4.442,0.905,-1.109,0.339,-0.092,2.011,1.003,44,-14.9,-33.2,16.4,151,-63.5,-6.9,3,1000,52.04,,,,NaN,,,,,0 / 0,1835,2018-08-27 12:44:18:709,0.19
-1.171,7.961,5.05,0.379,8.61,4.68,-1.569,-0.62,0.394,-0.25,2.247,1.264,44,-20.3,-32.6,11.3,138.6,-61.8,-5,3,1000,56.09,,,,NaN,,,,,0 / 0,1936,2018-08-27 12:44:18:810,0.19
-0.931,8.126,6.417,0.024,8.361,5.124,-0.955,-0.235,1.293,-0.394,1.881,1.025,38,-26,-30.5,4.7,128.5,-59.7,-2.1,3,1000,56.09,,,,NaN,,,,,0 / 0,2035,2018-08-27 12:44:18:909,0.19
-0.903,7.997,6.759,-0.324,8.148,5.448,-0.579,-0.151,1.311,0.118,1.801,0.879,198,-28.8,-28,-0.4,120,-56.2,2.7,3,1000,56.09,,,,NaN,,,,,0 / 0,2135,2018-08-27 12:44:19:009,0.19
-0.357,8.179,5.44,-0.439,8.226,5.32,0.083,-0.047,0.119,0.083,1.267,0.967,198,-30.2,-25,-5.6,111.1,-56.7,4.9,3,1000,50.45,,,,NaN,,,,,0 / 0,2235,2018-08-27 12:44:19:109,0.19
-0.464,8.603,5.16,-0.372,8.372,5.093,0.03,0.324,-0.063,0.148,1.008,0.826,177,-30.7,-23.4,-10.1,104,-57.6,4.6,3,1000,50.45,,,,NaN,,,,,0 / 0,2336,2018-08-27 12:44:19:210,0.19
-0.086,8.521,4.224,-0.154,8.481,4.921,0.065,-0.024,-0.753,0.276,0.89,0.638,177,-31.2,-20.5,-12.8,90.8,-59.5,2.2,3,1000,50.45,,,,NaN,,,,,0 / 0,2435,2018-08-27 12:44:19:309,0.19
0.63,9.038,3.795,-0.042,8.594,4.724,0.852,0.471,-0.771,0.157,0.669,0.336,159,-32,-19.4,-15.1,88.2,-60.7,1.1,3,1000,50.45,,,,NaN,,,,,0 / 0,2535,2018-08-27 12:44:19:409,0.19
1.324,8.504,4.743,-0.034,8.734,4.459,0.966,-0.553,0.217,0.435,0.56,0.267,159,-31.9,-18.4,-16.5,81.6,-61.9,0.8,3,1000,54.43,,,,NaN,,,,,0 / 0,2636,2018-08-27 12:44:19:510,0.19
0.441,8.921,6.002,0.082,8.858,4.207,0.359,0.063,1.796,0.009,1.096,0.343,147,-31.2,-18.2,-18.9,72,-64.6,-1,3,1000,54.43,,,,NaN,,,,,0 / 0,2735,2018-08-27 12:44:19:609,0.19
0.692,8.399,3.56,0.174,8.861,4.198,0.446,-0.33,-0.583,-0.1,0.587,0.35,147,-30.5,-16.9,-21.7,64.9,-64.8,-2.1,3,1000,54.43,,,,NaN,,,,,0 / 0,2835,2018-08-27 12:44:19:709,0.19
-0.256,9.498,4.142,0.161,8.858,4.205,-0.384,0.379,-0.09,-0.015,0.818,0.457,107,-29.6,-16,-23.7,63.1,-64.4,-2.6,3,1000,52.04,,,,NaN,,,,,0 / 0,2935,2018-08-27 12:44:19:809,0.19
0.764,8.442,5.105,0.327,8.802,4.311,0.447,-0.37,0.829,-0.039,0.708,0.471,189,-29.9,-14.5,-25.4,57.9,-63.9,-4,3,1000,52.04,,,,NaN,,,,,0 / 0,3036,2018-08-27 12:44:19:910,0.19
0.797,9.199,3.596,0.342,8.837,4.237,0.472,0.268,-0.62,0.159,0.771,0.244,189,-27.8,-12.9,-25.7,52.6,-64.2,-4.7,3,1000,52.04,,,,NaN,,,,,0 / 0,3135,2018-08-27 12:44:20:009,0.19
0.34,9.649,4.075,0.17,8.911,4.092,0.144,0.738,-0.026,0.174,0.935,0.2,207,-26.9,-13.4,-27.9,51.6,-65,-3.3,3,1000,59.81,,,,NaN,,,,,0 / 0,3235,2018-08-27 12:44:20:109,0.19
-0.096,9.342,3.895,-0.058,8.988,3.922,-0.119,0.333,0.54,0.309,0.782,0.143,207,-24.5,-13.3,-30.6,47.8,-65.9,-0.7,3,1000,59.81,,,,NaN,,,,,0 / 0,3335,2018-08-27 12:44:20:209,0.19
-0.007,8.236,4.705,-0.095,9.039,3.803,0.095,-0.793,1.182,0.035,0.446,0.223,222,-22,-13.1,-32.6,42.7,-67.1,1.6,3,1000,59.81,,,,NaN,,,,,0 / 0,3435,2018-08-27 12:44:20:309,0.19
0.16,8.603,4.295,-0.073,8.991,3.916,0.068,-0.47,0.547,0.042,0.038,0.061,222,-19.7,-13.9,-34.5,41.3,-66.7,1.3,3,1000,53.26,,,,NaN,,,,,0 / 0,3535,2018-08-27 12:44:20:409,0.19
0.35,9.292,4.006,0.003,9.043,3.795,0.282,0.391,0.108,-0.082,-0.318,0.191,241,-20.2,-13.5,-35.1,37.4,-67.1,1,3,1000,53.26,,,,NaN,,,,,0 / 0,3636,2018-08-27 12:44:20:510,0.19
0.127,9.302,4.121,0.215,8.989,3.914,-0.254,0.174,1.473,-0.427,-0.549,-0.184,241,-21.8,-12.7,-35.6,34.7,-67,-2.6,3,1000,53.26,,,,NaN,,,,,0 / 0,3736,2018-08-27 12:44:20:610,0.19
0.8,9.704,4.7,0.342,9.057,3.745,0.286,0.858,0.615,-0.017,-1.562,-0.289,231,-24.8,-13.5,-31.6,40.2,-67.4,-4.8,3,1000,56.03,,,,NaN,,,,,0 / 0,3836,2018-08-27 12:44:20:710,0.19
1.235,9.479,3.991,0.653,9.125,3.534,0.899,-0.012,0.297,0.776,-1.339,-0.804,140,-30,-15.1,-27.1,44.9,-67.4,-9.4,3,1000,56.03,,,,NaN,,,,,0 / 0,3936,2018-08-27 12:44:20:810,0.19
0.747,10.233,3.357,0.806,9.223,3.233,0.286,0.201,0.22,-0.357,-2.954,-0.877,140,-32.8,-18.3,-22.2,50.9,-70.2,-11.9,3,1000,56.03,,,,NaN,,,,,0 / 0,4036,2018-08-27 12:44:20:910,0.19
1.863,7.59,4.444,1.173,9.163,3.291,0.738,-1.937,1.826,-0.039,-2.561,-0.742,42,-37.1,-20.2,-10.4,68,-69.3,-18.6,3,1000,56.03,,,,NaN,,,,,0 / 0,4135,2018-08-27 12:44:21:009,0.19
2.433,8.205,4.14,1.436,9.091,3.385,1.001,-0.853,0.647,-0.143,-2.266,-0.772,42,-36.2,-23.2,-1.8,77,-68.5,-21.4,3,1000,57.54,,,,NaN,,,,,0 / 0,4235,2018-08-27 12:44:21:109,0.19
1.887,8.586,4.271,1.525,9.072,3.397,0.362,-0.484,0.92,-0.107,-1.993,-0.772,49,-34,-26.2,5.3,90.6,-67.6,-23.6,3,1000,57.54,,,,NaN,,,,,0 / 0,4335,2018-08-27 12:44:21:209,0.19
1.027,8.947,4.02,1.412,9.102,3.366,-0.397,-0.25,0.613,-0.075,-1.416,-0.741,49,-30,-28.2,11.1,104.5,-67.9,-23.4,3,1000,57.54,,,,NaN,,,,,0 / 0,4436,2018-08-27 12:44:21:310,0.19
1.283,8.773,3.924,1.215,9.111,3.417,0.068,-0.339,0.507,-0.199,-1.473,-0.775,51,-25,-29.3,13.3,116,-68.4,-20.8,3,1000,52.83,,,,NaN,,,,,0 / 0,4535,2018-08-27 12:44:21:409,0.19
-0.136,9.489,3.357,0.978,9.185,3.294,-1.114,0.304,0.063,-0.064,-1.198,-0.476,51,-20.4,-31.2,16.5,130.7,-69.4,-16.9,3,1000,52.83,,,,NaN,,,,,0 / 0,4635,2018-08-27 12:44:21:509,0.19
-0.244,8.651,3.637,0.876,9.272,3.071,-1.053,0.166,-0.404,0.015,-0.85,-0.083,65,-17.3,-31.3,19.1,137,-70.8,-15.8,3,1000,52.83,,,,NaN,,,,,0 / 0,4735,2018-08-27 12:44:21:609,0.19
-0.208,10.066,1.86,0.791,9.347,2.859,-1.004,0.659,-0.894,0.117,-1.044,-0.369,62,-15,-31,20.9,140.2,-71.9,-16.1,3,1000,56.14,,,,NaN,,,,,0 / 0,4836,2018-08-27 12:44:21:710,0.19
-1.391,9.96,3.843,0.6,9.293,3.074,-1.955,0.636,0.654,-0.361,-0.692,-0.37,62,-11.9,-32.1,21.2,147,-71.9,-13.5,3,1000,56.14,,,,NaN,,,,,0 / 0,4935,2018-08-27 12:44:21:809,0.19
-0.218,9.235,1.86,0.352,9.283,3.142,-0.52,-0.01,-1.296,0.093,-0.441,-0.331,57,-8.7,-33.2,20.5,157.3,-70.9,-8.7,3,1000,56.14,,,,NaN,,,,,0 / 0,5035,2018-08-27 12:44:21:909,0.19
0.393,9.005,3.594,0.268,9.279,3.162,0.125,-0.274,0.432,-0.073,-0.52,-0.25,57,-7.6,-32.5,21.1,163.3,-71.4,-5,3,1000,56.14,,,,NaN,,,,,0 / 0,5136,2018-08-27 12:44:22:010,0.19
-0.192,9.065,2.828,0.223,9.273,3.184,-0.491,-0.1,-0.217,0.057,-0.562,-0.183,57,-5,-33.1,19.2,167.3,-71.1,-4.1,3,1000,56.14,,,,NaN,,,,,0 / 0,5235,2018-08-27 12:44:22:109,0.19
-0.232,10.032,3.23,0.141,9.333,3.009,-0.399,0.697,0.164,0.077,-0.439,-0.118,57,-3.4,-32.5,20.2,172.2,-71.9,-2.9,3,1000,56.14,,,,NaN,,,,,0 / 0,5335,2018-08-27 12:44:22:209,0.19
0.263,9.711,3.086,0.23,9.38,2.853,-0.094,0.501,-0.068,0.127,-0.645,0.033,49,-2.4,-32.4,22,173.4,-72.9,-3.9,3,1000,56.14,,,,NaN,,,,,0 / 0,5436,2018-08-27 12:44:22:310,0.19
-0.393,9.651,4.903,0.333,9.417,2.718,-0.596,0.043,2.267,0.124,-0.318,0.061,49,-0.4,-32.3,21.7,173.4,-73.8,-6.4,3,1000,56.21,,,,NaN,,,,,0 / 0,5535,2018-08-27 12:44:22:409,0.19
0.728,8.612,3.304,0.354,9.421,2.699,0.225,-0.876,0.557,0.2,-0.521,-0.261,45,1,-32.6,21.7,174.5,-73.9,-7.7,3,1000,56.21,,,,NaN,,,,,0 / 0,5635,2018-08-27 12:44:22:509,0.19
-0.848,9.706,3.115,0.126,9.479,2.51,-0.948,0.239,0.597,0.039,0.057,-0.026,43,1.9,-31.1,23.6,180.9,-75,-3.8,3,1000,56.21,,,,NaN,,,,,0 / 0,5737,2018-08-27 12:44:22:611,0.19
-0.45,8.77,2.361,0.112,9.466,2.558,-0.531,-0.612,-0.135,0.021,-0.021,0.002,43,3.2,-31.9,22.4,183.8,-74.9,-2.7,3,1000,57.88,,,,NaN,,,,,0 / 0,5835,2018-08-27 12:44:22:709,0.19
-0.239,9.448,2.107,-0.13,9.468,2.552,-0.11,-0.02,-0.445,0.034,0.637,0.023,43,2.4,-32.1,21.7,185.9,-74.8,0.3,3,1000,57.88,,,,NaN,,,,,0 / 0,5935,2018-08-27 12:44:22:809,0.19
0.366,10.025,3.79,-0.161,9.463,2.569,0.85,-0.128,-0.395,-0.518,0.93,0.26,43,0.5,-31.8,24.6,184.6,-75.1,3.6,3,1000,57.88,,,,NaN,,,,,0 / 0,6036,2018-08-27 12:44:22:910,0.19
-0.618,10.154,1.312,-0.192,9.458,2.584,0.117,0.61,-1.198,0.297,1.693,0.091,46,-2.6,-32,24.6,177,-74.3,2.9,3,1000,59.15,,,,NaN,,,,,0 / 0,6135,2018-08-27 12:44:23:009,0.19
0.455,9.242,0.261,-0.296,9.512,2.369,0.646,-0.332,-2.235,-0.299,1.686,0.209,46,-7.4,-30.7,24.9,174.6,-75.7,7.1,3,1000,59.15,,,,NaN,,,,,0 / 0,6235,2018-08-27 12:44:23:109,0.19
-0.67,9.151,2.069,-0.492,9.501,2.38,-0.178,-0.35,-0.312,-0.265,1.772,0.44,42,-12.2,-31.1,22.3,167.1,-75.8,11.3,3,1000,59.15,,,,NaN,,,,,0 / 0,6335,2018-08-27 12:44:23:209,0.19
-1.312,9.838,3.733,-0.533,9.469,2.495,-0.779,0.369,1.237,-0.238,1.754,0.584,42,-18.7,-31.1,19.4,157.7,-75.2,12.1,3,1000,55.92,,,,NaN,,,,,0 / 0,6435,2018-08-27 12:44:23:309,0.19
-1.137,9.769,3.522,-0.525,9.417,2.684,-0.591,0.277,0.847,-0.034,1.383,0.344,35,-21.8,-30.5,16.1,148.2,-74.3,10.7,3,1000,55.92,,,,NaN,,,,,0 / 0,6535,2018-08-27 12:44:23:409,0.19
-0.79,9.57,2.445,-0.486,9.446,2.591,-0.304,0.124,-0.146,-0.005,1.059,0.429,32,-25.2,-29.9,12.4,138.8,-74.2,11.2,3,1000,55.92,,,,NaN,,,,,0 / 0,6635,2018-08-27 12:44:23:509,0.19
-0.994,9.113,2.646,-0.363,9.466,2.538,-0.789,-0.205,0.388,0.015,0.888,0.481,32,-26.3,-28,10.1,131.2,-74.8,8.9,3,1000,47.91,,,,NaN,,,,,0 / 0,6735,2018-08-27 12:44:23:609,0.19
-1.616,9.544,2.586,-0.398,9.478,2.487,-1.263,0.106,0.049,0.046,1.098,0.265,33,-29,-27,7.1,122.5,-75,8.1,3,1000,47.91,,,,NaN,,,,,0 / 0,6836,2018-08-27 12:44:23:710,0.19
-1.839,9.414,2.411,-0.582,9.487,2.414,-1.257,-0.073,-0.003,0.085,1.338,0.312,33,-30.2,-26.3,4.1,120,-75.2,12,3,1000,47.91,,,,NaN,,,,,0 / 0,6935,2018-08-27 12:44:23:809,0.19
-1.255,10.221,0.979,-0.833,9.515,2.222,-0.422,0.706,-1.242,-0.129,1.56,0.236,36,-30,-25.5,-0.9,116.9,-75.9,18.4,3,1000,47.91,,,,NaN,,,,,0 / 0,7035,2018-08-27 12:44:23:909,0.19
-0.407,8.667,3.17,-0.897,9.49,2.303,0.49,-0.823,0.867,0.02,1.659,0.241,36,-31.1,-25.1,-4.9,111.9,-75.4,20.6,3,1000,47.91,,,,NaN,,,,,0 / 0,7135,2018-08-27 12:44:24:009,0.19
1.125,9.175,2.722,-0.677,9.517,2.266,1.783,-0.433,0.696,-0.515,1.503,0.634,42,-30.8,-23.6,-10.7,103.7,-76,22,3,1000,47.91,,,,NaN,,,,,0 / 0,7236,2018-08-27 12:44:24:110,0.19
0.601,9.702,4.592,-0.309,9.421,2.705,0.91,0.281,1.887,-0.143,1.003,0.684,42,-30.2,-21.3,-15.9,84.2,-74.7,10.7,3,1000,47.91,,,,NaN,,,,,0 / 0,7335,2018-08-27 12:44:24:209,0.19
0.165,9.426,2.82,-0.026,9.386,2.842,0.263,-0.003,0.045,0.245,0.994,0.137,76,-30.1,-19.5,-18.1,69.3,-73,0.5,3,1000,44.1,,,,NaN,,,,,0 / 0,7435,2018-08-27 12:44:24:309,0.19
0.177,9.292,3.352,0.031,9.375,2.876,0.159,-0.169,0.471,-0.102,0.983,0.317,93,-28.9,-18.4,-21.4,63.6,-73.4,0.5,3,1000,44.1,,,,NaN,,,,,0 / 0,7536,2018-08-27 12:44:24:410,0.19
1.092,9.189,2.947,0.083,9.376,2.872,1.112,-0.319,-0.051,-0.005,0.976,0.407,93,-26.8,-17.3,-25.2,53.1,-73,-0.8,3,1000,44.1,,,,NaN,,,,,0 / 0,7635,2018-08-27 12:44:24:509,0.19
0.864,9.213,2.459,0.068,9.395,2.81,0.782,-0.225,-0.298,0.024,1.028,0.175,74,-24.9,-16.9,-27,48.5,-73.2,-1.4,3,1000,65.28,,,,NaN,,,,,0 / 0,7735,2018-08-27 12:44:24:609,0.19
-0.101,9.747,2.248,-0.063,9.415,2.743,-0.038,0.332,-0.495,-0.125,1.217,0.138,74,-22.1,-16.9,-29.6,44,-73.7,0.4,3,1000,65.28,,,,NaN,,,,,0 / 0,7835,2018-08-27 12:44:24:709,0.19
-0.165,8.876,2.974,-0.13,9.365,2.908,-0.164,-0.453,0.152,-0.193,1.073,0.187,45,-18.1,-16.1,-32,38.7,-73.2,2,3,1000,65.28,,,,NaN,,,,,0 / 0,7936,2018-08-27 12:44:24:810,0.19
-0.168,9.455,1.927,-0.157,9.317,3.056,0.006,0.145,-1.191,-0.319,0.647,0.339,45,-14.7,-15.4,-34.6,31.8,-72.4,3.7,3,1000,65.28,,,,NaN,,,,,0 / 0,8035,2018-08-27 12:44:24:909,0.19
-0.862,9.232,4.348,-0.173,9.2,3.392,-0.689,0.033,0.956,-0.259,0.551,0.236,42,-13,-13.6,-34.9,28.4,-69.7,2.9,3,1000,53.58,,,,NaN,,,,,0 / 0,8136,2018-08-27 12:44:25:010,0.19
-0.505,9.527,2.806,-0.182,9.179,3.446,-0.324,0.347,-0.64,-0.114,0.407,0.36,42,-11.5,-12.1,-36.8,25.6,-69.5,3.5,3,1000,53.58,,,,NaN,,,,,0 / 0,8235,2018-08-27 12:44:25:109,0.19
-0.019,9.304,3.412,-0.057,9.162,3.495,0.041,0.171,-0.318,-0.097,0.321,0.204,38,-10.2,-12.4,-37.3,19.7,-69.2,1.2,3,1000,53.58,,,,NaN,,,,,0 / 0,8335,2018-08-27 12:44:25:209,0.19
-0.749,9.726,3.199,-0.049,9.177,3.457,-0.7,0.549,-0.259,0.103,0.147,0.052,33,-10.9,-11.8,-38.5,19.5,-69.1,0.5,3,1000,55.07,,,,NaN,,,,,0 / 0,8435,2018-08-27 12:44:25:309,0.19
-0.206,10.214,2.397,-0.027,9.246,3.268,-0.239,0.846,-1.025,-0.074,0.011,0.198,33,-9.5,-12,-38.3,16.1,-69.8,0.7,3,1000,55.07,,,,NaN,,,,,0 / 0,8535,2018-08-27 12:44:25:409,0.19
0.074,8.909,4.427,-0.011,9.268,3.206,0.014,-0.402,1.365,0.565,0.165,-0.006,30,-9.9,-11.9,-38.2,17.3,-70.6,-0.1,3,1000,55.07,,,,NaN,,,,,0 / 0,8635,2018-08-27 12:44:25:509,0.19
-0.022,10.657,3.038,-0.124,9.366,2.904,0.141,1.315,0.11,0.198,0.216,-0.034,30,-10.4,-13.5,-37.6,20.3,-72.2,1.2,3,1000,56.74,,,,NaN,,,,,0 / 0,8736,2018-08-27 12:44:25:610,0.19
-0.225,9.184,3.139,-0.019,9.397,2.803,-0.206,-0.213,0.336,0.2,0.193,0.141,24,-9.2,-14.7,-39.1,18,-73.2,1,3,1000,56.74,,,,NaN,,,,,0 / 0,8835,2018-08-27 12:44:25:709,0.19
0.4,8.615,2.373,0.12,9.459,2.585,0.28,-0.844,-0.212,0.355,0.404,0.195,24,-8.8,-15.1,-38.1,13.1,-74.4,-2,3,1000,56.74,,,,NaN,,,,,0 / 0,8935,2018-08-27 12:44:25:809,0.19
-0.553,9.572,2.368,0.151,9.546,2.241,-0.704,0.026,0.127,-0.056,0.733,0.445,23,-7.2,-17.2,-38.8,8.5,-76.7,-2.7,3,1000,51.45,,,,NaN,,,,,0 / 0,9036,2018-08-27 12:44:25:910,0.19
-0.002,9.989,2.397,0.193,9.574,2.113,-0.183,0.398,0.236,0.417,1.627,0.201,23,-5.1,-17.9,-37.7,1.9,-77.1,-5.8,3,1000,51.45,,,,NaN,,,,,0 / 0,9135,2018-08-27 12:44:26:009,0.19
0.936,9.766,1.999,0.139,9.646,1.76,0.878,0.156,0.141,0.337,1.495,0.131,21,0.1,-19,-38,357,-78.9,-4.2,3,1000,51.45,,,,NaN,,,,,0 / 0,9236,2018-08-27 12:44:26:110,0.19
0.929,9.163,1.125,-0.044,9.714,1.343,0.973,-0.551,-0.217,0.598,2.102,-0.115,19,5.6,-20.7,-36.7,349.3,-81.5,-0.4,3,1000,52.7,,,,NaN,,,,,0 / 0,9335,2018-08-27 12:44:26:209,0.19
-0.747,9.407,1.097,-0.487,9.73,1.125,-0.301,-0.361,-0.05,-0.098,1.97,-0.172,19,14,-21.7,-33.8,357.3,-83.1,18.4,3,1000,52.7,,,,NaN,,,,,0 / 0,9435,2018-08-27 12:44:26:309,0.19
-0.982,9.484,0.644,-0.735,9.721,1.061,-0.32,-0.182,-0.288,-0.254,1.857,0.03,19,21,-21.7,-31.3,358.8,-82.6,33,3,1000,52.7,,,,NaN,,,,,0 / 0,9536,2018-08-27 12:44:26:410,0.19
-2.121,10.123,1.973,-0.928,9.67,1.345,-1.258,0.408,0.628,-0.626,1.647,0.242,19,27.1,-21.4,-27.5,352.2,-81.4,35.8,3,1000,52.7,,,,NaN,,,,,0 / 0,9635,2018-08-27 12:44:26:509,0.19
-1.446,9.733,1.918,-1.037,9.599,1.721,-0.565,0.017,0.59,-0.218,1.316,0.079,26,31.7,-19.9,-23.2,333.5,-78.5,30.8,3,1000,59.87,,,,NaN,,,,,0 / 0,9735,2018-08-27 12:44:26:609,0.19
-1.523,10.221,1.626,-1.138,9.598,1.657,-0.378,0.57,0.041,-0.074,1.338,0.379,26,34.9,-20.9,-18.5,331.2,-77.9,33.5,3,1000,59.87,,,,NaN,,,,,0 / 0,9835,2018-08-27 12:44:26:709,0.19
-0.979,9.565,1.64,-0.925,9.622,1.652,0.01,-0.071,-0.081,-0.151,1.11,0.397,35,35.9,-21,-14,317,-78.8,30.5,3,1000,59.87,,,,NaN,,,,,0 / 0,9935,2018-08-27 12:44:26:809,0.19
-1.226,9.297,1.726,-0.702,9.646,1.621,-0.488,-0.289,0.1,-0.044,1.048,0.368,35,34.6,-23.4,-10.2,309.2,-79.3,26,3,1000,49.02,,,,NaN,,,,,0 / 0,10036,2018-08-27 12:44:26:910,0.19
-1.652,9.747,0.824,-0.72,9.667,1.482,-0.904,-0.026,-0.572,-0.078,1.202,0.25,38,33.8,-23.6,-2.1,293.7,-80.2,25,3,1000,49.02,,,,NaN,,,,,0 / 0,10135,2018-08-27 12:44:27:009,0.19
-1.075,9.596,1.408,-0.828,9.664,1.445,-0.235,-0.078,-0.073,-0.065,1.255,0.028,37,33.5,-24.1,-0.5,291.9,-80.3,28.6,3,1000,49.02,,,,NaN,,,,,0 / 0,10235,2018-08-27 12:44:27:109,0.19
-0.302,9.998,1.82,-0.958,9.66,1.394,0.623,0.308,0.428,0.025,1.121,0.069,37,31.9,-23.7,3.5,291,-80.1,33.7,3,1000,53.2,,,,NaN,,,,,0 / 0,10335,2018-08-27 12:44:27:209,0.19
0.833,10.705,0.946,-0.896,9.704,1.093,1.868,1.058,-0.487,0.262,1.056,0.313,36,29,-25.1,7.4,288.5,-81.2,39.3,3,1000,53.2,,,,NaN,,,,,0 / 0,10435,2018-08-27 12:44:27:309,0.19
-0.984,9.809,2.593,-0.664,9.716,1.152,-0.147,0.005,1.24,-0.087,1.233,0.367,36,26.9,-26,12.5,274.2,-82.2,33.4,3,1000,53.2,,,,NaN,,,,,0 / 0,10535,2018-08-27 12:44:27:409,0.19
0.781,8.928,0.745,-0.388,9.711,1.311,1.106,-0.73,-0.581,-0.03,1.162,0.171,31,25.7,-26.8,11.5,258.3,-82.1,20.1,3,1000,54.25,,,,NaN,,,,,0 / 0,10636,2018-08-27 12:44:27:510,0.19
0.292,9.934,1.532,-0.326,9.713,1.314,0.494,0.228,0.144,-0.281,1.143,0.265,31,23.8,-26.8,14.5,250.2,-82.2,16,3,1000,54.25,,,,NaN,,,,,0 / 0,10736,2018-08-27 12:44:27:610,0.19
0.235,10.444,2.363,-0.241,9.695,1.453,0.456,0.746,0.93,0.109,1.228,0.176,30,20.5,-27.3,19.6,228.6,-81.3,9.5,3,1000,54.25,,,,NaN,,,,,0 / 0,10835,2018-08-27 12:44:27:709,0.19
0.68,9.649,0.883,-0.16,9.7,1.436,0.876,-0.156,-0.44,0.228,0.998,0.032,30,19,-27.3,21.2,223.8,-81.4,7.3,3,1000,54.25,,,,NaN,,,,,0 / 0,10935,2018-08-27 12:44:27:809,0.19
0.347,9.453,0.876,-0.212,9.729,1.217,0.758,-0.376,-0.611,0.163,1.059,-0.207,30,16.7,-27.7,21.7,221.3,-82.6,8.4,3,1000,57.71,,,,NaN,,,,,0 / 0,11035,2018-08-27 12:44:27:909,0.19
-0.261,9.754,-0.486,-0.411,9.751,0.963,0.476,0.035,-1.638,-0.227,0.839,-0.105,29,13.4,-26.6,25.6,227.1,-83.6,19.4,3,1000,57.71,,,,NaN,,,,,0 / 0,11135,2018-08-27 12:44:28:009,0.19
-0.122,9.831,1.609,-0.393,9.737,1.096,0.247,0.149,0.492,-0.316,0.72,0.314,29,12.3,-27.1,26.2,223.2,-83.3,22.5,3,1000,57.71,,,,NaN,,,,,0 / 0,11235,2018-08-27 12:44:28:109,0.19
-1.37,9.785,2.866,-0.334,9.696,1.427,-1.04,0.096,1.264,-0.23,0.909,0.182,30,9.4,-27.8,26.2,213.2,-82.1,14.1,3,1000,57.5,,,,NaN,,,,,0 / 0,11336,2018-08-27 12:44:28:210,0.19
-0.148,9.251,2.394,-0.393,9.65,1.704,0.245,-0.398,0.691,0.005,0.547,0.219,30,5.9,-28.7,27.5,202.2,-80,13.4,3,1000,57.5,,,,NaN,,,,,0 / 0,11435,2018-08-27 12:44:28:309,0.19
-0.687,9.548,3.326,-0.461,9.619,1.852,-0.217,-0.054,1.452,-0.113,0.489,0.092,30,4,-28.8,27.8,200.3,-79.2,13.7,3,1000,57.5,,,,NaN,,,,,0 / 0,11535,2018-08-27 12:44:28:409,0.19
-0.754,9.465,3.347,-0.464,9.585,2.02,-0.315,-0.135,1.38,0.201,0.075,0.069,30,2.6,-29.2,28,196.1,-78,12.9,3,1000,59.01,,,,NaN,,,,,0 / 0,11635,2018-08-27 12:44:28:509,0.19
-0.395,9.843,1.808,-0.397,9.589,2.014,0.018,0.258,-0.221,-0.136,-0.102,0.157,30,2.5,-28.8,27.9,195.5,-78,12.3,3,1000,59.01,,,,NaN,,,,,0 / 0,11735,2018-08-27 12:44:28:609,0.19
0.294,9.809,1.015,-0.227,9.568,2.138,0.49,0.284,-1.185,-0.245,-0.115,0.134,30,1.7,-28.9,27.1,188.5,-77.3,6.1,3,1000,59.01,,,,NaN,,,,,0 / 0,11835,2018-08-27 12:44:28:709,0.19
1.039,10.643,0.175,-0.019,9.569,2.148,0.905,1.115,-1.918,-0.286,0.073,0.087,28,2.5,-28.9,26.9,185.4,-77.2,2.2,3,1000,60.38,,,,NaN,,,,,0 / 0,11935,2018-08-27 12:44:28:809,0.19
0.584,9.184,2.476,0.238,9.537,2.273,0.267,-0.347,0.365,0.013,-0.139,0.222,27,2.4,-30.2,25,180,-76.7,-4.6,3,1000,60.38,,,,NaN,,,,,0 / 0,12035,2018-08-27 12:44:28:909,0.19
0.558,9.69,1.844,0.342,9.573,2.102,0.173,0.17,-0.316,0.053,0.057,0.148,27,0.1,-30.8,26.2,175.4,-77.2,-7.9,3,1000,60.38,,,,NaN,,,,,0 / 0,12136,2018-08-27 12:44:29:010,0.19
0.951,9.738,0.962,0.439,9.603,1.94,0.322,0.18,-0.791,0.065,0.124,0.157,26,-0.5,-30.2,26.6,168.4,-78.1,-11.9,3,1000,59.32,,,,NaN,,,,,0 / 0,12235,2018-08-27 12:44:29:109,0.19
0.737,9.41,1.35,0.501,9.624,1.818,0.251,-0.214,-0.518,0.096,0.299,0.076,26,-0.9,-29.7,27.2,167.6,-78.6,-14.8,3,1000,59.32,,,,NaN,,,,,0 / 0,12335,2018-08-27 12:44:29:209,0.19
1.396,8.787,1.549,0.543,9.596,1.946,0.884,-0.833,-0.38,-0.301,0.279,-0.054,28,-2.2,-29.8,27.2,163,-78.7,-16.1,3,1000,59.32,,,,NaN,,,,,0 / 0,12436,2018-08-27 12:44:29:310,0.19
-0.294,10.078,1.999,0.434,9.54,2.231,-0.683,0.449,-0.146,-0.284,0.345,-0.168,28,-3.3,-30.4,25.7,164.5,-76.9,-12.6,3,1000,59.32,,,,NaN,,,,,0 / 0,12535,2018-08-27 12:44:29:409,0.19
-0.151,10.88,2.119,0.327,9.488,2.457,-0.229,1.233,-0.481,-0.24,0.159,-0.089,30,-3.4,-32.3,25.7,168.3,-75.6,-8.2,3,1000,54.6,,,,NaN,,,,,0 / 0,12636,2018-08-27 12:44:29:510,0.19
-1.19,11.033,2.871,0.152,9.492,2.458,-1.332,1.593,0.458,0.221,0.126,0.013,30,-2.6,-31.8,23.9,170.8,-75.2,-5,3,1000,54.6,,,,NaN,,,,,0 / 0,12735,2018-08-27 12:44:29:609,0.19
0.431,9.261,1.235,0.174,9.572,2.126,0.221,-0.227,-0.814,0.3,-0.055,0.065,33,-3.7,-32.3,26.2,169.7,-77.1,-4.2,3,1000,54.6,,,,NaN,,,,,0 / 0,12835,2018-08-27 12:44:29:709,0.19
0.326,9.797,0.426,0.204,9.627,1.856,0.098,0.201,-1.516,-0.026,-0.407,0.049,33,-3.9,-30.6,26.8,168.6,-78.5,-5.3,3,1000,48.67,,,,NaN,,,,,0 / 0,12936,2018-08-27 12:44:29:810,0.19
-0.22,10.207,1.453,0.251,9.659,1.679,-0.481,0.608,-0.139,0.261,-0.412,0.063,33,-1.3,-30.7,25.3,171.6,-79.7,-7.8,3,1000,48.67,,,,NaN,,,,,0 / 0,13036,2018-08-27 12:44:29:910,0.19
-0.022,9.967,1.429,0.343,9.665,1.622,-0.317,0.28,-0.234,0.1,-0.031,-0.148,36,-1,-30.7,25.4,167.9,-80.3,-12.2,3,1000,48.67,,,,NaN,,,,,0 / 0,13136,2018-08-27 12:44:30:010,0.19
1.348,8.737,0.036,0.401,9.686,1.48,0.84,-0.875,-1.406,-0.19,-0.426,0.108,36,-0.9,-29.8,28,168.5,-80.8,-11.3,3,1000,55.39,,,,NaN,,,,,0 / 0,13235,2018-08-27 12:44:30:109,0.19
1.528,9.024,0.484,0.595,9.675,1.484,0.911,-0.69,-0.952,-0.231,-0.193,0.041,40,-0.7,-30.4,27.4,160.7,-80.6,-20.4,3,1000,55.39,,,,NaN,,,,,0 / 0,13335,2018-08-27 12:44:30:209,0.19
0.603,9.965,1.403,0.703,9.642,1.643,-0.157,0.315,-0.156,-0.115,-0.149,0.153,40,0.1,-30.7,27,160.8,-79.9,-22.6,3,1000,55.39,,,,NaN,,,,,0 / 0,13435,2018-08-27 12:44:30:309,0.19
0.888,9.919,1.152,0.796,9.628,1.683,0.121,0.195,-0.553,-0.029,0.068,0.061,41,-0.3,-30.7,26.5,159,-79,-25.2,3,1000,49.32,,,,NaN,,,,,0 / 0,13536,2018-08-27 12:44:30:410,0.19
1.219,9.654,1.439,0.877,9.628,1.646,0.272,0.098,-0.209,0.021,0.137,-0.032,41,0,-31.9,25.9,155.3,-79,-27.6,3,1000,49.32,,,,NaN,,,,,0 / 0,13635,2018-08-27 12:44:30:509,0.19
1.008,9.527,1.642,0.893,9.637,1.579,0.105,-0.084,0.023,0.077,0.173,-0.008,41,-0.4,-30.9,25.9,155.7,-79.3,-29.2,3,1000,49.32,,,,NaN,,,,,0 / 0,13735,2018-08-27 12:44:30:609,0.19
0.479,10.006,1.899,0.808,9.667,1.438,-0.284,0.38,0.307,0.089,0.339,-0.035,38,-1.5,-30.4,26.1,153,-80,-29.9,3,1000,49.32,,,,NaN,,,,,0 / 0,13836,2018-08-27 12:44:30:710,0.19
0.215,9.879,1.88,0.791,9.671,1.417,-0.604,0.152,0.587,0.002,0.313,0.078,38,-2.3,-30.5,27.1,149.4,-80.5,-29.2,3,1000,48.53,,,,NaN,,,,,0 / 0,13936,2018-08-27 12:44:30:810,0.19
-0.05,10.195,1.24,0.747,9.675,1.42,-0.639,0.357,-0.215,0.052,0.264,-0.01,35,-1.6,-28.9,25.4,152,-80.5,-28.3,3,1000,48.53,,,,NaN,,,,,0 / 0,14036,2018-08-27 12:44:30:910,0.19
0.287,9.421,2.081,0.746,9.647,1.594,-0.427,-0.228,0.51,-0.094,0.101,0.059,35,-3.3,-29.8,25.6,152.3,-80.2,-26,3,1000,48.53,,,,NaN,,,,,0 / 0,14135,2018-08-27 12:44:31:009,0.19
0.836,9.56,1.212,0.728,9.65,1.589,0.103,-0.118,-0.361,-0.027,-0.015,0.029,34,-3.7,-30.2,26.9,151.8,-79.7,-24.7,3,1000,58.05,,,,NaN,,,,,0 / 0,14235,2018-08-27 12:44:31:109,0.19
0.453,9.776,1.822,0.727,9.651,1.583,-0.275,0.125,0.239,-0.081,-0.131,0.041,34,-3.9,-30.7,25.4,153.6,-79.8,-24.7,3,1000,58.05,,,,NaN,,,,,0 / 0,14335,2018-08-27 12:44:31:209,0.19
0.278,10.307,1.403,0.694,9.666,1.505,-0.392,0.663,-0.042,0.14,-0.26,0.021,36,-3.6,-30.7,26.6,153.8,-79.9,-24.5,3,1000,58.05,,,,NaN,,,,,0 / 0,14435,2018-08-27 12:44:31:309,0.19
1.034,10.35,0.359,0.776,9.678,1.381,0.047,0.531,-0.784,-0.046,-0.267,0.033,36,-2.7,-29.4,25.8,149.7,-80.7,-28.6,3,1000,59.45,,,,NaN,,,,,0 / 0,14536,2018-08-27 12:44:31:410,0.19
1.322,9.608,1.987,0.881,9.667,1.394,0.496,-0.061,0.545,-0.075,-0.434,0.003,35,-1.1,-31.6,24,151.8,-80.6,-31.2,3,1000,59.45,,,,NaN,,,,,0 / 0,14635,2018-08-27 12:44:31:509,0.19
1.729,9.747,1.264,0.88,9.667,1.391,0.097,-0.241,0.718,0.253,-0.405,-0.036,34,-0.4,-29.9,24.4,152.8,-80.2,-32.2,3,1000,59.45,,,,NaN,,,,,0 / 0,14735,2018-08-27 12:44:31:609,0.19
0.311,9.659,2.509,0.892,9.662,1.422,-0.581,-0.003,1.087,-0.179,-0.234,0.094,34,0.5,-30.7,26.8,154.2,-80.4,-32.4,3,1000,59.45,,,,NaN,,,,,0 / 0,14835,2018-08-27 12:44:31:709,0.19
1.121,9.16,2.567,0.985,9.613,1.669,0.064,-0.367,0.876,-0.063,0.002,-0.074,34,0.2,-29.6,26,155.4,-79,-31.7,3,1000,54.76,,,,NaN,,,,,0 / 0,14936,2018-08-27 12:44:31:810,0.19
0.266,10.066,1.717,0.83,9.626,1.678,-0.526,0.432,0.021,0.036,0.434,-0.075,34,1.6,-30.8,24.7,161.3,-78.9,-27.3,3,1000,54.76,,,,NaN,,,,,0 / 0,15035,2018-08-27 12:44:31:909,0.19
1.307,9.096,1.86,0.825,9.608,1.784,0.507,-0.351,0.687,0.111,0.716,0.099,35,-0.1,-30.6,25.9,159.5,-78.7,-24.7,3,1000,54.76,,,,NaN,,,,,0 / 0,15135,2018-08-27 12:44:32:009,0.19
0.007,10.133,0.584,0.596,9.64,1.697,-0.4,-0.01,-0.323,0.42,1.413,-0.185,35,-1.3,-30,24.5,160,-78.7,-22.1,3,1000,55.16,,,,NaN,,,,,0 / 0,15236,2018-08-27 12:44:32:110,0.19
-0.053,10.214,1.386,0.374,9.645,1.731,-0.252,0.667,-0.335,-0.187,1.618,0.192,36,-4.8,-29.8,24.4,160.1,-80.2,-14.3,3,1000,55.16,,,,NaN,,,,,0 / 0,15336,2018-08-27 12:44:32:210,0.19
-0.702,9.177,1.674,0.245,9.667,1.631,-1.049,-0.473,0.215,-0.094,1.65,0.443,36,-9.7,-29.8,23.5,156.8,-80.1,-9.1,3,1000,55.16,,,,NaN,,,,,0 / 0,15436,2018-08-27 12:44:32:310,0.19
-1.188,9.34,3.843,0.217,9.627,1.858,-1.347,-0.334,1.87,-0.031,2.133,0.318,48,-15.2,-29.9,20.6,144.4,-79.5,-8.8,3,1000,58.51,,,,NaN,,,,,0 / 0,15535,2018-08-27 12:44:32:409,0.19
-0.79,9.462,3.182,-0.024,9.573,2.128,-0.766,-0.111,1.054,-0.077,1.967,0.259,40,-20,-28.5,17.5,139.1,-77.5,0.7,3,1000,58.51,,,,NaN,,,,,0 / 0,15635,2018-08-27 12:44:32:509,0.19
-0.548,9.687,2.976,-0.224,9.57,2.129,-0.25,0.096,0.416,0.03,1.847,0.343,40,-24.8,-27.8,15.5,134.1,-77.3,5,3,1000,58.51,,,,NaN,,,,,0 / 0,15736,2018-08-27 12:44:32:610,0.19
-0.56,9.625,2.631,-0.241,9.573,2.113,-0.255,0.155,0.621,0.014,1.625,0.399,37,-28.2,-26.5,10.9,126.4,-77.5,6.8,3,1000,53.42,,,,NaN,,,,,0 / 0,15835,2018-08-27 12:44:32:709,0.19
-0.448,9.682,1.183,-0.279,9.58,2.08,-0.152,0.136,-0.777,-0.046,1.601,0.293,37,-30.4,-25.5,6.4,116.8,-77.5,7,3,1000,53.42,,,,NaN,,,,,0 / 0,15935,2018-08-27 12:44:32:809,0.19
-0.704,9.426,2.813,-0.349,9.557,2.172,-0.355,-0.13,0.641,-0.19,1.312,0.324,39,-30.7,-25.3,-0.4,109.9,-77.3,8.7,3,1000,53.42,,,,NaN,,,,,0 / 0,16035,2018-08-27 12:44:32:909,0.19
-0.045,9.601,3.386,-0.357,9.508,2.375,0.259,-0.118,0.86,-0.149,1.223,0.303,39,-32.2,-23.3,-4.6,103.1,-76.5,8.7,3,1000,56.23,,,,NaN,,,,,0 / 0,16136,2018-08-27 12:44:33:010,0.19
1.42,9.905,2.047,-0.274,9.511,2.375,1.404,0.284,0.51,0.296,1.047,0.421,45,-30.5,-23.2,-10.9,92.6,-75.5,8.1,3,1000,56.23,,,,NaN,,,,,0 / 0,16236,2018-08-27 12:44:33:110,0.19
-0.184,9.496,3.484,-0.06,9.507,2.403,-0.191,0.086,1.172,-0.053,1.115,0.489,45,-31.1,-22,-13.3,80.3,-76.1,3.6,3,1000,56.23,,,,NaN,,,,,0 / 0,16335,2018-08-27 12:44:33:209,0.19
1.037,9.079,1.288,0.124,9.506,2.407,0.927,-0.456,-1.121,0.052,1.208,0.321,52,-30.5,-19.7,-18,64.9,-75.8,-3,3,1000,56.23,,,,NaN,,,,,0 / 0,16435,2018-08-27 12:44:33:309,0.19
-0.158,10.216,2.95,0.128,9.522,2.343,-0.226,0.632,0.765,-0.089,1.465,0.503,83,-28.3,-18.6,-22.1,60.1,-76.2,-2.6,3,1000,52.24,,,,NaN,,,,,0 / 0,16535,2018-08-27 12:44:33:409,0.19
0.709,9.704,1.942,0.267,9.518,2.345,0.496,-0.006,-0.389,0.156,1.429,0.338,83,-27.1,-17.8,-24.7,48.3,-76,-5.3,3,1000,52.24,,,,NaN,,,,,0 / 0,16636,2018-08-27 12:44:33:510,0.19
0.879,9.603,2.272,0.256,9.538,2.265,0.623,0.065,0.007,0.247,1.41,0.104,83,-24,-18.2,-27.8,38.8,-76.5,-6.7,3,1000,52.24,,,,NaN,,,,,0 / 0,16735,2018-08-27 12:44:33:609,0.19
0.699,9.867,2.033,0.199,9.574,2.113,0.39,0.151,0.092,0.128,1.246,0.239,83,-22.2,-17.5,-31.1,33.8,-77.4,-5.4,3,1000,56.45,,,,NaN,,,,,0 / 0,16835,2018-08-27 12:44:33:709,0.19
0.16,9.675,2.588,0.225,9.566,2.149,-0.065,0.11,0.439,-0.223,1.129,0.298,45,-18,-16.9,-32.8,26.6,-77.6,-5.8,3,1000,56.45,,,,NaN,,,,,0 / 0,16935,2018-08-27 12:44:33:809,0.19
-0.69,9.105,3.335,0.143,9.508,2.398,-0.943,-0.563,1.637,0.182,1.028,0.084,45,-14,-15.9,-35.6,20.9,-76,-5,3,1000,56.45,,,,NaN,,,,,0 / 0,17036,2018-08-27 12:44:33:910,0.19
0.105,9.474,1.829,-0.008,9.513,2.381,0.035,-0.046,-0.485,-0.101,0.696,0.207,47,-11.3,-16.6,-36,20.7,-76,-0.5,3,1000,56.8,,,,NaN,,,,,0 / 0,17135,2018-08-27 12:44:34:009,0.19
-0.867,9.589,2.871,-0.023,9.473,2.537,-1.155,-0.018,0.76,-0.166,0.484,0.311,47,-9.1,-15.9,-36.7,16.6,-75.1,0.7,3,1000,56.8,,,,NaN,,,,,0 / 0,17235,2018-08-27 12:44:34:109,0.19
-1.077,9.517,2.629,0.049,9.447,2.633,-1.093,-0.078,0.185,0.057,0.532,0.303,47,-7.9,-14.9,-37.4,12.8,-74.4,-0.9,3,1000,56.8,,,,NaN,,,,,0 / 0,17336,2018-08-27 12:44:34:210,0.19
-0.426,9.477,2.658,0.121,9.45,2.616,-0.54,0.026,-0.011,0.218,0.525,0.187,39,-5.6,-15,-39.6,7.8,-74.4,-2.1,3,1000,53.04,,,,NaN,,,,,0 / 0,17435,2018-08-27 12:44:34:309,0.19
0.11,9.876,1.903,0.121,9.526,2.325,-0.283,0.388,-0.172,0.171,0.6,0.384,39,-3.9,-15.5,-37.9,3.5,-76.3,-3,3,1000,53.04,,,,NaN,,,,,0 / 0,17535,2018-08-27 12:44:34:409,0.19
0.479,9.457,3.431,0.266,9.519,2.343,0.017,-0.141,1.186,0.048,0.767,0.335,35,-1,-17.1,-41.4,355.2,-76.1,-5.6,3,1000,53.04,,,,NaN,,,,,0 / 0,17635,2018-08-27 12:44:34:509,0.19
0.965,9.362,3.254,0.333,9.487,2.463,0.608,-0.099,0.793,0.015,1.04,0.101,35,0.9,-16,-40.7,351,-75.8,-7.9,3,1000,53.04,,,,NaN,,,,,0 / 0,17736,2018-08-27 12:44:34:610,0.19
-0.62,8.957,4.312,0.18,9.431,2.683,-1.015,-0.457,1.751,-0.279,1.486,0.239,32,5.3,-15.8,-41.6,348.1,-74.5,-4.7,3,1000,57.3,,,,NaN,,,,,0 / 0,17835,2018-08-27 12:44:34:709,0.19
0.019,8.677,3.979,0.052,9.345,2.974,-0.205,-0.732,1.079,-0.201,1.821,0.627,32,10.5,-15.8,-41.6,341.3,-72.8,-1.2,3,1000,57.3,,,,NaN,,,,,0 / 0,17935,2018-08-27 12:44:34:809,0.19
1.053,8.684,5.026,-0.018,9.214,3.357,1.205,-0.561,1.348,-0.126,2.024,0.81,35,18.8,-16.1,-37.7,332.2,-71,0.4,3,1000,57.3,,,,NaN,,,,,0 / 0,18035,2018-08-27 12:44:34:909,0.19
1.317,8.507,4.396,0.057,9.066,3.739,1.244,-0.633,0.729,-0.261,2.447,0.865,35,23.6,-16.8,-30.8,318.2,-68.9,-0.4,3,1000,56.82,,,,NaN,,,,,0 / 0,18137,2018-08-27 12:44:35:011,0.19
1.805,10.463,3.469,0.001,8.996,3.904,1.62,1.534,-0.715,-0.033,2.734,0.818,68,30.7,-19.2,-24.2,294.7,-66.5,-0.3,3,1000,56.82,,,,NaN,,,,,0 / 0,18238,2018-08-27 12:44:35:112,0.19
-0.503,9.486,3.141,-0.201,8.977,3.942,-0.348,0.42,-0.542,0.049,2.437,0.834,59,33.5,-21.5,-15.1,282.2,-66,1.8,3,1000,56.82,,,,NaN,,,,,0 / 0,18336,2018-08-27 12:44:35:210,0.19
-1.449,9.242,4.554,-0.82,9.023,3.753,-0.628,0.219,0.801,0.483,2.718,0.325,59,34.3,-24.6,-4.9,271.8,-66.1,6.5,3,1000,54.35,,,,NaN,,,,,0 / 0,18435,2018-08-27 12:44:35:309,0.19
-0.024,9.307,1.573,-1.229,9.239,3.049,1.172,0.079,-1.225,0.167,2.269,0.544,48,30.4,-25.8,7.7,259,-69.9,20.7,3,1000,54.35,,,,NaN,,,,,0 / 0,18536,2018-08-27 12:44:35:410,0.19
-0.352,9.924,2.33,-1.168,9.337,2.762,0.775,0.556,-0.543,-0.134,1.748,0.676,48,27.4,-26.2,13.7,254,-71.8,23.5,3,1000,54.35,,,,NaN,,,,,0 / 0,18635,2018-08-27 12:44:35:509,0.19
0.007,9.84,2.351,-0.927,9.424,2.551,0.783,0.651,-0.535,0.338,1.296,0.405,42,23.1,-29.6,15.3,243.2,-73.4,19.9,3,1000,56.9,,,,NaN,,,,,0 / 0,18735,2018-08-27 12:44:35:609,0.19
1.01,9.577,1.487,-0.641,9.507,2.318,1.615,0.089,-0.898,-0.006,0.553,0.468,42,19.9,-28.7,17.6,238.9,-75,19.4,3,1000,56.9,,,,NaN,,,,,0 / 0,18836,2018-08-27 12:44:35:710,0.19
-0.065,9.972,1.733,-0.422,9.604,1.938,0.417,0.55,-0.282,0.394,0.036,0.145,42,18.7,-29.2,20.3,226,-76.7,12.9,3,1000,56.9,,,,NaN,,,,,0 / 0,18936,2018-08-27 12:44:35:810,0.19
0.158,9.441,1.817,-0.191,9.674,1.595,0.524,-0.085,0.095,0.407,-0.078,0.156,42,17.3,-29,20.6,220.3,-80.1,7.8,3,1000,57.63,,,,NaN,,,,,0 / 0,19035,2018-08-27 12:44:35:909,0.19
0.529,9.766,1.389,0.029,9.719,1.306,0.5,0.047,0.083,0.111,-0.009,0.124,41,17.5,-28.5,20.4,216,-82,1.7,3,1000,57.63,,,,NaN,,,,,0 / 0,19136,2018-08-27 12:44:36:010,0.19
0.51,9.575,1.824,0.262,9.713,1.328,0.193,-0.27,0.547,-0.069,0.231,0.16,41,17.2,-28.5,20.5,207.2,-82.3,-8.3,3,1000,57.63,,,,NaN,,,,,0 / 0,19235,2018-08-27 12:44:36:109,0.19
1.018,9.615,0.486,0.415,9.706,1.34,0.578,-0.129,-0.83,0.077,0.286,0.104,43,16.7,-28.7,19.9,201.1,-81.7,-16.2,3,1000,57.63,,,,NaN,,,,,0 / 0,19335,2018-08-27 12:44:36:209,0.19
1.006,9.271,1.499,0.527,9.684,1.453,0.484,-0.397,-0.009,-0.056,0.445,0.035,43,15.2,-29.2,20,194.6,-81.1,-19.9,3,1000,47.31,,,,NaN,,,,,0 / 0,19435,2018-08-27 12:44:36:309,0.19
0.883,9.362,0.907,0.474,9.677,1.517,0.412,-0.267,-0.583,-0.154,0.432,-0.03,43,14.5,-28.3,20.8,194.6,-80.8,-18.5,3,1000,47.31,,,,NaN,,,,,0 / 0,19535,2018-08-27 12:44:36:409,0.19
0.376,10.935,1.504,0.595,9.641,1.694,-0.21,0.927,-0.231,0.049,0.641,0.549,42,13.3,-29.2,20.1,193.4,-79.5,-16.9,3,1000,47.31,,,,NaN,,,,,0 / 0,19636,2018-08-27 12:44:36:510,0.19
0.069,10.003,1.841,0.801,9.598,1.847,-0.731,0.406,-0.006,0.049,0.779,0.342,42,10.3,-30.2,21.5,184.2,-78.5,-22.5,3,1000,62.43,,,,NaN,,,,,0 / 0,19735,2018-08-27 12:44:36:609,0.19
-0.567,9.532,1.987,0.716,9.594,1.899,-1.283,-0.063,0.088,0.172,0.843,0.097,44,7.6,-30.6,21.5,180.3,-77.9,-22.8,3,1000,62.43,,,,NaN,,,,,0 / 0,19835,2018-08-27 12:44:36:709,0.19
-0.168,9.52,1.453,0.51,9.621,1.829,-0.675,-0.099,-0.383,-0.102,1.017,0.174,44,4,-30.2,25.2,173.9,-78.9,-16.5,3,1000,62.43,,,,NaN,,,,,0 / 0,19935,2018-08-27 12:44:36:809,0.19
0.8,9.905,1.434,0.432,9.58,2.052,0.363,0.337,-0.57,-0.008,0.61,-0.02,41,3.4,-30.8,23.7,174.1,-78.4,-14.4,3,1000,55.84,,,,NaN,,,,,0 / 0,20035,2018-08-27 12:44:36:909,0.19
0.567,10.317,1.535,0.352,9.598,1.981,0.245,0.714,-0.454,0.066,0.148,0.086,41,1.8,-30.6,23.6,176,-78.1,-9.8,3,1000,55.84,,,,NaN,,,,,0 / 0,20135,2018-08-27 12:44:37:009,0.19
0.651,9.359,1.959,0.493,9.615,1.866,0.158,-0.256,0.093,0.148,-0.308,0.095,41,1,-30.2,23.3,170,-78.6,-14.8,3,1000,55.84,,,,NaN,,,,,0 / 0,20235,2018-08-27 12:44:37:109,0.19
0.893,10.094,1.255,0.591,9.652,1.632,0.015,0.265,-0.443,0.237,-0.276,-0.103,40,1.8,-29.9,26,166.5,-79.3,-18.4,3,1000,62.21,,,,NaN,,,,,0 / 0,20335,2018-08-27 12:44:37:209,0.19
0.472,8.933,2.186,0.578,9.682,1.445,-0.106,-0.749,0.741,0.053,-0.687,0.165,40,1.3,-29.8,26.3,165.2,-80.4,-19.6,3,1000,62.21,,,,NaN,,,,,0 / 0,20436,2018-08-27 12:44:37:310,0.19
0.986,9.833,2.306,0.672,9.68,1.423,0.36,0.211,0.897,-0.078,-0.287,0.039,36,3,-29.5,26.8,164,-80.9,-24.9,3,1000,62.21,,,,NaN,,,,,0 / 0,20535,2018-08-27 12:44:37:409,0.19
0.026,9.86,2.842,0.765,9.643,1.609,-0.707,0.235,1.213,-0.112,0.19,0.105,36,4.2,-29.3,26.5,165.9,-79.6,-25.4,3,1000,62.21,,,,NaN,,,,,0 / 0,20637,2018-08-27 12:44:37:511,0.19
0.948,9.256,1.341,0.816,9.646,1.569,0.223,-0.437,-0.118,0.041,0.409,0.135,36,2.4,-29.9,26.7,162.6,-79.6,-26.8,3,1000,57.77,,,,NaN,,,,,0 / 0,20735,2018-08-27 12:44:37:609,0.19
0.742,9.931,0.857,0.751,9.653,1.56,-0.014,0.255,-0.674,-0.009,0.951,0.058,36,1.2,-29.5,26.4,159.2,-79.5,-26.9,3,1000,57.77,,,,NaN,,,,,0 / 0,20837,2018-08-27 12:44:37:711,0.19
1.329,9.699,2.322,0.715,9.612,1.808,0.49,0.066,0.574,-0.062,1.211,0.113,36,-0.8,-29.6,26.9,159.5,-78.7,-22.4,3,1000,57.77,,,,NaN,,,,,0 / 0,20935,2018-08-27 12:44:37:809,0.19
0.342,10.338,1.365,0.572,9.613,1.852,-0.23,0.725,-0.487,-0.151,1.684,0.207,36,-4.5,-30,25.3,157.6,-78.7,-18.1,3,1000,54.66,,,,NaN,,,,,0 / 0,21035,2018-08-27 12:44:37:909,0.19
-1.094,8.617,3.28,0.393,9.586,2.032,-1.487,-0.969,1.248,0.071,2.073,0.244,39,-9.5,-29.9,25.5,153.2,-77.9,-13.1,3,1000,54.66,,,,NaN,,,,,0 / 0,21135,2018-08-27 12:44:38:009,0.19
0.127,9.223,2.363,0.316,9.56,2.164,-0.242,-0.342,0.394,-0.137,1.914,0.451,42,-16.9,-28.9,22.7,142.3,-77.4,-8.4,3,1000,54.66,,,,NaN,,,,,0 / 0,21235,2018-08-27 12:44:38:109,0.19
-1.173,10.243,2.215,0.239,9.548,2.225,-1.403,0.81,-0.288,-0.271,1.781,0.599,42,-20.7,-28,18.4,133.3,-77,-6.2,3,1000,54.89,,,,NaN,,,,,0 / 0,21335,2018-08-27 12:44:38:209,0.19
0.292,9.18,2.533,0.36,9.491,2.441,-0.075,-0.316,0.027,0.203,1.674,0.523,32,-25.3,-28,14.8,124.2,-75.4,-7.7,3,1000,54.89,,,,NaN,,,,,0 / 0,21435,2018-08-27 12:44:38:309,0.19
-0.081,9.577,2.567,0.399,9.501,2.398,-0.48,0.076,0.169,0.005,1.496,0.518,32,-28.4,-26.3,10.6,113.8,-75.7,-8.9,3,1000,54.89,,,,NaN,,,,,0 / 0,21536,2018-08-27 12:44:38:410,0.19
-0.378,9.548,2.72,0.383,9.483,2.47,-0.819,0.082,0.214,0.001,1.36,0.326,34,-30,-23.9,6.1,107.8,-75.4,-9.6,3,1000,54.69,,,,NaN,,,,,0 / 0,21638,2018-08-27 12:44:38:512,0.19
0.103,10.173,3.395,0.278,9.468,2.539,-0.175,0.705,0.856,-0.108,1.184,0.335,34,-31.1,-24.1,1.3,96.8,-75,-6.7,3,1000,54.69,,,,NaN,,,,,0 / 0,21735,2018-08-27 12:44:38:609,0.19
0.898,8.409,2.832,0.245,9.414,2.735,0.653,-1.006,0.097,0.017,1.113,0.24,37,-32.5,-22.8,-3.7,90.9,-73.9,-5.6,3,1000,54.69,,,,NaN,,,,,0 / 0,21835,2018-08-27 12:44:38:709,0.19
2.744,9.673,2.049,0.276,9.454,2.591,2.468,0.219,-0.542,0.151,1.37,0.083,37,-32.3,-22.6,-6.5,86.5,-74,-4.7,3,1000,54.69,,,,NaN,,,,,0 / 0,21935,2018-08-27 12:44:38:809,0.19
0.273,9.505,3.761,0.399,9.439,2.629,-0.112,0.03,1.157,-0.163,0.915,0.581,45,-32.5,-22.2,-10,76,-74.6,-7.4,3,1000,54.89,,,,NaN,,,,,0 / 0,22035,2018-08-27 12:44:38:909,0.19
1.123,9.077,1.721,0.588,9.439,2.594,0.552,-0.453,-0.763,0.207,1.07,0.3,44,-33.2,-19.6,-12.4,67,-74.1,-12.3,3,1000,54.89,,,,NaN,,,,,0 / 0,22135,2018-08-27 12:44:39:009,0.19
1.085,9.433,2.354,0.615,9.459,2.513,0.369,0.051,-0.164,-0.007,1.087,0.44,44,-32.1,-19.1,-17.1,57.6,-74.7,-12.6,3,1000,54.89,,,,NaN,,,,,0 / 0,22236,2018-08-27 12:44:39:110,0.19
0.754,9.455,2.32,0.703,9.451,2.521,0.008,-0.044,-0.114,0.106,0.966,0.385,51,-30.9,-18.2,-20.7,47.8,-74.5,-14.7,3,1000,59.65,,,,NaN,,,,,0 / 0,22335,2018-08-27 12:44:39:209,0.19
0.685,9.33,2.124,0.727,9.466,2.457,-0.09,-0.126,-0.29,0.231,1.236,0.239,51,-28.6,-16.9,-24.1,39.2,-74.7,-16.6,3,1000,59.65,,,,NaN,,,,,0 / 0,22435,2018-08-27 12:44:39:309,0.19
0.532,9.601,4.226,0.657,9.415,2.663,-0.398,0.296,1.61,-0.218,1.25,0.048,97,-27.3,-16.1,-26.2,36.4,-74.5,-16.1,3,1000,59.65,,,,NaN,,,,,0 / 0,22535,2018-08-27 12:44:39:409,0.19
0.077,9.321,3.51,0.618,9.406,2.706,-0.451,0.04,0.442,-0.129,1.256,0.479,97,-24.6,-15.5,-28.4,36.3,-74,-12.5,3,1000,59.65,,,,NaN,,,,,0 / 0,22636,2018-08-27 12:44:39:510,0.19
0.493,9.11,2.588,0.707,9.375,2.788,-0.214,-0.265,-0.2,-0.127,0.953,0.404,87,-20.4,-14.9,-32.4,21.3,-73.1,-13.9,3,1000,59.65,,,,NaN,,,,,0 / 0,22735,2018-08-27 12:44:39:609,0.19
-0.007,9.158,3.714,0.605,9.318,2.996,-0.62,-0.129,0.61,0.088,0.867,0.086,87,-17.8,-14,-35.5,19.2,-71.9,-12.3,3,1000,59.65,,,,NaN,,,,,0 / 0,22835,2018-08-27 12:44:39:709,0.19
0.182,9.388,3.163,0.487,9.321,3.009,-0.325,0.072,0.161,0.087,0.611,0.259,48,-15,-13,-36.3,15.9,-71.9,-9.1,3,1000,59.65,,,,NaN,,,,,0 / 0,22935,2018-08-27 12:44:39:809,0.19
0.488,9.319,3.259,0.535,9.337,2.949,-0.046,-0.019,0.31,0.079,0.393,0.15,42,-13.3,-13.7,-38.9,11.4,-72.2,-10,3,1000,55.48,,,,NaN,,,,,0 / 0,23035,2018-08-27 12:44:39:909,0.19
0.352,9.754,2.574,0.487,9.39,2.787,-0.135,0.357,-0.223,0.099,0.09,0.063,42,-11.9,-13.4,-38.6,9.7,-72.7,-10.1,3,1000,55.48,,,,NaN,,,,,0 / 0,23135,2018-08-27 12:44:40:009,0.19
0.208,9.433,4.082,0.506,9.399,2.75,-0.309,0.204,0.994,0.088,-0.016,0.046,40,-12.7,-13.7,-36.9,10.4,-73.4,-10.5,3,1000,55.48,,,,NaN,,,,,0 / 0,23235,2018-08-27 12:44:40:109,0.19
1.475,8.509,3.395,0.666,9.364,2.836,1.003,-0.826,0.42,-0.036,-0.422,-0.12,40,-13.4,-13.4,-36.8,10.3,-73.2,-11.9,3,1000,58.73,,,,NaN,,,,,0 / 0,23336,2018-08-27 12:44:40:210,0.19
1.429,9.184,3.594,0.733,9.343,2.888,0.697,-0.159,0.706,0.05,-0.43,-0.094,42,-15.4,-12.9,-36.7,9.4,-72.4,-14.1,3,1000,58.73,,,,NaN,,,,,0 / 0,23436,2018-08-27 12:44:40:310,0.19
0.098,9.52,3.321,0.822,9.325,2.921,-0.705,0.07,0.356,-0.191,-0.034,0.281,42,-16.2,-14,-36.9,9.8,-72.3,-15,3,1000,58.73,,,,NaN,,,,,0 / 0,23536,2018-08-27 12:44:40:410,0.19
0.51,9.07,3.455,0.92,9.305,2.957,-0.415,-0.214,0.438,0.113,0.605,0.195,47,-16.1,-13.1,-36.2,8.1,-71.5,-17.2,3,1000,62.2,,,,NaN,,,,,0 / 0,23635,2018-08-27 12:44:40:509,0.19
0.314,9.041,3.101,0.867,9.319,2.93,-0.573,-0.28,0.475,0.201,0.969,0.291,47,-13.3,-13.4,-37.2,4.5,-71.7,-16.9,3,1000,62.2,,,,NaN,,,,,0 / 0,23736,2018-08-27 12:44:40:610,0.19
-0.211,9.244,3.17,0.791,9.317,2.957,-0.928,-0.101,0.277,0.056,1.493,0.413,42,-10.1,-13.7,-38.3,359.7,-71.8,-15,3,1000,62.2,,,,NaN,,,,,0 / 0,23836,2018-08-27 12:44:40:710,0.19
0.649,8.464,3.122,0.673,9.227,3.252,-0.204,-0.833,0.207,0.144,1.675,0.581,37,-4.3,-13,-38.8,354.8,-70.7,-13.1,3,1000,53.36,,,,NaN,,,,,0 / 0,23936,2018-08-27 12:44:40:810,0.19
-0.304,9.596,3.388,0.487,9.16,3.468,-0.813,0.482,-0.25,-0.178,1.906,0.455,37,1.1,-13.5,-40.1,349.2,-69.9,-10.4,3,1000,53.36,,,,NaN,,,,,0 / 0,24035,2018-08-27 12:44:40:909,0.19
0.555,9.512,4.592,0.228,9.074,3.711,0.485,0.328,0.967,0.028,1.927,0.444,34,8,-12.4,-37.9,341.1,-67.7,-3.5,3,1000,53.36,,,,NaN,,,,,0 / 0,24135,2018-08-27 12:44:41:009,0.19
0.711,9.34,3.146,0.08,9.127,3.586,0.538,0.273,-0.555,-0.077,1.734,0.799,34,14.7,-14,-34.4,329.3,-68.5,-1,3,1000,53.36,,,,NaN,,,,,0 / 0,24235,2018-08-27 12:44:41:109,0.19
0.618,9.18,4.262,0.127,9.158,3.504,0.424,0.081,0.846,0.14,1.523,0.68,36,19.8,-14.9,-30.2,320.2,-68.9,-1.6,3,1000,50.35,,,,NaN,,,,,0 / 0,24336,2018-08-27 12:44:41:210,0.19
0.383,9.445,3.038,0.142,9.235,3.295,0.219,0.224,-0.333,0.34,1.448,0.407,36,23.5,-17.9,-26,304.8,-70.3,-2.5,3,1000,50.35,,,,NaN,,,,,0 / 0,24435,2018-08-27 12:44:41:309,0.19
-0.16,8.84,3.747,0.045,9.308,3.087,-0.201,-0.463,0.696,0.256,1.239,0.285,43,26,-19.7,-20.4,295.1,-71.6,-0.8,3,1000,50.35,,,,NaN,,,,,0 / 0,24536,2018-08-27 12:44:41:410,0.19
0.168,8.981,2.612,-0.054,9.359,2.927,0.222,-0.379,-0.315,0.043,0.906,0.264,43,27.3,-21.1,-16.3,290.8,-72.4,0.8,3,1000,56.97,,,,NaN,,,,,0 / 0,24635,2018-08-27 12:44:41:509,0.19
0.527,9.4,2.785,-0.098,9.361,2.92,0.484,0.008,0.125,0.091,0.866,0.301,43,28.2,-22,-14.2,287.8,-72.5,1.8,3,1000,56.97,,,,NaN,,,,,0 / 0,24735,2018-08-27 12:44:41:609,0.19
1.774,9.74,2.852,0.086,9.41,2.759,2.074,0.591,-0.554,0.38,0.905,0.397,38,27.2,-23.7,-11.1,276.2,-73.6,-1.8,3,1000,56.97,,,,NaN,,,,,0 / 0,24835,2018-08-27 12:44:41:709,0.19
-0.364,9.632,4.281,0.18,9.428,2.693,-0.544,0.204,1.588,-0.02,1.605,0.309,38,28.3,-24.5,-7.7,269.9,-74.1,-4.3,3,1000,58.88,,,,NaN,,,,,0 / 0,24936,2018-08-27 12:44:41:810,0.19
1.59,9.098,2.873,0.36,9.392,2.8,1.261,-0.291,0.1,0.075,1.25,0.534,36,29.3,-25.3,-5.7,262.9,-73.7,-4.8,3,1000,58.88,,,,NaN,,,,,0 / 0,25036,2018-08-27 12:44:41:910,0.19
1.099,9.101,3.785,0.588,9.374,2.822,0.562,-0.213,1.007,0.102,1.338,0.574,36,27.5,-26.5,-1,249.8,-73.2,-9.4,3,1000,58.88,,,,NaN,,,,,0 / 0,25136,2018-08-27 12:44:42:010,0.19
1.324,9.11,2.366,0.756,9.347,2.87,0.568,-0.22,-0.569,-0.006,1.54,0.503,36,25.5,-28.1,2.9,238.7,-72.6,-13.8,3,1000,57.17,,,,NaN,,,,,0 / 0,25235,2018-08-27 12:44:42:109,0.19
1.657,9.089,3.599,0.726,9.298,3.032,1.056,-0.336,0.473,0.133,1.823,0.229,36,23.6,-29.9,7.3,225.1,-71.5,-14.1,3,1000,57.17,,,,NaN,,,,,0 / 0,25335,2018-08-27 12:44:42:209,0.19
0.941,9.948,2.825,0.478,9.324,3,0.539,0.603,-0.144,0.119,1.934,0.228,36,21.8,-30.1,12.1,219.8,-71.8,-10.7,3,1000,57.17,,,,NaN,,,,,0 / 0,25435,2018-08-27 12:44:42:309,0.19
-0.098,8.325,3.654,0.27,9.293,3.119,-0.414,-0.976,0.549,-0.152,1.264,0.559,36,19.3,-31.1,14.7,214.7,-71.7,-5,3,1000,57.17,,,,NaN,,,,,0 / 0,25535,2018-08-27 12:44:42:409,0.19
-0.984,9.553,4.686,0.025,9.25,3.257,-1.127,0.329,1.822,-0.059,1.732,0.179,38,14.5,-31.6,17.6,208.6,-70.8,-3.4,3,1000,57.38,,,,NaN,,,,,0 / 0,25635,2018-08-27 12:44:42:509,0.19
0.357,9.328,3.005,-0.149,9.216,3.348,0.46,0.069,-0.274,-0.064,0.821,0.349,36,11.4,-32.2,20.3,202,-70.2,2.3,3,1000,57.38,,,,NaN,,,,,0 / 0,25735,2018-08-27 12:44:42:609,0.19
-0.074,9.759,3.522,-0.167,9.244,3.271,0.194,0.539,0.325,0.297,0.724,0.194,36,8.5,-32.3,22,197.6,-69.9,2.4,3,1000,57.38,,,,NaN,,,,,0 / 0,25836,2018-08-27 12:44:42:710,0.19
0.06,8.837,2.955,-0.038,9.347,2.967,0.179,-0.531,-0.12,0.346,0.348,0.313,33,5.5,-32.1,22.3,192,-72,1.4,3,1000,59.9,,,,NaN,,,,,0 / 0,25935,2018-08-27 12:44:42:809,0.19
0.067,8.933,2.617,0.037,9.386,2.843,0.03,-0.452,-0.226,0.01,0.206,0.135,33,5,-30.4,22,189,-73.1,-0.7,3,1000,59.9,,,,NaN,,,,,0 / 0,26035,2018-08-27 12:44:42:909,0.19
0.335,10.111,2.164,0.032,9.371,2.889,0.322,0.802,-0.724,-0.11,0.225,0.061,34,4.9,-31.6,22,188.4,-73,-1,3,1000,59.9,,,,NaN,,,,,0 / 0,26135,2018-08-27 12:44:43:009,0.19
0.637,10.338,3.05,0.201,9.323,3.034,0.989,0.862,-0.82,-0.153,0.025,0.262,34,4,-31.6,22.4,185.4,-72.1,-2.8,3,1000,61.07,,,,NaN,,,,,0 / 0,26236,2018-08-27 12:44:43:110,0.19
1.097,9.481,2.909,0.39,9.294,3.105,0.63,0.029,-0.072,-0.158,-0.053,-0.056,38,2.3,-32.4,23.2,178.4,-71.4,-7.2,3,1000,61.07,,,,NaN,,,,,0 / 0,26335,2018-08-27 12:44:43:209,0.19
0.977,9.711,2.114,0.344,9.366,2.885,0.64,0.345,-0.718,0.083,0.076,-0.052,38,2.6,-33.2,21.4,179.2,-72.2,-6.9,3,1000,61.07,,,,NaN,,,,,0 / 0,26435,2018-08-27 12:44:43:309,0.19
1.037,9.802,2.37,0.406,9.424,2.683,0.585,0.477,-0.222,0.221,0.106,0.142,40,3,-32.2,21.4,180.3,-73.3,-7.3,3,1000,54.36,,,,NaN,,,,,0 / 0,26535,2018-08-27 12:44:43:409,0.19
1.391,8.686,0.962,0.61,9.451,2.547,0.635,-0.721,-1.512,0.11,-0.102,-0.105,42,2.6,-32.2,22.8,176,-74.2,-12.8,3,1000,54.36,,,,NaN,,,,,0 / 0,26636,2018-08-27 12:44:43:510,0.19
0.453,9.122,1.662,0.498,9.509,2.347,-0.087,-0.346,-0.719,0.182,0.115,-0.218,42,3.2,-32.3,22.7,176.1,-75.5,-12.6,3,1000,54.36,,,,NaN,,,,,0 / 0,26735,2018-08-27 12:44:43:609,0.19
-0.426,9.34,2.255,0.414,9.525,2.298,-0.813,-0.204,-0.081,-0.18,0.128,0.087,43,2.2,-31.9,23.5,175.9,-76.4,-10.4,3,1000,54.36,,,,NaN,,,,,0 / 0,26835,2018-08-27 12:44:43:709,0.19
0.213,9.714,2.729,0.523,9.452,2.561,-0.011,0.317,-0.198,-0.267,0.029,-0.063,43,1.6,-32.3,24.7,174.7,-75,-11.5,3,1000,55.55,,,,NaN,,,,,0 / 0,26935,2018-08-27 12:44:43:809,0.19
-0.654,10.944,2.715,0.335,9.447,2.608,-0.995,1.537,-0.008,0.13,0.021,-0.109,44,1.8,-33.5,22.9,174.6,-74.2,-9.5,3,1000,55.55,,,,NaN,,,,,0 / 0,27035,2018-08-27 12:44:43:909,0.19
-0.086,9.867,2.373,0.334,9.528,2.297,-0.42,0.339,0.075,0.275,-0.09,0.214,44,1.7,-32.3,25.4,177.8,-76,-7.3,3,1000,55.55,,,,NaN,,,,,0 / 0,27135,2018-08-27 12:44:44:009,0.19
0.546,9.07,0.757,0.437,9.595,1.978,0.101,-0.535,-1.214,0.306,-0.114,0.07,45,1.3,-32.6,25.7,172.9,-77.5,-11.2,3,1000,50.28,,,,NaN,,,,,0 / 0,27235,2018-08-27 12:44:44:109,0.19
0.259,9.271,0.168,0.47,9.652,1.669,-0.079,-0.53,-1.741,-0.003,-0.022,-0.017,45,1.8,-31,26.5,169.7,-79,-14.5,3,1000,50.28,,,,NaN,,,,,0 / 0,27335,2018-08-27 12:44:44:209,0.19
0.244,10.104,1.353,0.488,9.665,1.586,-0.181,0.398,-0.243,0.002,-0.061,0.042,44,1.2,-30.7,26,169.7,-80,-16.4,3,1000,50.28,,,,NaN,,,,,0 / 0,27436,2018-08-27 12:44:44:310,0.19
0.606,10.324,0.52,0.535,9.69,1.412,-0.032,0.613,-0.732,0.232,-0.264,0.09,43,1.4,-30.5,26.6,165,-80.9,-19.6,3,1000,46.7,,,,NaN,,,,,0 / 0,27535,2018-08-27 12:44:44:409,0.19
1.058,10.681,0.464,0.616,9.717,1.173,0.439,0.931,-0.759,0.046,-0.188,0.054,43,1.6,-30.2,26.2,160.7,-82.1,-26.3,3,1000,46.7,,,,NaN,,,,,0 / 0,27635,2018-08-27 12:44:44:509,0.19
0.912,10.101,1.056,0.693,9.723,1.078,-0.028,0.446,0.045,0.151,-0.139,0.132,42,2.6,-30.1,26.7,160.2,-82.3,-29.2,3,1000,46.7,,,,NaN,,,,,0 / 0,27735,2018-08-27 12:44:44:609,0.19
0.397,8.866,2.581,0.721,9.72,1.079,-0.264,-0.799,1.289,0.419,-0.333,-0.117,42,2.9,-29.9,26,156.3,-82.2,-33.7,3,1000,56.92,,,,NaN,,,,,0 / 0,27836,2018-08-27 12:44:44:710,0.19
0.953,9.412,1.161,0.682,9.729,1.023,0.271,-0.317,0.138,-0.237,0.025,-0.132,42,5,-28.9,25.1,158.7,-83,-35.4,3,1000,56.92,,,,NaN,,,,,0 / 0,27935,2018-08-27 12:44:44:809,0.19
0.958,9.184,2.318,0.709,9.69,1.329,0.12,-0.362,0.952,-0.374,-0.048,0.13,42,5.5,-29.2,23,164.6,-82.1,-29.6,3,1000,56.92,,,,NaN,,,,,0 / 0,28035,2018-08-27 12:44:44:909,0.19
0.22,9.953,0.57,0.61,9.687,1.403,-0.344,0.264,-0.853,0.077,0.065,-0.134,40,5,-30.8,24.9,168.9,-80.8,-24.4,3,1000,56.92,,,,NaN,,,,,0 / 0,28135,2018-08-27 12:44:45:009,0.19
0.144,10.116,1.212,0.537,9.703,1.316,-0.434,0.413,-0.062,0.19,0.296,0.08,40,5.1,-30.1,25.4,170.9,-81.3,-22,3,1000,58.25,,,,NaN,,,,,0 / 0,28235,2018-08-27 12:44:45:109,0.19
0.347,9.814,2.246,0.634,9.709,1.227,0.417,-0.122,0.909,0.337,0.324,-0.083,38,3.7,-29.5,25.1,165.4,-81.9,-25.5,3,1000,58.25,,,,NaN,,,,,0 / 0,28335,2018-08-27 12:44:45:209,0.19
0.268,10.662,2.672,0.601,9.729,1.075,-0.333,0.933,1.597,-0.149,0.216,0.034,37,4,-29.4,25.9,161.9,-82.8,-29.2,3,1000,58.25,,,,NaN,,,,,0 / 0,28435,2018-08-27 12:44:45:309,0.19
-0.958,9.625,3.371,0.466,9.732,1.116,-1.415,-0.131,2.267,0.321,0.623,0.087,37,2.3,-29.4,27,162.8,-82.7,-25.8,3,1000,61.26,,,,NaN,,,,,0 / 0,28536,2018-08-27 12:44:45:410,0.19
-0.785,9.419,2.222,0.283,9.731,1.179,-1.205,-0.274,0.99,0.181,1.186,0.203,37,-0.3,-29.2,28,165.2,-82.8,-18.6,3,1000,61.26,,,,NaN,,,,,0 / 0,28635,2018-08-27 12:44:45:509,0.19
-0.419,8.969,3.132,0.286,9.678,1.56,-0.38,-0.876,1.371,0.149,1.473,0.055,37,-1.9,-28.9,25.2,167.4,-81.4,-12.3,3,1000,61.26,,,,NaN,,,,,0 / 0,28735,2018-08-27 12:44:45:609,0.19
-0.608,9.304,2.689,-0.02,9.681,1.566,-0.648,-0.362,1.077,0.325,1.605,0.066,36,-8,-27.8,27.6,166.6,-80.8,0.7,3,1000,55.79,,,,NaN,,,,,0 / 0,28836,2018-08-27 12:44:45:710,0.19
-1.149,9.879,0.831,-0.39,9.723,1.216,-0.656,0.153,-0.512,0.349,2.04,-0.031,36,-12.4,-27.1,26.2,170.6,-82.1,14.2,3,1000,55.79,,,,NaN,,,,,0 / 0,28935,2018-08-27 12:44:45:809,0.19
-1.259,9.879,0.998,-0.537,9.74,1.002,-0.732,0.093,0.145,-0.311,2.154,0.304,36,-16.9,-26.2,24.2,175.5,-83.3,27.7,3,1000,55.79,,,,NaN,,,,,0 / 0,29035,2018-08-27 12:44:45:909,0.19
-0.362,9.718,1.192,-0.474,9.731,1.123,0.154,0.067,0.141,-0.262,2.007,0.361,36,-23.3,-25.8,21.2,163.6,-83.1,25.8,3,1000,55.1,,,,NaN,,,,,0 / 0,29135,2018-08-27 12:44:46:009,0.19
0.529,9.532,2.646,-0.429,9.723,1.206,1.054,-0.143,1.392,0.2,2.181,0.287,31,-27.5,-25.4,14.2,141,-82.4,19.9,3,1000,55.1,,,,NaN,,,,,0 / 0,29236,2018-08-27 12:44:46:110,0.19
0.754,9.579,2.318,-0.183,9.728,1.223,1.045,-0.213,1.035,-0.012,2.103,0.473,30,-31.3,-23.5,8.3,125.3,-82.9,13.3,3,1000,55.1,,,,NaN,,,,,0 / 0,29335,2018-08-27 12:44:46:209,0.19
0.455,9.594,2.253,0.032,9.734,1.188,0.457,-0.174,1.077,0.193,2.079,0.41,30,-33.4,-23.1,1.6,104.8,-82.8,3.2,3,1000,55.1,,,,NaN,,,,,0 / 0,29435,2018-08-27 12:44:46:309,0.19
0.752,9.395,0.63,0.183,9.748,1.06,0.418,-0.044,-0.947,-0.009,2.14,0.411,31,-34.2,-21.8,-3.9,83,-83.4,-6.3,3,1000,52.93,,,,NaN,,,,,0 / 0,29536,2018-08-27 12:44:46:410,0.19
0.864,9.726,0.864,0.269,9.736,1.143,0.686,-0.209,-0.216,0.127,2.069,0.046,31,-32.5,-20.2,-12,59.3,-83,-13.9,3,1000,52.93,,,,NaN,,,,,0 / 0,29635,2018-08-27 12:44:46:509,0.19
0.539,9.996,2.617,0.175,9.745,1.081,0.381,0.248,1.545,0.338,1.806,0.048,50,-29.9,-19.8,-19.4,52.4,-83.4,-10.7,3,1000,52.93,,,,NaN,,,,,0 / 0,29736,2018-08-27 12:44:46:610,0.19
0.881,10.317,2.155,0.164,9.765,0.89,0.667,0.473,1.573,-0.122,1.616,0.11,50,-27,-21.4,-24.7,43.5,-84.8,-8.5,3,1000,61.09,,,,NaN,,,,,0 / 0,29835,2018-08-27 12:44:46:709,0.19
2.083,10.293,0.18,0.185,9.774,0.776,1.513,0.493,0.086,0.302,0.995,0.259,48,-23.5,-21.4,-25.3,37.6,-84.5,-10.7,3,1000,61.09,,,,NaN,,,,,0 / 0,29935,2018-08-27 12:44:46:809,0.19
1.147,9.867,2.995,0.448,9.736,1.085,0.55,0.066,1.968,-0.276,0.437,0.236,48,-21,-21.2,-28.4,16.5,-83.7,-21.6,3,1000,61.09,,,,NaN,,,,,0 / 0,30035,2018-08-27 12:44:46:909,0.19
2.205,9.445,1.374,0.714,9.695,1.289,1.477,-0.214,0.092,0.138,-0.485,-0.058,33,-20.9,-19.4,-30.3,9.8,-81.7,-25.2,3,1000,63.56,,,,NaN,,,,,0 / 0,30135,2018-08-27 12:44:47:009,0.19
2.193,9.544,2.028,1.045,9.679,1.183,1.148,-0.135,0.845,-0.168,-1.383,0.022,36,-23.3,-21.5,-28.5,358.8,-80.9,-40.5,3,1000,63.56,,,,NaN,,,,,0 / 0,30236,2018-08-27 12:44:47:110,0.19
1.628,9.213,2.229,1.356,9.645,1.145,0.023,-0.192,1.271,-0.08,-2.673,0.022,36,-27.4,-20.7,-25.3,359.3,-79.8,-47.9,3,1000,63.56,,,,NaN,,,,,0 / 0,30335,2018-08-27 12:44:47:209,0.19
2.397,10.959,2.253,1.651,9.61,1.043,0.427,0.826,1.316,-0.036,-3.043,-0.216,75,-33.7,-20.5,-17.5,3.9,-78.7,-55.1,3,1000,63.56,,,,NaN,,,,,0 / 0,30435,2018-08-27 12:44:47:309,0.19
2.052,8.006,3.85,1.924,9.556,1.07,0.128,-1.55,2.78,-0.251,-2.59,-0.034,75,-37.2,-20.2,-5.2,20.9,-77.6,-61.2,3,1000,58.8,,,,NaN,,,,,0 / 0,30536,2018-08-27 12:44:47:410,0.19
2.442,9.551,1.271,1.965,9.552,1.037,0.461,-0.001,0.235,-0.538,-3.11,-0.193,31,-36.4,-21.2,3.8,33.4,-77.2,-62.6,3,1000,58.8,,,,NaN,,,,,0 / 0,30635,2018-08-27 12:44:47:509,0.19
1.3,9.761,2.476,2.077,9.514,1.16,-0.777,0.248,1.315,-0.756,-2.198,-0.143,31,-33.7,-22.7,12.2,52.9,-76.5,-62.5,3,1000,58.8,,,,NaN,,,,,0 / 0,30735,2018-08-27 12:44:47:609,0.19
2.43,9.544,2.358,2.093,9.481,1.38,0.156,0.135,1.076,-0.243,-1.646,-0.625,35,-29,-23.3,17.6,75,-75,-57.4,3,1000,55.27,,,,NaN,,,,,0 / 0,30835,2018-08-27 12:44:47:709,0.19
0.017,9.886,0.946,1.664,9.588,1.215,-1.643,0.291,-0.31,-0.116,-1.562,-0.471,35,-24.6,-25.1,20.9,85.3,-77.4,-54.6,3,1000,55.27,,,,NaN,,,,,0 / 0,30935,2018-08-27 12:44:47:809,0.19
0.927,9.524,-0.019,1.412,9.641,1.106,-0.5,-0.007,-1.166,0.014,-1.274,-0.24,48,-19.6,-26.5,22.7,95.3,-79.1,-51.5,3,1000,55.27,,,,NaN,,,,,0 / 0,31035,2018-08-27 12:44:47:909,0.19
0.996,10.226,0.804,1.37,9.677,0.808,-0.47,0.604,0.176,0.47,-0.47,0.112,37,-16.1,-27.4,26.4,100.6,-80.4,-56.2,3,1000,57.95,,,,NaN,,,,,0 / 0,31135,2018-08-27 12:44:48:009,0.19
1.429,10.858,-0.273,1.577,9.659,0.624,-0.154,1.197,-0.883,-0.438,-0.804,0.327,37,-15.2,-25.8,27.8,90.5,-80.7,-67.3,3,1000,57.95,,,,NaN,,,,,0 / 0,31236,2018-08-27 12:44:48:110,0.19
1.264,9.307,2.033,1.8,9.591,0.97,-0.428,-0.359,1.228,-0.497,-0.918,0.104,35,-13.8,-26.4,27.2,99.3,-78.3,-63.1,3,1000,57.95,,,,NaN,,,,,0 / 0,31335,2018-08-27 12:44:48:209,0.19
0.845,9.623,1.161,1.583,9.628,0.981,-0.707,-0.03,0.205,0.074,-0.857,-0.358,35,-12,-26.8,27.1,107.8,-78.6,-58.4,3,1000,56.2,,,,NaN,,,,,0 / 0,31435,2018-08-27 12:44:48:309,0.19
0.577,9.438,1.621,1.328,9.672,0.924,-0.798,-0.22,0.596,0.119,-1.016,-0.394,37,-7.4,-27.7,28.8,118.6,-80.1,-55.7,3,1000,56.2,,,,NaN,,,,,0 / 0,31535,2018-08-27 12:44:48:409,0.19
0.239,9.558,0.273,1.076,9.719,0.746,-0.87,-0.269,-0.504,0.132,-0.901,-0.149,37,-4.3,-27,28.4,123,-82,-55,3,1000,56.2,,,,NaN,,,,,0 / 0,31636,2018-08-27 12:44:48:510,0.19
0.223,10.372,0.745,0.981,9.743,0.527,-0.756,0.629,0.268,-0.118,-0.981,0.058,30,-1.6,-27.2,28.8,121.7,-83.2,-59.5,3,1000,59.04,,,,NaN,,,,,0 / 0,31735,2018-08-27 12:44:48:609,0.19
1.286,10.401,2.258,1.085,9.726,0.624,0.224,0.603,1.653,-0.336,-0.993,0.113,30,2,-27.2,28.7,127.5,-83.1,-61.6,3,1000,59.04,,,,NaN,,,,,0 / 0,31835,2018-08-27 12:44:48:709,0.19
1.432,8.821,2.339,1.164,9.701,0.84,0.45,-0.758,1.204,0.201,-1.15,-0.105,30,3.8,-28.5,27.1,136.5,-81.8,-55,3,1000,59.04,,,,NaN,,,,,0 / 0,31935,2018-08-27 12:44:48:809,0.19
0.773,9.632,1.274,1.131,9.706,0.826,-0.358,-0.074,0.448,-0.102,-0.54,-0.105,33,8.2,-28,26.6,141.5,-81.8,-55.5,3,1000,59.04,,,,NaN,,,,,0 / 0,32036,2018-08-27 12:44:48:910,0.19
1.283,8.981,1.784,1.145,9.684,1.039,0.148,-0.725,0.62,-0.232,-0.318,-0.104,33,8.6,-28.4,26,153.5,-81.2,-49.3,3,1000,60.33,,,,NaN,,,,,0 / 0,32135,2018-08-27 12:44:49:009,0.19
1.111,9.589,1.544,1.003,9.693,1.096,0.149,-0.064,-0.018,-0.075,0.084,-0.173,33,10.6,-27.7,25.1,159.5,-81.1,-44.6,3,1000,60.33,,,,NaN,,,,,0 / 0,32235,2018-08-27 12:44:49:109,0.19
0.733,9.951,0.934,0.795,9.715,1.077,-0.055,0.25,-0.153,0.14,0.473,-0.159,33,10.4,-28.3,25.4,166.3,-81.9,-37.3,3,1000,60.33,,,,NaN,,,,,0 / 0,32335,2018-08-27 12:44:49:209,0.19
0.539,10.475,-0.388,0.621,9.742,0.937,-0.076,0.692,-1.28,0.035,0.902,0.05,33,9.4,-27.8,27.2,166.4,-83.1,-33.5,3,1000,59.74,,,,NaN,,,,,0 / 0,32436,2018-08-27 12:44:49:310,0.19
-0.328,9.663,1.951,0.537,9.724,1.149,-1.095,-0.135,1.274,0.025,0.975,0.093,33,6.5,-28.1,27.2,167.5,-82.9,-28.5,3,1000,59.74,,,,NaN,,,,,0 / 0,32535,2018-08-27 12:44:49:409,0.19
-0.771,9.848,3.263,0.334,9.701,1.398,-1.043,0.168,1.856,0.033,0.964,-0.036,32,3.5,-28.9,27.9,173.1,-81.7,-16,3,1000,59.74,,,,NaN,,,,,0 / 0,32635,2018-08-27 12:44:49:509,0.19
-0.005,8.955,1.616,0.126,9.693,1.482,0.013,-0.719,0.07,0.037,0.547,0.083,32,1.8,-28,28.6,177.7,-81.4,-6.6,3,1000,58.55,,,,NaN,,,,,0 / 0,32735,2018-08-27 12:44:49:609,0.19
-0.285,10.046,3.33,0.027,9.676,1.593,-0.312,0.37,1.737,0.021,0.357,-0.181,31,-0.2,-28.4,28.3,177.9,-80.7,-2.4,3,1000,58.55,,,,NaN,,,,,0 / 0,32836,2018-08-27 12:44:49:710,0.19
-0.443,9.996,1.611,-0.079,9.7,1.44,-0.333,0.31,0.291,0.43,-0.109,0.005,33,-0.9,-27.1,29.5,180.2,-81.1,2.2,3,1000,58.55,,,,NaN,,,,,0 / 0,32935,2018-08-27 12:44:49:809,0.19
0.175,8.95,1.393,0.084,9.723,1.277,0.069,-0.761,0.153,0.03,-0.514,0.201,33,0.7,-26.9,29.2,179.2,-82.4,1.1,3,1000,53,,,,NaN,,,,,0 / 0,33035,2018-08-27 12:44:49:909,0.19
-0.084,10.288,0.144,0.223,9.728,1.222,-0.263,0.563,-1.169,-0.31,-0.767,0.049,34,0.7,-27.5,29.7,173,-82.9,-9.7,3,1000,53,,,,NaN,,,,,0 / 0,33135,2018-08-27 12:44:50:009,0.19
-0.065,9.821,2.162,0.357,9.676,1.553,-0.371,0.035,0.42,-0.63,-0.72,-0.083,34,2.3,-27.5,28.3,173.6,-81.6,-13.3,3,1000,53,,,,NaN,,,,,0 / 0,33236,2018-08-27 12:44:50:110,0.19
0.314,10.434,0.893,0.54,9.618,1.838,-0.095,0.972,-1.22,-0.518,0.405,0.071,34,3.7,-28.4,26.5,173.8,-79,-16.1,3,1000,53,,,,NaN,,,,,0 / 0,33335,2018-08-27 12:44:50:209,0.19
1.219,9.57,1.235,0.573,9.61,1.866,0.596,0.108,-0.801,-0.252,-0.051,0.113,34,3.6,-30.5,25.3,173.7,-78.7,-16.3,3,1000,56.29,,,,NaN,,,,,0 / 0,33435,2018-08-27 12:44:50:309,0.19
1.372,9.608,1.223,0.629,9.624,1.775,0.793,-0.157,-0.467,0.175,0.012,-0.009,39,3.3,-29.6,25,170.3,-78.6,-18.6,3,1000,56.29,,,,NaN,,,,,0 / 0,33535,2018-08-27 12:44:50:409,0.19
1.279,9.635,1.836,1.017,9.616,1.635,0.243,0.06,0.218,-0.022,0.131,-0.034,39,2.8,-29.8,25.7,160.5,-78.8,-30.5,3,1000,56.29,,,,NaN,,,,,0 / 0,33635,2018-08-27 12:44:50:509,0.19
1.226,9.319,1.635,1.029,9.606,1.682,0.148,-0.221,0.037,-0.132,0.03,0.072,41,3.1,-30.7,26.5,159.2,-78.6,-31.8,3,1000,54.36,,,,NaN,,,,,0 / 0,33735,2018-08-27 12:44:50:609,0.19
0.898,8.878,2.181,0.975,9.59,1.802,-0.116,-0.717,0.151,-0.118,0.096,-0.033,43,2,-30.8,26.3,159.2,-78.2,-29.8,3,1000,54.36,,,,NaN,,,,,0 / 0,33835,2018-08-27 12:44:50:709,0.19
2.131,11.069,-0.678,1.01,9.582,1.824,1.136,1.321,-2.71,-0.357,0.013,0.134,43,2.2,-30.5,25.9,161.4,-77.7,-27.3,3,1000,54.36,,,,NaN,,,,,0 / 0,33935,2018-08-27 12:44:50:809,0.19
-1.202,10.152,4.147,0.962,9.491,2.273,-2.171,0.697,1.73,0.013,0.33,-0.039,42,2,-31.1,23.6,164.7,-75.6,-24.5,3,1000,56.57,,,,NaN,,,,,0 / 0,34036,2018-08-27 12:44:50:910,0.19
1.743,9.611,-0.297,0.757,9.526,2.202,0.981,0.094,-2.707,-0.192,0.216,-0.109,42,1,-32.7,25.1,166.1,-76,-20,3,1000,56.57,,,,NaN,,,,,0 / 0,34135,2018-08-27 12:44:51:009,0.19
-1.173,11.107,2.643,0.418,9.565,2.121,-1.419,1.441,0.36,0.225,0.272,0.037,43,1.1,-33.1,24.2,173.1,-77.3,-11.2,3,1000,56.57,,,,NaN,,,,,0 / 0,34235,2018-08-27 12:44:51:109,0.19
1.07,9.615,0.247,0.435,9.64,1.748,0.626,-0.072,-1.443,0.213,0.298,0.148,43,0.4,-32,26.2,169.5,-79,-12.9,3,1000,54.16,,,,NaN,,,,,0 / 0,34335,2018-08-27 12:44:51:209,0.19
0.347,8.983,1.583,0.524,9.678,1.494,-0.085,-0.58,-0.082,0.077,0.03,0.113,44,-0.9,-31.8,26.9,164.5,-80.1,-16.3,3,1000,54.16,,,,NaN,,,,,0 / 0,34435,2018-08-27 12:44:51:309,0.19
0.711,9.122,-0.077,0.601,9.69,1.381,0.127,-0.659,-1.465,0,-0.004,0.012,44,-1.1,-31.5,26.2,158.4,-81.1,-23.1,3,1000,54.16,,,,NaN,,,,,0 / 0,34536,2018-08-27 12:44:51:410,0.19
0.464,9.879,1.504,0.653,9.702,1.273,-0.198,0.167,0.267,-0.187,0.006,0.062,45,-1.4,-31.3,25.6,153.4,-81.7,-26.4,3,1000,60.58,,,,NaN,,,,,0 / 0,34635,2018-08-27 12:44:51:509,0.19
0.745,10.152,1.532,0.734,9.685,1.353,-0.015,0.44,0.174,0.046,-0.186,0.123,42,-1.7,-31.1,26,154.9,-81.2,-27.1,3,1000,60.58,,,,NaN,,,,,0 / 0,34735,2018-08-27 12:44:51:609,0.19
1.484,10.568,1.551,0.854,9.689,1.251,0.262,0.724,0.904,0.158,-0.458,0.094,42,-0.8,-30.4,25.2,149.9,-81,-30.8,3,1000,60.58,,,,NaN,,,,,0 / 0,34835,2018-08-27 12:44:51:709,0.19
1.599,10.178,1.238,0.929,9.695,1.151,0.357,0.586,0.513,0.027,-0.664,0.112,39,0.1,-31.6,22.6,148.5,-81.3,-37.6,3,1000,60.58,,,,NaN,,,,,0 / 0,34936,2018-08-27 12:44:51:810,0.19
1.147,9.649,1.774,0.927,9.684,1.237,-0.39,-0.222,1.914,0.402,-0.517,-0.22,39,1.4,-30.9,25.1,147.4,-80.7,-38.2,3,1000,54.63,,,,NaN,,,,,0 / 0,35035,2018-08-27 12:44:51:909,0.19
0.536,9.503,2.303,0.795,9.704,1.172,-0.237,-0.184,1.213,0.074,-0.24,-0.133,39,2.3,-30.8,24.8,153.6,-81.6,-35.3,3,1000,54.63,,,,NaN,,,,,0 / 0,35135,2018-08-27 12:44:52:009,0.19
1.003,9.225,1.578,0.835,9.705,1.137,0.168,-0.48,0.441,-0.04,-0.183,0.126,39,4.1,-30.1,25.2,157.4,-81.9,-34.7,3,1000,54.63,,,,NaN,,,,,0 / 0,35236,2018-08-27 12:44:52:110,0.19
0.733,9.24,1.123,0.859,9.705,1.117,-0.189,-0.401,-0.02,0.024,0.052,0,38,3.3,-30.1,25.8,153.1,-81.7,-37.6,3,1000,57.71,,,,NaN,,,,,0 / 0,35335,2018-08-27 12:44:52:209,0.19
0.833,10.556,0.321,0.794,9.722,1.009,-0.152,0.954,-0.532,0.118,0.384,-0.194,38,3.4,-30.1,25.2,153.4,-81.8,-37.2,3,1000,57.71,,,,NaN,,,,,0 / 0,35435,2018-08-27 12:44:52:309,0.19
1.295,10.432,0.967,0.714,9.74,0.886,0.529,0.962,0.32,0.027,-0.04,-0.041,35,3.4,-29.4,26.5,153.1,-83,-38.1,3,1000,57.71,,,,NaN,,,,,0 / 0,35535,2018-08-27 12:44:52:409,0.19
0.125,10.317,1.638,0.595,9.754,0.827,-0.47,0.563,0.811,-0.044,0.162,-0.042,34,3.5,-28.8,27.9,151.6,-84,-37.3,3,1000,61.04,,,,NaN,,,,,0 / 0,35636,2018-08-27 12:44:52:510,0.19
0.488,9.608,0.8,0.496,9.76,0.82,-0.082,-0.173,0.223,0.236,-0.092,0.105,34,2.6,-28.9,26.8,156.3,-84.2,-32.4,3,1000,61.04,,,,NaN,,,,,0 / 0,35735,2018-08-27 12:44:52:609,0.19
0.23,9.084,2.433,0.588,9.729,1.084,-0.363,-0.652,1.363,-0.229,-0.202,0.046,33,3.4,-27.6,27.4,159,-83.1,-29.7,3,1000,61.04,,,,NaN,,,,,0 / 0,35835,2018-08-27 12:44:52:709,0.19
0.623,9.194,0.091,0.514,9.732,1.096,0.108,-0.538,-1.005,0.063,-0.382,-0.23,33,3.8,-29,26.5,162,-82.7,-26.7,3,1000,61.04,,,,NaN,,,,,0 / 0,35935,2018-08-27 12:44:52:809,0.19
-0.773,10.58,3.467,0.311,9.734,1.149,-1.132,0.944,2.385,-0.051,-0.429,0.044,32,5.2,-28.7,27.7,172.6,-83.1,-18.8,3,1000,61,,,,NaN,,,,,0 / 0,36035,2018-08-27 12:44:52:909,0.19
0.476,10.214,1.245,0.382,9.706,1.346,0.344,0.45,-0.601,0.014,-0.826,0.078,32,6.5,-28.6,26.2,180.3,-81.9,-14.7,3,1000,61,,,,NaN,,,,,0 / 0,36135,2018-08-27 12:44:53:009,0.19
-0.39,9.22,3.656,0.438,9.66,1.632,-0.948,-0.279,1.82,-0.06,-0.605,-0.136,34,8.1,-29.5,26.2,181.3,-80.2,-15.6,3,1000,61,,,,NaN,,,,,0 / 0,36235,2018-08-27 12:44:53:109,0.19
0.967,9.591,1.068,0.57,9.673,1.508,0.584,-0.158,-0.459,0.101,-0.114,0.005,34,9.2,-29.5,25,180.9,-80.4,-18.8,3,1000,60.78,,,,NaN,,,,,0 / 0,36335,2018-08-27 12:44:53:209,0.19
1.226,9.321,1.238,0.776,9.653,1.548,0.465,-0.332,-0.216,-0.132,0.332,0.196,35,9.4,-29.5,25.8,178,-80.5,-24.1,3,1000,60.78,,,,NaN,,,,,0 / 0,36436,2018-08-27 12:44:53:310,0.19
1.132,9.596,2.054,0.813,9.636,1.627,0.288,-0.031,0.504,-0.022,0.732,0.04,35,7.8,-29.7,25,172.1,-79.4,-27.1,3,1000,60.78,,,,NaN,,,,,0 / 0,36536,2018-08-27 12:44:53:410,0.19
0.658,9.888,1.425,0.718,9.65,1.592,-0.081,0.289,-0.204,0.096,1.04,0.117,35,6.1,-29.5,25.9,170.3,-79.7,-24.5,3,1000,59.08,,,,NaN,,,,,0 / 0,36635,2018-08-27 12:44:53:509,0.19
-1.662,9.199,2.993,0.602,9.615,1.831,-2.295,-0.364,1.469,-0.361,1.318,0.24,34,3.1,-29.5,24.8,169.7,-79.5,-21.4,3,1000,59.08,,,,NaN,,,,,0 / 0,36735,2018-08-27 12:44:53:609,0.19
-0.541,10.243,2.782,0.457,9.598,1.958,-0.747,0.57,0.559,0.055,1.528,0.094,34,-0.8,-30.1,24.4,167.6,-78.2,-15.4,3,1000,59.08,,,,NaN,,,,,0 / 0,36836,2018-08-27 12:44:53:710,0.19
-0.831,9.381,1.154,0.217,9.633,1.823,-1.125,-0.257,-0.688,0.275,1.825,0.309,35,-6,-29.9,26.4,162.7,-78.9,-7.7,3,1000,57.75,,,,NaN,,,,,0 / 0,36936,2018-08-27 12:44:53:810,0.19
-0.407,9.398,2.514,0.175,9.622,1.885,-0.632,-0.177,0.693,0.106,1.741,0.32,35,-11.5,-28.9,24.2,156.8,-78.9,-5.8,3,1000,57.75,,,,NaN,,,,,0 / 0,37035,2018-08-27 12:44:53:909,0.19
0.225,9.735,2.665,0.114,9.649,1.746,0.111,0.086,0.919,0.294,1.687,0.284,45,-16.6,-28.2,23,149,-79.3,-4.3,3,1000,57.75,,,,NaN,,,,,0 / 0,37135,2018-08-27 12:44:54:009,0.19
-0.335,10.262,1.676,0.106,9.673,1.608,-0.41,0.55,0.066,0.104,1.522,0.353,45,-19.7,-27.8,20.9,138.8,-80.4,-3.4,3,1000,57.75,,,,NaN,,,,,0 / 0,37235,2018-08-27 12:44:54:109,0.19
0.053,9.575,1.994,0.073,9.689,1.51,-0.021,-0.115,0.485,0.333,1.415,0.11,42,-24.3,-26.9,17.9,128.6,-80.7,-4.5,3,1000,55.15,,,,NaN,,,,,0 / 0,37335,2018-08-27 12:44:54:209,0.19
0.919,9.211,4.154,0.037,9.676,1.595,0.949,-0.333,2.293,0.061,1.149,0.102,36,-26.2,-25.6,13.9,123.3,-81.1,-1.3,3,1000,55.15,,,,NaN,,,,,0 / 0,37436,2018-08-27 12:44:54:310,0.19
1.805,9.982,-1.109,-0.053,9.732,1.208,1.858,0.25,-2.316,0.404,1.179,0.195,36,-28.8,-25.3,10.6,119.1,-82.4,3.1,3,1000,55.15,,,,NaN,,,,,0 / 0,37535,2018-08-27 12:44:54:409,0.19
-0.742,9.898,1.992,0.032,9.742,1.124,-0.803,0.187,0.885,0.079,1.905,0.363,30,-29.4,-24.7,7.6,110,-83.4,-0.5,3,1000,57.82,,,,NaN,,,,,0 / 0,37635,2018-08-27 12:44:54:509,0.19
0.335,9.163,0.512,0.179,9.748,1.055,0.151,-0.571,-0.549,0.102,2.007,0.379,30,-31.7,-24,2.4,94.5,-83.5,-5.9,3,1000,57.82,,,,NaN,,,,,0 / 0,37736,2018-08-27 12:44:54:610,0.19
0.788,9.326,2.193,0.415,9.728,1.169,0.373,-0.402,1.024,-0.174,2.034,0.454,31,-34.7,-22.1,-3,71,-83.1,-18.4,3,1000,57.82,,,,NaN,,,,,0 / 0,37835,2018-08-27 12:44:54:709,0.19
0.711,9.556,2.342,0.506,9.694,1.395,0.22,-0.145,1.049,0.021,1.885,0.265,31,-34.3,-20.7,-10.1,57.9,-81.5,-20.3,3,1000,62.5,,,,NaN,,,,,0 / 0,37935,2018-08-27 12:44:54:809,0.19
1.841,9.129,2.284,0.519,9.685,1.448,1.349,-0.57,0.697,0.033,1.826,0.229,36,-30.8,-20.2,-21.2,44.7,-81.3,-19.6,3,1000,62.5,,,,NaN,,,,,0 / 0,38035,2018-08-27 12:44:54:909,0.19
0.704,11.1,1.429,0.301,9.717,1.291,0.403,1.383,0.138,0.032,2.077,0.119,36,-29.3,-19.9,-22.6,39.6,-81.7,-16,3,1000,62.5,,,,NaN,,,,,0 / 0,38136,2018-08-27 12:44:55:010,0.19
-0.658,10.073,3.199,0.184,9.698,1.447,-0.703,0.378,1.429,0.385,2.129,0.276,81,-24.1,-19.8,-29.6,33.3,-81.3,-8.1,3,1000,59.4,,,,NaN,,,,,0 / 0,38235,2018-08-27 12:44:55:109,0.19
-0.637,9.149,2.794,0.124,9.688,1.519,-0.807,-0.517,1.397,0.276,2.167,0.369,42,-17.6,-19.6,-32.8,25.6,-81.1,-5.4,3,1000,59.4,,,,NaN,,,,,0 / 0,38335,2018-08-27 12:44:55:209,0.19
-2.078,8.883,2.995,-0.109,9.671,1.624,-1.828,-0.644,1.153,-0.204,2.507,0.273,42,-9.7,-19.5,-35,19.2,-80.8,1.5,3,1000,59.4,,,,NaN,,,,,0 / 0,38436,2018-08-27 12:44:55:310,0.19
-1.535,9.716,2.751,-0.659,9.616,1.805,-0.866,0.133,1.085,-0.094,2.616,0.151,35,-1.1,-19.6,-36.5,21.4,-79.1,14.2,3,1000,59.4,,,,NaN,,,,,0 / 0,38536,2018-08-27 12:44:55:410,0.19
-0.986,9.287,3.539,-0.864,9.591,1.854,-0.123,-0.304,1.685,-0.05,2.178,0.505,35,8,-20,-35.2,14.2,-78.1,25.1,3,1000,57.58,,,,NaN,,,,,0 / 0,38635,2018-08-27 12:44:55:509,0.19
-0.283,9.529,2.322,-0.772,9.592,1.888,0.49,-0.063,0.434,-0.102,1.895,0.465,33,13.8,-20.5,-32.7,359.8,-78,22.8,3,1000,57.58,,,,NaN,,,,,0 / 0,38735,2018-08-27 12:44:55:609,0.19
0.17,9.891,2.231,-0.681,9.592,1.925,1.156,0.294,0.197,-0.207,1.443,0.393,33,19.7,-20.4,-30.2,344.7,-78.1,20.4,3,1000,57.58,,,,NaN,,,,,0 / 0,38835,2018-08-27 12:44:55:709,0.19
0.139,9.211,2.425,-0.657,9.575,2.014,0.908,-0.264,0.45,0.054,1.186,0.207,39,23.2,-21.5,-27.7,335.2,-77.4,18.2,3,1000,58.66,,,,NaN,,,,,0 / 0,38936,2018-08-27 12:44:55:810,0.19
2.581,10.283,0.438,-0.447,9.636,1.766,2.92,0.607,-1.321,0.074,1.416,0.182,39,27.2,-21.8,-23.5,321.5,-79,15.9,3,1000,58.66,,,,NaN,,,,,0 / 0,39035,2018-08-27 12:44:55:909,0.19
0.239,9.8,3.551,-0.183,9.609,1.95,0.423,0.191,1.6,-0.258,1.41,0.481,37,30.1,-22,-18.9,306,-79.1,8.9,3,1000,58.66,,,,NaN,,,,,0 / 0,39135,2018-08-27 12:44:56:009,0.19
1.733,9.017,2.428,0.129,9.557,2.197,1.563,-0.477,0.178,0.062,1.366,0.289,37,32.2,-23.4,-13.8,282.7,-77.2,-2.3,3,1000,54.64,,,,NaN,,,,,0 / 0,39236,2018-08-27 12:44:56:110,0.19
0.797,9.328,3.587,0.247,9.519,2.343,0.658,-0.22,0.918,-0.215,1.597,0.368,37,33.1,-24.2,-9.1,270,-76.5,-5.6,3,1000,54.64,,,,NaN,,,,,0 / 0,39335,2018-08-27 12:44:56:209,0.19
1.492,9.182,2.969,0.285,9.481,2.491,1.237,-0.284,0.614,-0.126,1.953,0.413,38,32.5,-25.7,-2.2,261.9,-75.7,-6.5,3,1000,54.64,,,,NaN,,,,,0 / 0,39435,2018-08-27 12:44:56:309,0.19
-2.5,9.718,3.821,-0.032,9.435,2.673,-2.568,0.271,1.251,-0.297,2.385,0.298,38,32.6,-27.3,4.4,250.6,-74.5,-1,3,1000,53.44,,,,NaN,,,,,0 / 0,39535,2018-08-27 12:44:56:409,0.19
-0.225,8.854,1.279,-0.25,9.403,2.774,0.08,-0.132,-1.761,-0.463,2.336,0.529,40,29.3,-28.2,10.8,241.9,-73.5,5.1,3,1000,53.44,,,,NaN,,,,,0 / 0,39635,2018-08-27 12:44:56:509,0.19
-0.869,8.952,3.232,-0.607,9.299,3.054,-0.262,-0.392,0.25,-0.316,2.01,0.525,40,24.6,-30.1,15.8,235.9,-72,9.8,3,1000,53.44,,,,NaN,,,,,0 / 0,39736,2018-08-27 12:44:56:610,0.19
-0.419,9.254,2.028,-0.882,9.254,3.123,0.492,0.043,-1.207,0.002,1.742,0.216,37,19.4,-30.4,18.7,226.5,-70.7,13.3,3,1000,56.55,,,,NaN,,,,,0 / 0,39835,2018-08-27 12:44:56:709,0.19
-0.685,9.745,3.407,-1.151,9.225,3.123,0.399,0.499,0.389,-0.286,1.617,0.229,37,15.7,-30.7,21.1,224.1,-70.6,18.4,3,1000,56.55,,,,NaN,,,,,0 / 0,39935,2018-08-27 12:44:56:809,0.19
0.045,9.587,2.229,-1.2,9.229,3.091,1.176,0.434,-1.046,-0.16,1.126,0.396,38,12.7,-31.6,21.7,217.9,-70.1,21.2,3,1000,56.55,,,,NaN,,,,,0 / 0,40035,2018-08-27 12:44:56:909,0.19
0.603,9.472,1.999,-0.897,9.299,2.983,1.467,0.372,-1.012,-0.072,0.654,0.404,37,8.4,-32.2,22.9,209.8,-71,18.9,3,1000,56.55,,,,NaN,,,,,0 / 0,40136,2018-08-27 12:44:57:010,0.19
-0.239,9.826,3.29,-0.565,9.343,2.926,0.474,0.399,0.144,0.051,0.171,0.397,37,6.4,-32.9,22.4,200.5,-72.1,13.7,3,1000,54.06,,,,NaN,,,,,0 / 0,40235,2018-08-27 12:44:57:109,0.19
0.048,10.451,1.614,-0.322,9.465,2.547,0.416,0.948,-0.998,0.326,0.058,0.19,35,4.9,-33.2,23.2,195,-74.2,7.9,3,1000,54.06,,,,NaN,,,,,0 / 0,40335,2018-08-27 12:44:57:209,0.19
0.184,10.497,1.472,-0.05,9.569,2.147,0.234,0.928,-0.674,0.353,-0.271,0.247,35,4.3,-32.1,24.1,189.7,-76.8,2.9,3,1000,54.06,,,,NaN,,,,,0 / 0,40435,2018-08-27 12:44:57:309,0.19
0.445,10.485,1.944,0.261,9.626,1.857,0.193,1.122,0.379,0.192,-0.497,0.159,34,3.8,-31.3,24.5,182.6,-78.7,-6.3,3,1000,58.02,,,,NaN,,,,,0 / 0,40536,2018-08-27 12:44:57:410,0.19
-0.572,9.168,3.797,0.423,9.644,1.727,-1.093,-0.67,2.135,0.488,-0.531,-0.003,34,6,-30.4,24.4,180.6,-79.3,-13.3,3,1000,58.02,,,,NaN,,,,,0 / 0,40635,2018-08-27 12:44:57:509,0.19
2.035,9.575,0.625,0.46,9.705,1.332,1.458,-0.063,-0.604,0.289,-0.076,-0.146,33,7.8,-29.5,24.8,179.6,-81,-16.8,3,1000,58.02,,,,NaN,,,,,0 / 0,40735,2018-08-27 12:44:57:609,0.19
0.464,9.046,2.65,0.529,9.699,1.349,0,-0.656,1.62,-0.176,-0.125,0.098,33,8.3,-28.4,25.7,176.4,-81.8,-21.2,3,1000,59.66,,,,NaN,,,,,0 / 0,40835,2018-08-27 12:44:57:709,0.19
1.135,8.888,0.661,0.593,9.694,1.358,0.544,-0.811,-0.69,0.017,-0.12,0.016,34,7.7,-29.7,25.6,176.1,-81.4,-22.2,3,1000,59.66,,,,NaN,,,,,0 / 0,40935,2018-08-27 12:44:57:809,0.19
0.929,9.726,0.872,0.576,9.706,1.278,0.346,0.034,-0.416,-0.046,0.154,0.022,35,7.7,-28.4,25.9,172.2,-81.5,-24,3,1000,59.66,,,,NaN,,,,,0 / 0,41035,2018-08-27 12:44:57:909,0.19
0.34,9.9,1.535,0.567,9.715,1.209,-0.222,0.185,0.317,0.254,0.341,0.026,35,8.3,-28.6,23.9,174.6,-82,-24.6,3,1000,60.96,,,,NaN,,,,,0 / 0,41135,2018-08-27 12:44:58:009,0.19
-0.151,10.324,1.408,0.492,9.748,0.954,-0.851,0.698,0.909,0.002,0.438,-0.006,33,7.1,-28.4,26,169.9,-83.5,-27.7,3,1000,60.96,,,,NaN,,,,,0 / 0,41235,2018-08-27 12:44:58:109,0.19
-0.512,9.048,2.753,0.487,9.731,1.112,-0.942,-0.765,1.548,-0.028,0.377,0.071,33,4.7,-28.3,27.5,166.4,-83,-25.2,3,1000,60.96,,,,NaN,,,,,0 / 0,41336,2018-08-27 12:44:58:210,0.19
-0.093,9.706,0.929,0.281,9.735,1.152,-0.353,-0.059,-0.242,-0.061,0.366,-0.039,32,5,-28,28.6,173.4,-83.1,-17.4,3,1000,60.96,,,,NaN,,,,,0 / 0,41435,2018-08-27 12:44:58:309,0.19
0.419,8.976,1.477,0.214,9.694,1.465,0.255,-0.718,0.129,-0.259,0.027,-0.075,32,3.5,-28.4,27.8,175.6,-82.3,-11.4,3,1000,63.07,,,,NaN,,,,,0 / 0,41535,2018-08-27 12:44:58:409,0.19
-0.558,10.19,2.349,-0.04,9.679,1.578,-0.621,0.653,0.821,-0.005,-0.459,-0.048,33,3.7,-28.9,27.9,187.4,-80.7,0.4,3,1000,63.07,,,,NaN,,,,,0 / 0,41635,2018-08-27 12:44:58:509,0.19
-0.939,9.745,1.362,-0.001,9.667,1.65,-0.964,0.104,-0.235,-0.075,-0.661,0.061,33,5.2,-28.3,27.2,190.1,-80.4,1.2,3,1000,63.07,,,,NaN,,,,,0 / 0,41735,2018-08-27 12:44:58:609,0.19
-0.206,9.812,1.932,0.082,9.655,1.716,-0.24,0.387,0.187,0.046,-0.848,-0.077,32,7.1,-28.6,26.4,190.7,-79.9,-2.5,3,1000,49.26,,,,NaN,,,,,0 / 0,41835,2018-08-27 12:44:58:709,0.19
1.623,9.951,0.781,0.257,9.625,1.859,1.101,0.32,-0.87,-0.375,-1.378,-0.021,34,8.8,-29.5,26,190.8,-79.3,-6.3,3,1000,49.26,,,,NaN,,,,,0 / 0,41935,2018-08-27 12:44:58:809,0.19
1.52,10.228,2.667,0.501,9.565,2.106,1.041,0.671,0.791,0.044,-1.273,-0.165,34,12.9,-29.2,22.8,192.5,-77.6,-11.5,3,1000,49.26,,,,NaN,,,,,0 / 0,42036,2018-08-27 12:44:58:910,0.19
0.745,9.929,1.461,0.689,9.566,2.044,0.056,0.458,-0.469,-0.022,-0.909,0.033,40,15.2,-29.5,21.3,194.6,-77.3,-17.5,3,1000,54.47,,,,NaN,,,,,0 / 0,42135,2018-08-27 12:44:59:009,0.19
1.168,9.5,1.156,0.92,9.573,1.917,0.222,-0.07,-0.744,0.162,-0.439,0.113,40,16.6,-30.7,19.6,193.9,-77.3,-22.8,3,1000,54.47,,,,NaN,,,,,0 / 0,42235,2018-08-27 12:44:59:109,0.19
0.934,9.706,0.73,1.046,9.618,1.604,-0.072,0.101,-1.027,0.059,0.187,0.046,42,17.6,-29.3,18.8,189.4,-78.5,-32.1,3,1000,54.47,,,,NaN,,,,,0 / 0,42335,2018-08-27 12:44:59:209,0.19
1.152,9.017,1.542,0.974,9.631,1.572,0.07,-0.499,-0.234,0.225,0.481,-0.229,42,16.7,-29,19.6,188.3,-78.6,-33.4,3,1000,50.97,,,,NaN,,,,,0 / 0,42435,2018-08-27 12:44:59:309,0.19
1.255,9.438,0.18,0.755,9.681,1.369,0.5,-0.248,-1.201,0.189,0.873,-0.028,44,16.3,-28.9,21.2,186.9,-80.3,-29.3,3,1000,50.97,,,,NaN,,,,,0 / 0,42536,2018-08-27 12:44:59:410,0.19
0.685,9.105,1.633,0.828,9.68,1.335,0.123,-0.282,-0.44,-0.32,1.243,0.316,44,14.4,-29.5,23.5,179.6,-80.8,-31.8,3,1000,50.97,,,,NaN,,,,,0 / 0,42636,2018-08-27 12:44:59:510,0.19
-0.101,10.892,1.978,0.989,9.591,1.792,-1.124,1.267,0.198,-0.295,1.11,0.481,44,10.2,-30.3,23.6,174.6,-78.4,-29.2,3,1000,50.97,,,,NaN,,,,,0 / 0,42735,2018-08-27 12:44:59:609,0.19
-0.862,10.173,4.238,1.026,9.445,2.432,-1.821,0.693,1.724,-0.38,0.7,-0.295,44,7.4,-30.8,22.4,173.6,-75.8,-27.3,3,1000,59.84,,,,NaN,,,,,0 / 0,42835,2018-08-27 12:44:59:709,0.19
0.663,9.316,0.716,0.611,9.538,2.196,-0.144,-0.2,-1.504,-0.005,0.425,0.211,44,5.3,-31.4,23.6,176.8,-76.4,-15.8,3,1000,59.84,,,,NaN,,,,,0 / 0,42936,2018-08-27 12:44:59:810,0.19
1.19,9.402,2.138,0.593,9.547,2.164,0.654,-0.111,0.324,-0.291,0.442,0.132,42,3.7,-31.4,23.5,175.4,-77.1,-15.3,3,1000,59.84,,,,NaN,,,,,0 / 0,43035,2018-08-27 12:44:59:909,0.19
0.512,10.015,3.014,0.521,9.555,2.146,0.037,0.446,0.904,0.449,0.179,-0.179,42,2,-31.1,23.9,172.3,-76.3,-14.6,3,1000,61.57,,,,NaN,,,,,0 / 0,43135,2018-08-27 12:45:00:009,0.19
0.984,8.809,1.7,0.59,9.591,1.959,0.303,-0.665,-0.231,0.068,-0.234,0.1,43,2.3,-30.3,25.2,172.4,-77.8,-14,3,1000,61.57,,,,NaN,,,,,0 / 0,43235,2018-08-27 12:45:00:109,0.19
-0.323,9.41,1.52,0.595,9.598,1.92,-0.887,-0.04,-0.129,-0.117,-0.271,-0.113,43,2.6,-30.5,23.9,171.5,-78.2,-17.7,3,1000,61.57,,,,NaN,,,,,0 / 0,43335,2018-08-27 12:45:00:209,0.19
1.271,9.259,0.077,0.444,9.603,1.936,-0.049,-0.134,-1.337,-0.332,-0.184,0.126,44,4,-31.1,24.4,175.8,-78.1,-14.7,3,1000,57.87,,,,NaN,,,,,0 / 0,43435,2018-08-27 12:45:00:309,0.19
0.764,10.875,2.061,0.455,9.553,2.167,0.309,1.077,0.067,-0.365,0.263,0.122,44,2.9,-32,25,175.7,-77.1,-12.3,3,1000,57.87,,,,NaN,,,,,0 / 0,43536,2018-08-27 12:45:00:410,0.19
0.888,10.133,3.836,0.614,9.451,2.543,0.271,0.691,1.362,0.004,-0.019,0.094,45,2.7,-32.2,23.2,174,-75.1,-12.9,3,1000,57.87,,,,NaN,,,,,0 / 0,43635,2018-08-27 12:45:00:509,0.19
1.496,8.476,1.942,0.731,9.468,2.448,0.713,-0.987,-0.526,-0.047,-0.279,0.024,47,1.9,-33.7,23.8,172.7,-74.8,-14.7,3,1000,64.6,,,,NaN,,,,,0 / 0,43735,2018-08-27 12:45:00:609,0.19
2.09,10.058,1.326,0.851,9.511,2.233,1.244,0.564,-0.983,-0.287,0.002,0.065,47,2,-32.6,24.2,168.5,-76,-19.8,3,1000,64.6,,,,NaN,,,,,0 / 0,43835,2018-08-27 12:45:00:709,0.19
1.046,10.216,1.803,0.873,9.527,2.154,0.12,0.756,-0.3,0.223,-0.109,-0.064,47,1.8,-32.8,24.2,166.8,-75.9,-21.9,3,1000,64.6,,,,NaN,,,,,0 / 0,43936,2018-08-27 12:45:00:810,0.19
2.03,9.244,2.131,0.953,9.575,1.89,1.044,-0.276,0.325,0.352,-0.188,-0.094,47,2.3,-32.8,24,163.6,-77.2,-25.7,3,1000,54.26,,,,NaN,,,,,0 / 0,44039,2018-08-27 12:45:00:913,0.19
1.348,9.33,2.045,1.018,9.599,1.728,0.332,-0.269,0.321,0.062,-0.138,0.006,45,3.2,-32.2,25,161.3,-78.2,-30,3,1000,54.26,,,,NaN,,,,,0 / 0,44135,2018-08-27 12:45:01:009,0.19
1.35,9.139,0.915,1.1,9.594,1.708,0.186,-0.426,-0.612,-0.054,0.008,0.1,45,3.9,-32,25.1,161.2,-78.1,-32.3,3,1000,54.26,,,,NaN,,,,,0 / 0,44236,2018-08-27 12:45:01:110,0.19
1.281,9.606,2.421,1.202,9.583,1.7,0.199,-0.08,0.598,0.119,0.493,-0.043,44,4.1,-31.8,22.7,160,-77.9,-35.1,3,1000,54.26,,,,NaN,,,,,0 / 0,44335,2018-08-27 12:45:01:209,0.19
-0.385,9.989,4.097,1.166,9.57,1.795,-0.943,0.443,1.368,-0.299,0.81,0.192,44,0.4,-32.2,25.7,152,-77.9,-34.5,3,1000,50.04,,,,NaN,,,,,0 / 0,44435,2018-08-27 12:45:01:309,0.19
0.895,9.594,1.496,1.28,9.522,1.967,-0.877,0.414,-0.013,0.02,-0.011,0.462,42,-2.8,-31.9,25,151.6,-76.5,-31.4,3,1000,50.04,,,,NaN,,,,,0 / 0,44536,2018-08-27 12:45:01:410,0.19
-0.28,9.716,1.068,1.082,9.533,2.031,-1.443,0.221,-0.925,-0.005,0.392,-0.068,45,-4.6,-31.7,25,148.8,-76,-30.5,3,1000,50.04,,,,NaN,,,,,0 / 0,44635,2018-08-27 12:45:01:509,0.19
-0.192,9.888,1.54,0.662,9.582,1.978,-0.813,0.206,-0.365,0.397,0.506,-0.252,45,-5.9,-32.4,24.5,151.4,-76.8,-22.1,3,1000,58.33,,,,NaN,,,,,0 / 0,44736,2018-08-27 12:45:01:610,0.19
0.716,9.742,1.956,0.559,9.62,1.819,0.162,0.16,-0.011,-0.017,0.325,0.125,47,-7.1,-31.4,24.8,153.1,-78.8,-16.8,3,1000,58.33,,,,NaN,,,,,0 / 0,44835,2018-08-27 12:45:01:709,0.19
0.941,9.366,1.343,0.659,9.616,1.807,0.282,-0.25,-0.464,0.073,-0.088,0.068,47,-7.7,-30.5,23.3,151.4,-78.7,-18.4,3,1000,58.33,,,,NaN,,,,,0 / 0,44935,2018-08-27 12:45:01:809,0.19
0.656,9.917,1.161,0.73,9.625,1.73,-0.189,0.321,-0.602,-0.02,-0.362,0.197,49,-5.9,-30.7,23,148.9,-78.9,-21.1,3,1000,54.47,,,,NaN,,,,,0 / 0,45035,2018-08-27 12:45:01:909,0.19
0.608,9.443,0.642,0.985,9.61,1.685,-0.384,-0.175,-1.036,-0.036,-0.431,0.159,49,-5,-30.5,23.6,147,-78.6,-28.4,3,1000,54.47,,,,NaN,,,,,0 / 0,45136,2018-08-27 12:45:02:010,0.19
0.242,10.195,1.082,1.147,9.616,1.547,-0.915,0.591,-0.477,-0.044,-0.394,0.313,47,-4,-31,23.2,143.5,-78.7,-35,3,1000,54.47,,,,NaN,,,,,0 / 0,45236,2018-08-27 12:45:02:110,0.19
1.544,10.398,1.166,1.382,9.593,1.496,-0.011,0.88,-0.266,-0.094,-0.295,0.194,47,-2.9,-30.4,24.5,140.2,-78.1,-41.5,3,1000,55.13,,,,NaN,,,,,0 / 0,45335,2018-08-27 12:45:02:209,0.19
1.214,9.975,3.067,1.468,9.58,1.494,-0.254,0.394,1.573,0.079,-0.201,0.037,42,-2.7,-30.8,25.3,138.4,-77.6,-44.3,3,1000,55.13,,,,NaN,,,,,0 / 0,45435,2018-08-27 12:45:02:309,0.19
1.796,9.223,3.034,1.413,9.587,1.505,0.428,-0.096,1.342,0.07,0.033,-0.114,38,-0.8,-30.2,25.4,141.7,-77.7,-44.5,3,1000,55.13,,,,NaN,,,,,0 / 0,45535,2018-08-27 12:45:02:409,0.19
3.599,8.914,1.221,1.62,9.483,1.903,1.979,-0.569,-0.682,0.214,-0.031,-0.226,38,-1.3,-30,25.6,144.8,-75.1,-39.9,3,1000,55.13,,,,NaN,,,,,0 / 0,45636,2018-08-27 12:45:02:510,0.19
1.978,9.412,2.593,1.673,9.472,1.913,0.357,0.055,0.601,-0.188,0.035,0.033,35,-0.6,-30.8,26.4,145.5,-75.2,-41.4,3,1000,50.75,,,,NaN,,,,,0 / 0,45735,2018-08-27 12:45:02:609,0.19
2.48,9.17,1.319,1.77,9.441,1.975,0.726,-0.265,-0.699,0.005,-0.072,0.015,35,-0.7,-30.5,25,148.2,-74.4,-41,3,1000,50.75,,,,NaN,,,,,0 / 0,45835,2018-08-27 12:45:02:709,0.19
1.504,9.793,2.382,1.89,9.428,1.927,-0.307,0.333,0.508,0.104,0.099,-0.171,34,-0.2,-30.4,24.7,145.9,-73.8,-44.4,3,1000,50.75,,,,NaN,,,,,0 / 0,45935,2018-08-27 12:45:02:809,0.19
1.626,9.735,2.193,1.802,9.443,1.935,0.107,0.158,0.008,0.119,0.132,-0.107,34,-0.7,-30.6,25.7,145.9,-74.2,-43.7,3,1000,57.63,,,,NaN,,,,,0 / 0,46036,2018-08-27 12:45:02:910,0.19
1.939,9.347,1.475,1.72,9.48,1.829,0.229,-0.118,-0.391,0.11,0.127,-0.08,35,0.2,-30.4,25.1,146.1,-75,-43.1,3,1000,57.63,,,,NaN,,,,,0 / 0,46135,2018-08-27 12:45:03:009,0.19
1.037,10.3,0.613,1.49,9.571,1.532,-0.496,0.703,-0.854,0.382,0.368,-0.169,35,0.1,-29.5,25.9,144.7,-76,-43.9,3,1000,57.63,,,,NaN,,,,,0 / 0,46235,2018-08-27 12:45:03:109,0.19
0.168,10.171,1.298,1.339,9.623,1.329,-1.171,0.547,-0.031,0.386,0.475,0.088,35,-0.5,-28.7,27.5,142.7,-78.2,-44.2,3,1000,57.12,,,,NaN,,,,,0 / 0,46335,2018-08-27 12:45:03:209,0.19
0.247,9.558,1.982,1.379,9.616,1.345,-1.132,-0.058,0.637,0.145,0.461,0.166,35,-1.4,-28.1,28.3,138.8,-78.9,-46.2,3,1000,57.12,,,,NaN,,,,,0 / 0,46436,2018-08-27 12:45:03:310,0.19
0.333,9.359,2.82,1.327,9.607,1.451,-0.846,-0.126,1.157,-0.093,0.466,0.026,35,-2.9,-28.6,27.7,136.4,-78.8,-45,3,1000,57.12,,,,NaN,,,,,0 / 0,46535,2018-08-27 12:45:03:409,0.19
0.436,9.17,1.676,1.107,9.629,1.49,-0.628,-0.464,0.16,0.028,0.162,-0.033,35,-5,-29,27.2,139,-79,-37.6,3,1000,47.38,,,,NaN,,,,,0 / 0,46635,2018-08-27 12:45:03:509,0.19
0.148,9.948,2.263,0.954,9.641,1.523,-0.805,0.308,0.739,-0.156,0.019,-0.018,35,-4.8,-28.3,27.1,141.5,-79.5,-34.3,3,1000,47.38,,,,NaN,,,,,0 / 0,46735,2018-08-27 12:45:03:609,0.19
0.338,9.74,1.947,0.884,9.625,1.657,-0.517,0.072,0.311,0.019,-0.119,-0.036,33,-5.2,-28.8,26.8,143.1,-79.1,-30.5,3,1000,47.38,,,,NaN,,,,,0 / 0,46835,2018-08-27 12:45:03:709,0.19
0.345,9.718,2.016,0.715,9.647,1.613,-0.315,0.115,0.341,0,-0.254,0.061,33,-5.6,-29.5,27.5,148,-79.3,-25,3,1000,47.38,,,,NaN,,,,,0 / 0,46935,2018-08-27 12:45:03:809,0.19
0.771,9.939,1.549,0.72,9.648,1.602,-0.002,0.283,0.052,0.047,-0.287,0.046,34,-5,-28.4,27.6,151.1,-79.6,-23.5,3,1000,51.58,,,,NaN,,,,,0 / 0,47036,2018-08-27 12:45:03:910,0.19
0.85,9.623,0.788,0.778,9.621,1.73,0.072,0.001,-0.942,-0.262,-0.178,0.006,34,-4.1,-27.7,27.6,152,-79,-24.5,3,1000,51.58,,,,NaN,,,,,0 / 0,47136,2018-08-27 12:45:04:010,0.19
2.038,9.606,0.781,0.887,9.574,1.93,1.251,0.121,-1.19,-0.351,-0.052,0.072,35,-2.9,-28.9,26,154.5,-77.9,-24.1,3,1000,51.58,,,,NaN,,,,,0 / 0,47235,2018-08-27 12:45:04:109,0.19
1.118,10.267,2.864,0.986,9.506,2.199,0.192,0.789,0.609,-0.476,0.319,-0.022,33,-3.1,-30.3,25.1,154.2,-76.4,-25.4,3,1000,50.36,,,,NaN,,,,,0 / 0,47335,2018-08-27 12:45:04:209,0.19
2.315,9.122,1.978,1.076,9.458,2.359,1.232,-0.352,-0.374,0.146,0.165,-0.026,33,-3.3,-31,21.3,156.1,-74.7,-24,3,1000,50.36,,,,NaN,,,,,0 / 0,47435,2018-08-27 12:45:04:309,0.19
1.125,10.044,2.356,1.118,9.507,2.131,0.014,0.525,0.215,0.159,0.297,0.26,34,-4.3,-29.6,25.6,151.9,-75.7,-26.3,3,1000,50.36,,,,NaN,,,,,0 / 0,47535,2018-08-27 12:45:04:409,0.19
1.959,9.156,2.035,1.375,9.474,2.125,0.584,-0.319,-0.09,0.05,0.403,0.28,34,-6.1,-29.6,25.2,144.9,-75.4,-30.6,3,1000,48.35,,,,NaN,,,,,0 / 0,47635,2018-08-27 12:45:04:509,0.19
2.739,9.022,1.678,1.466,9.467,2.095,1.167,-0.317,-0.569,0.263,0.401,-0.027,36,-7.4,-29.6,25.2,138.7,-74.7,-34.1,3,1000,48.35,,,,NaN,,,,,0 / 0,47735,2018-08-27 12:45:04:609,0.19
1.587,9.175,2.433,1.438,9.485,2.036,0.496,0.073,0.028,-0.201,0.323,-0.088,36,-9,-28.8,26.6,135.5,-75.4,-35.7,3,1000,48.35,,,,NaN,,,,,0 / 0,47836,2018-08-27 12:45:04:710,0.19
0.539,8.847,2.682,1.298,9.459,2.239,-0.76,-0.612,0.443,-0.088,0.109,-0.128,38,-9.8,-29.6,25.7,138.5,-74.9,-32.4,3,1000,52.67,,,,NaN,,,,,0 / 0,47935,2018-08-27 12:45:04:809,0.19
1.755,11.081,0.589,1.288,9.483,2.14,0.577,1.416,-1.594,-0.159,-0.014,0.1,38,-9.5,-29.5,25.6,140.1,-75,-29.7,3,1000,52.67,,,,NaN,,,,,0 / 0,48035,2018-08-27 12:45:04:909,0.19
0.108,9.912,1.714,1.299,9.41,2.436,-1.191,0.502,-0.722,-0.101,-0.15,-0.055,39,-10.6,-29.9,23.8,137.6,-73.9,-29.1,3,1000,52.67,,,,NaN,,,,,0 / 0,48135,2018-08-27 12:45:05:009,0.19
1.824,8.883,0.783,1.095,9.492,2.208,0.71,-0.549,-1.401,0.121,0.017,-0.364,40,-10,-30.1,23.9,140.8,-74.5,-27.3,3,1000,52.67,,,,NaN,,,,,0 / 0,48236,2018-08-27 12:45:05:110,0.19
0.555,10.015,3,0.876,9.525,2.164,-0.21,0.51,0.398,-0.339,-0.194,-0.197,40,-8.4,-30.6,24.8,144.4,-76.4,-24.3,3,1000,59.72,,,,NaN,,,,,0 / 0,48335,2018-08-27 12:45:05:209,0.19
0.508,9.117,1.068,0.777,9.505,2.286,-0.239,-0.478,-1.036,-0.028,-0.576,-0.282,40,-7.7,-31.4,24.1,150.2,-75.7,-19.4,3,1000,59.72,,,,NaN,,,,,0 / 0,48435,2018-08-27 12:45:05:309,0.19
0.467,9.333,1.808,0.736,9.471,2.434,-0.291,-0.167,-0.456,-0.429,-0.627,-0.059,40,-5.5,-31.9,24.6,155.8,-75.6,-17.1,3,1000,59.72,,,,NaN,,,,,0 / 0,48535,2018-08-27 12:45:05:409,0.19
1.065,9.012,3.359,0.863,9.382,2.721,0.224,-0.377,-0.001,-0.568,-0.474,0.002,38,-4.7,-32.8,23.6,158.2,-74.1,-17,3,1000,60.65,,,,NaN,,,,,0 / 0,48636,2018-08-27 12:45:05:510,0.19
1.688,9.994,2.514,0.894,9.311,2.945,0.732,0.69,-0.323,-0.468,-0.058,-0.009,38,-2.6,-33.4,22.8,162.3,-72.2,-17.1,3,1000,60.65,,,,NaN,,,,,0 / 0,48735,2018-08-27 12:45:05:609,0.19
1.061,9.613,3.814,1.031,9.175,3.304,0.077,0.411,0.447,-0.119,-0.235,0.179,37,-3.1,-34.6,20.5,163.5,-69.8,-16.5,3,1000,60.65,,,,NaN,,,,,0 / 0,48836,2018-08-27 12:45:05:710,0.19
1.128,10.034,3.256,1.154,9.177,3.258,-0.027,0.857,-0.002,0.293,-0.038,-0.045,37,-2.2,-34.2,20.5,162.2,-69,-18.8,3,1000,59.49,,,,NaN,,,,,0 / 0,48936,2018-08-27 12:45:05:810,0.19
1.468,9.302,2.461,1.233,9.258,2.989,0.235,0.043,-0.528,0.311,0.07,0.13,37,-2.9,-34.1,20.6,159.8,-70.5,-21.7,3,1000,59.49,,,,NaN,,,,,0 / 0,49035,2018-08-27 12:45:05:909,0.19
1.355,9.304,1.841,1.261,9.354,2.662,0.197,-0.019,-0.804,0.268,0.27,0.138,35,-3.2,-34.2,22.3,157.5,-71.9,-24.2,3,1000,59.49,,,,NaN,,,,,0 / 0,49135,2018-08-27 12:45:06:009,0.19
1.8,9.563,2.088,1.25,9.409,2.464,0.608,0.11,-0.365,0.294,0.37,-0.077,35,-4.6,-32.3,23,150.9,-73.3,-26.8,3,1000,61.19,,,,NaN,,,,,0 / 0,49235,2018-08-27 12:45:06:109,0.19
1.736,9.903,1.535,1.183,9.48,2.216,0.704,0.318,-0.731,0.386,0.404,-0.154,33,-4.7,-31.7,23.7,151.8,-74.4,-27.6,3,1000,61.19,,,,NaN,,,,,0 / 0,49335,2018-08-27 12:45:06:209,0.19
1.425,9.632,2.899,1.144,9.54,1.96,0.317,0.075,0.925,0.206,0.292,0.002,33,-5.5,-31.5,24.6,146.9,-76.5,-30,3,1000,61.19,,,,NaN,,,,,0 / 0,49436,2018-08-27 12:45:06:310,0.19
0.393,9.591,3.127,1.116,9.581,1.767,-0.649,0.044,1.365,0.289,0.256,0.112,35,-6.5,-31.3,25.3,141.2,-77.6,-31.8,3,1000,61.19,,,,NaN,,,,,0 / 0,49535,2018-08-27 12:45:06:409,0.19
1.204,9.582,1.757,1.201,9.59,1.66,0.003,-0.008,0.097,-0.008,0.098,0.141,35,-7.3,-30.4,25.7,138.3,-78.1,-34.9,3,1000,60.64,,,,NaN,,,,,0 / 0,49635,2018-08-27 12:45:06:509,0.19
1.204,9.172,1.738,1.22,9.575,1.733,-0.016,-0.402,0.005,0.116,-0.124,-0.114,35,-7,-30.7,25.9,139.8,-77.5,-35.5,3,1000,60.64,,,,NaN,,,,,0 / 0,49735,2018-08-27 12:45:06:609,0.19
1.161,9.39,1.051,1.137,9.618,1.54,0.156,-0.259,-0.671,0.108,-0.254,-0.081,35,-6.7,-29.2,25.9,136.9,-78.6,-36,3,1000,60.64,,,,NaN,,,,,0 / 0,49835,2018-08-27 12:45:06:709,0.19
1.293,9.479,1.228,1.174,9.625,1.464,0.119,-0.146,-0.236,-0.128,-0.432,-0.017,35,-4.9,-30.1,26.5,136.9,-79.1,-38,3,1000,64.79,,,,NaN,,,,,0 / 0,49935,2018-08-27 12:45:06:809,0.19
0.771,11.165,1.329,1.19,9.636,1.377,-0.364,1.49,-0.094,0.093,-0.58,-0.024,35,-3.7,-28.9,25.9,139.2,-79.1,-39.5,3,1000,64.79,,,,NaN,,,,,0 / 0,50035,2018-08-27 12:45:06:909,0.19
0.474,10.681,2.399,1.341,9.647,1.143,-0.879,1.048,1.277,0.413,-0.666,0.237,31,-2.5,-29.4,26.8,136.5,-79.5,-44.8,3,1000,64.79,,,,NaN,,,,,0 / 0,50135,2018-08-27 12:45:07:009,0.19
0.907,8.667,3.132,1.559,9.625,1.048,-0.651,-0.958,2.084,-0.136,-0.506,0.13,29,-0.7,-29.2,26.5,129.8,-79.5,-56.3,3,1000,61.77,,,,NaN,,,,,0 / 0,50235,2018-08-27 12:45:07:109,0.19
3.436,6.984,4.968,1.711,9.587,1.155,1.358,-2.263,2.74,0.62,0.212,-0.395,29,-0.4,-29.8,26.3,133.7,-78,-55.7,3,1000,61.77,,,,NaN,,,,,0 / 0,50335,2018-08-27 12:45:07:209,0.19
0.496,9.979,-0.321,1.597,9.632,0.919,-1.125,0.362,-1.245,0.183,0.122,0.094,29,0.7,-27.8,27.4,128.5,-79.2,-59.9,3,1000,61.77,,,,NaN,,,,,0 / 0,50435,2018-08-27 12:45:07:309,0.19
1.573,9.431,-0.706,1.644,9.621,0.949,-0.157,-0.003,-1.888,0.302,0.414,-0.217,29,1,-27.4,26.2,131.4,-78.4,-59.3,3,1000,59.62,,,,NaN,,,,,0 / 0,50536,2018-08-27 12:45:07:410,0.19
1.614,9.745,0.256,1.507,9.649,0.889,0.057,0.117,-0.743,0.052,0.746,-0.116,24,-2.2,-26.9,29.6,125.5,-79.5,-60.3,3,1000,59.62,,,,NaN,,,,,0 / 0,50636,2018-08-27 12:45:07:510,0.19
1.59,9.287,1.056,1.411,9.649,1.04,0.141,-0.347,0.064,-0.099,1.242,-0.095,24,-4,-27.5,28.9,123.8,-79.8,-57.4,3,1000,59.62,,,,NaN,,,,,0 / 0,50736,2018-08-27 12:45:07:610,0.19
-0.172,10.149,1.559,1.175,9.649,1.295,-1.343,0.351,0.534,0.24,2.738,0.003,25,-8.2,-27.5,28.1,126.6,-79.5,-47.1,3,1000,59.62,,,,NaN,,,,,0 / 0,50836,2018-08-27 12:45:07:710,0.19
-0.603,9.764,2.028,0.803,9.682,1.336,-1.406,0.082,0.692,-0.155,2.501,0.263,25,-15.9,-26.7,25.3,120.1,-81,-34.1,3,1000,61.13,,,,NaN,,,,,0 / 0,50936,2018-08-27 12:45:07:810,0.19
-1.07,10.085,2.243,0.49,9.661,1.611,-1.659,0.548,0.968,0,2.353,0.355,32,-21,-26.3,21.1,122.2,-80.2,-19.7,3,1000,61.13,,,,NaN,,,,,0 / 0,51035,2018-08-27 12:45:07:909,0.19
0.057,9.448,2.605,0.208,9.624,1.871,-0.151,-0.176,0.734,0.316,2.286,0.238,29,-27.5,-24.1,14.6,119.5,-78.9,-9.6,3,1000,61.13,,,,NaN,,,,,0 / 0,51136,2018-08-27 12:45:08:010,0.19
0.239,9.862,1.903,0.049,9.666,1.654,-0.009,0.306,0.267,0.182,1.933,0.426,29,-29.7,-23.3,10.9,115.3,-79.7,-3.1,3,1000,63.6,,,,NaN,,,,,0 / 0,51235,2018-08-27 12:45:08:109,0.19
1.068,9.828,0.934,0.212,9.697,1.447,0.693,0.184,-0.439,0.202,1.594,0.312,33,-32.7,-22.7,3.8,95.8,-81.2,-7.1,3,1000,63.6,,,,NaN,,,,,0 / 0,51335,2018-08-27 12:45:08:209,0.19
0.508,9.378,0.883,0.366,9.7,1.393,0.129,-0.255,-0.548,-0.016,1.182,0.325,33,-33.7,-21.4,0.5,81.9,-81.6,-13.3,3,1000,63.6,,,,NaN,,,,,0 / 0,51435,2018-08-27 12:45:08:309,0.19
-0.136,9.563,3.278,0.503,9.681,1.48,-0.666,-0.042,1.745,0.039,0.927,0.316,37,-34.5,-21.1,-4,71.4,-81.2,-17.3,3,1000,62.44,,,,NaN,,,,,0 / 0,51535,2018-08-27 12:45:08:409,0.19
1.891,9.338,1.484,0.574,9.689,1.4,0.784,-0.507,0.473,0.422,1.166,0.258,37,-34.6,-19.7,-6.7,62.4,-80.9,-21.1,3,1000,62.44,,,,NaN,,,,,0 / 0,51636,2018-08-27 12:45:08:510,0.19
-0.544,10.571,3.62,0.514,9.708,1.286,-1.057,0.862,2.334,0.126,1.878,0.111,35,-34.1,-19.3,-12.4,53.2,-81.9,-24.5,3,1000,62.44,,,,NaN,,,,,0 / 0,51735,2018-08-27 12:45:08:609,0.19
2.069,8.469,2.557,0.719,9.665,1.498,1.285,-1.103,1.093,0.239,1.424,0.346,35,-33.4,-18.5,-16.8,46,-81,-23.3,3,1000,61.63,,,,NaN,,,,,0 / 0,51835,2018-08-27 12:45:08:709,0.19
1.877,9.443,1.949,0.919,9.647,1.505,0.817,-0.233,0.403,0.087,1.303,0.367,35,-30.8,-17.9,-20.5,28.3,-79.9,-30.3,3,1000,61.63,,,,NaN,,,,,0 / 0,51935,2018-08-27 12:45:08:809,0.19
2.112,9.335,1.959,1.1,9.605,1.643,1.024,-0.241,0.33,0.117,1.15,0.131,83,-28.4,-17.3,-24.5,19.7,-78.7,-33.6,3,1000,61.63,,,,NaN,,,,,0 / 0,52036,2018-08-27 12:45:08:910,0.19
2.346,9.826,0.888,1.111,9.598,1.676,1.24,0.228,-0.783,0.056,0.723,-0.054,83,-26.8,-17.2,-26.9,12.9,-78.2,-33.5,3,1000,61.89,,,,NaN,,,,,0 / 0,52136,2018-08-27 12:45:09:010,0.19
2.603,10.587,0.836,1.144,9.61,1.582,1.384,0.991,-0.633,0.287,0.321,-0.11,64,-25,-17.3,-28.6,8.1,-78,-34.6,3,1000,61.89,,,,NaN,,,,,0 / 0,52235,2018-08-27 12:45:09:109,0.19
0.333,9.982,4.238,1.215,9.581,1.705,-0.527,0.351,2.529,0.091,-0.183,-0.141,64,-24.1,-17,-29,3.3,-78.1,-36.7,3,1000,61.89,,,,NaN,,,,,0 / 0,52335,2018-08-27 12:45:09:209,0.19
2.198,9.673,2.392,1.462,9.561,1.618,0.75,0.1,0.716,-0.314,-0.998,0.198,64,-24.9,-17.7,-29.1,359.6,-77.6,-41.1,3,1000,61.89,,,,NaN,,,,,0 / 0,52435,2018-08-27 12:45:09:309,0.19
2.172,9.23,3.079,1.939,9.473,1.636,0.259,-0.25,1.379,-0.085,-1.514,0.35,64,-29,-17.6,-26.6,359.7,-75.8,-46.3,3,1000,62.84,,,,NaN,,,,,0 / 0,52536,2018-08-27 12:45:09:410,0.19
2.856,9.081,3.579,2.482,9.344,1.644,0.525,-0.301,1.9,0.032,-1.957,0.121,54,-33.2,-16,-22.8,1,-73.3,-53.5,3,1000,62.84,,,,NaN,,,,,0 / 0,52635,2018-08-27 12:45:09:509,0.19
1.884,9.151,2.713,2.9,9.251,1.48,-1.027,-0.121,1.058,-0.319,-2.892,-0.079,54,-37.7,-15.6,-14,6.2,-70.9,-61.6,3,1000,62.84,,,,NaN,,,,,0 / 0,52735,2018-08-27 12:45:09:609,0.19
1.434,9.208,2.078,2.986,9.254,1.27,-1.532,-0.053,0.739,-0.403,-2.369,-0.232,22,-39.4,-16.1,-5.8,18.3,-70.5,-66.4,3,1000,64.59,,,,NaN,,,,,0 / 0,52835,2018-08-27 12:45:09:709,0.19
3.472,8.545,0.249,3.078,9.244,1.117,0.444,-0.785,-0.868,-0.862,-2.143,-0.285,24,-38.9,-15.9,2.5,29.4,-70.7,-70.3,3,1000,64.59,,,,NaN,,,,,0 / 0,52936,2018-08-27 12:45:09:810,0.19
4.037,8.457,1.602,3.047,9.232,1.289,0.988,-0.756,0.255,-0.985,-1.572,-0.341,24,-37.3,-17.5,11,44.3,-70.6,-69,3,1000,64.59,,,,NaN,,,,,0 / 0,53035,2018-08-27 12:45:09:909,0.19
2.234,10.202,2.718,2.752,9.305,1.421,-0.532,0.821,1.472,-0.358,-1.083,-0.448,32,-33.4,-20.9,14.8,59.5,-71.3,-63.3,3,1000,64.77,,,,NaN,,,,,0 / 0,53135,2018-08-27 12:45:10:009,0.19
1.889,9.311,0.998,2.493,9.378,1.419,-0.566,-0.121,-0.493,-0.076,-1.185,-0.337,32,-30.8,-21.6,17.6,71.1,-72.7,-60.2,3,1000,64.77,,,,NaN,,,,,0 / 0,53235,2018-08-27 12:45:10:109,0.19
1.686,9.28,0.493,2.215,9.468,1.276,-0.52,-0.214,-0.819,-0.014,-0.767,-0.368,35,-26.9,-23.4,21.3,78.9,-74.5,-59.9,3,1000,64.77,,,,NaN,,,,,0 / 0,53335,2018-08-27 12:45:10:209,0.19
0.812,10.192,0.874,1.972,9.555,0.996,-1.16,0.638,-0.122,0.306,-0.35,-0.141,35,-24.5,-24,22.5,80.3,-76.3,-61.2,3,1000,60.96,,,,NaN,,,,,0 / 0,53435,2018-08-27 12:45:10:309,0.19
1.786,10.518,-0.084,1.946,9.577,0.814,-0.169,0.998,-1.238,-0.248,-0.445,0.107,37,-23.4,-24.3,23.1,77.2,-77.7,-67.1,3,1000,60.96,,,,NaN,,,,,0 / 0,53535,2018-08-27 12:45:10:409,0.19
0.498,9.692,1.197,1.833,9.588,0.943,-1.335,0.104,0.255,-0.111,-0.627,-0.194,37,-21.2,-24.5,21,79.4,-77.5,-64.8,3,1000,60.96,,,,NaN,,,,,0 / 0,53635,2018-08-27 12:45:10:509,0.19
1.559,9.278,0.333,1.608,9.638,0.836,-0.001,-0.422,-0.491,-0.13,-0.588,-0.077,39,-19.7,-25.4,25.4,88.1,-79.1,-62.6,3,1000,60.96,,,,NaN,,,,,0 / 0,53735,2018-08-27 12:45:10:609,0.19
0.903,9.687,0.745,1.479,9.659,0.832,-0.557,0.026,-0.13,-0.095,-0.741,-0.113,41,-18,-25.7,25.7,92.9,-79.9,-60.7,3,1000,60.6,,,,NaN,,,,,0 / 0,53836,2018-08-27 12:45:10:710,0.19
0.852,10.025,0.534,1.434,9.663,0.858,-0.596,0.345,-0.31,-0.077,-0.902,-0.089,41,-15.2,-26.1,26.2,99.4,-80.1,-59,3,1000,60.6,,,,NaN,,,,,0 / 0,53935,2018-08-27 12:45:10:809,0.19
0.891,10.525,0.46,1.478,9.666,0.75,-0.561,0.912,-0.333,0.054,-0.884,0.118,41,-12.4,-25.6,27.5,101.4,-80.3,-61.6,3,1000,60.6,,,,NaN,,,,,0 / 0,54035,2018-08-27 12:45:10:909,0.19
0.414,10.485,0.685,1.566,9.672,0.42,-1.25,0.839,0.363,0.204,-0.684,-0.03,41,-10.1,-26.3,29.2,96.1,-80.3,-73,3,1000,65.48,,,,NaN,,,,,0 / 0,54136,2018-08-27 12:45:11:010,0.19
2.459,9.295,0.766,1.6,9.673,0.197,0.806,-0.328,0.495,-0.165,-1.289,-0.102,33,-8.9,-25.5,29.8,88.5,-80.5,-82.8,3,1000,65.48,,,,NaN,,,,,0 / 0,54235,2018-08-27 12:45:11:109,0.19
1.803,9.879,0.405,1.457,9.698,-0.001,0.54,0.179,0.37,-0.163,-0.734,0.085,33,-5.9,-25.3,31.3,85.6,-81.5,-90.3,3,1000,65.48,,,,NaN,,,,,0 / 0,54335,2018-08-27 12:45:11:209,0.19
0.941,9.74,1.36,1.448,9.698,0.117,-0.297,-0.296,0.3,0.353,-0.457,-0.006,27,-2.9,-25,31,97.2,-81.3,-84.2,3,1000,60.25,,,,NaN,,,,,0 / 0,54435,2018-08-27 12:45:11:309,0.19
1.932,10.585,1.911,1.579,9.672,0.373,0.353,0.914,1.538,0.02,-0.767,0.159,27,-1.3,-25.6,30.8,104.8,-80.7,-78.8,3,1000,60.25,,,,NaN,,,,,0 / 0,54536,2018-08-27 12:45:11:410,0.19
1.69,9.117,-1.238,1.541,9.679,0.323,0.15,-0.562,-1.56,-0.132,-0.204,-0.187,27,1,-24.8,30.8,110.4,-80.6,-78.4,3,1000,60.25,,,,NaN,,,,,0 / 0,54635,2018-08-27 12:45:11:509,0.19
1.255,10.312,-0.505,1.263,9.724,0.125,-0.188,0.559,-1.05,0.055,0.477,-0.257,31,1.6,-25.1,31.4,107.6,-82.1,-82,3,1000,59.42,,,,NaN,,,,,0 / 0,54735,2018-08-27 12:45:11:609,0.19
1.717,10.465,0.014,1.094,9.745,0.006,0.623,0.72,0.008,0.302,0.718,0.008,31,-0.4,-24.2,31.9,99.9,-83.4,-85,3,1000,59.42,,,,NaN,,,,,0 / 0,54835,2018-08-27 12:45:11:709,0.19
0.73,8.904,-0.165,1.148,9.739,0.054,-0.417,-0.835,-0.219,0.019,0.434,0.021,34,-2.4,-24.1,31.4,93.6,-83.3,-87.9,3,1000,59.42,,,,NaN,,,,,0 / 0,54936,2018-08-27 12:45:11:810,0.19
-0.33,8.974,0.663,0.983,9.757,0.115,-1.29,-0.792,0.548,-0.171,1.035,-0.448,34,-4.4,-23.2,32.1,88.7,-83.2,-89,3,1000,60.02,,,,NaN,,,,,0 / 0,55035,2018-08-27 12:45:11:909,0.19
-0.242,10.791,0.754,0.623,9.778,0.411,-0.894,1.025,0.429,-0.558,0.902,-0.223,39,-7.8,-25,30,95.6,-85.3,-76.9,3,1000,60.02,,,,NaN,,,,,0 / 0,55135,2018-08-27 12:45:12:009,0.19
-0.515,9.934,0.656,0.385,9.762,0.849,-0.438,0.129,-0.722,-0.524,0.593,-0.475,39,-8.2,-25.4,28.9,129.5,-85.3,-38.5,3,1000,60.02,,,,NaN,,,,,0 / 0,55235,2018-08-27 12:45:12:109,0.19
-0.158,10.24,0.467,-0.18,9.758,0.956,0.101,0.492,-0.438,0.014,0.06,-0.101,39,-9,-26.9,27.2,167.8,-84.2,5.1,3,1000,60.02,,,,NaN,,,,,0 / 0,55335,2018-08-27 12:45:12:209,0.19
-0.457,9.991,0.735,-0.118,9.778,0.741,-0.28,0.12,-0.092,0.154,-0.303,0.325,39,-9.9,-26.4,28.6,174.2,-85.4,12.9,3,1000,60.06,,,,NaN,,,,,0 / 0,55436,2018-08-27 12:45:12:310,0.19
-0.024,9.726,0.419,0.239,9.783,0.639,-0.275,-0.009,-0.263,0.138,-0.673,0.294,41,-9.4,-26.2,29.2,149.6,-86,-14.8,3,1000,60.06,,,,NaN,,,,,0 / 0,55536,2018-08-27 12:45:12:410,0.19
0.347,10.154,-0.041,0.512,9.772,0.65,-0.206,0.371,-0.614,-0.413,-0.68,0.118,43,-8.6,-25.6,29.4,128.7,-85.7,-36.7,3,1000,60.06,,,,NaN,,,,,0 / 0,55635,2018-08-27 12:45:12:509,0.19
1.944,8.821,-0.73,0.677,9.745,0.868,1.123,-1.063,-1.722,-0.392,-0.511,-0.108,43,-6.9,-25.9,29.1,132.5,-84.3,-37.7,3,1000,61.52,,,,NaN,,,,,0 / 0,55735,2018-08-27 12:45:12:609,0.19
1.54,10.87,0.522,0.567,9.754,0.845,1.181,1.14,-0.766,-0.512,0.148,-0.187,41,-5.8,-27,29.1,137.1,-84.2,-34.7,3,1000,61.52,,,,NaN,,,,,0 / 0,55835,2018-08-27 12:45:12:709,0.19
1.693,9.5,1.235,0.643,9.712,1.199,1.081,-0.214,0.032,-0.257,-0.43,0.163,41,-5.9,-27.8,28.3,145,-82.8,-26.9,3,1000,61.52,,,,NaN,,,,,0 / 0,55936,2018-08-27 12:45:12:810,0.19
0.907,9.998,1.654,0.753,9.71,1.148,0.155,0.288,0.507,0.187,-0.098,0.021,34,-4.8,-28.4,27.2,143.6,-81.7,-30.9,3,1000,60.87,,,,NaN,,,,,0 / 0,56035,2018-08-27 12:45:12:909,0.19
0.685,9.46,1.731,0.935,9.701,1.087,-0.202,-0.285,0.599,0.01,-0.116,0.244,34,-4.9,-28.3,27.8,135.9,-81.8,-39.3,3,1000,60.87,,,,NaN,,,,,0 / 0,56135,2018-08-27 12:45:13:009,0.19
1.415,9.165,0.86,1.038,9.69,1.098,0.377,-0.524,-0.239,0.095,0.215,-0.18,33,-5.8,-27.5,28.2,132.4,-81.1,-43.8,3,1000,60.87,,,,NaN,,,,,0 / 0,56235,2018-08-27 12:45:13:109,0.19
1.501,9.781,1.156,0.884,9.714,1.011,0.614,0.062,0.145,0.071,0.38,-0.091,33,-5.8,-27.5,28.8,132,-82,-41.7,3,1000,61.67,,,,NaN,,,,,0 / 0,56335,2018-08-27 12:45:13:209,0.19
1.566,9.702,-0.062,0.816,9.706,1.143,0.716,-0.064,-1.289,-0.335,0.098,-0.014,34,-6.8,-27.5,28.7,133.2,-82.2,-38.1,3,1000,61.67,,,,NaN,,,,,0 / 0,56435,2018-08-27 12:45:13:309,0.19
0.093,9.955,0.383,0.744,9.675,1.418,-0.825,0.034,-0.398,-0.245,-0.115,0.04,37,-7.2,-28.5,27.5,142.1,-80.8,-29,3,1000,61.67,,,,NaN,,,,,0 / 0,56535,2018-08-27 12:45:13:409,0.19
-1.178,10.913,0.886,0.573,9.666,1.552,-1.312,1.044,-0.597,0.05,0.363,-0.213,37,-7.3,-29.3,27.2,143.6,-80.1,-25.8,3,1000,61.67,,,,NaN,,,,,0 / 0,56635,2018-08-27 12:45:13:509,0.19
0.292,9.718,1.02,0.358,9.688,1.481,-0.193,0.153,-0.928,-0.195,0.239,0.013,39,-7.8,-29.5,27.2,151.9,-81,-15.8,3,1000,61.8,,,,NaN,,,,,0 / 0,56735,2018-08-27 12:45:13:609,0.19
0.33,10.173,0.397,0.225,9.708,1.37,0.103,0.621,-1.204,0.045,0.203,-0.032,39,-6.8,-29.6,23.7,157.4,-81.6,-10,3,1000,61.8,,,,NaN,,,,,0 / 0,56836,2018-08-27 12:45:13:710,0.19
0.347,9.898,-0.031,0.155,9.739,1.14,0.221,0.169,-1.262,0.036,0.157,-0.063,40,-9.5,-29.9,26.3,156.4,-82.6,-8.1,3,1000,61.8,,,,NaN,,,,,0 / 0,56936,2018-08-27 12:45:13:810,0.19
-0.342,9.486,1.645,0.143,9.755,0.994,-0.483,-0.264,0.663,0.145,-0.054,0.07,40,-9.1,-29.5,28.4,158.6,-84,-7.6,3,1000,59.02,,,,NaN,,,,,0 / 0,57035,2018-08-27 12:45:13:909,0.19
-0.642,8.792,2.342,0.285,9.747,1.041,-0.927,-0.955,1.3,-0.017,-0.213,0.138,39,-8.5,-29.4,27.2,151.9,-84.1,-12.4,3,1000,59.02,,,,NaN,,,,,0 / 0,57135,2018-08-27 12:45:14:009,0.19
3.69,9.773,-0.632,0.478,9.75,0.938,2.702,-0.063,-1.134,-0.253,-0.247,0.209,39,-7.9,-28.7,28.1,149.5,-83.7,-17.6,3,1000,59.02,,,,NaN,,,,,0 / 0,57235,2018-08-27 12:45:14:109,0.19
0.215,10.451,1.779,0.657,9.713,1.183,-0.442,0.738,0.596,-0.329,-0.233,0.281,36,-8,-29.4,27.2,139.6,-82.3,-28.9,3,1000,60.95,,,,NaN,,,,,0 / 0,57335,2018-08-27 12:45:14:209,0.19
1.769,9.445,1.75,0.939,9.643,1.517,1.057,-0.566,0.052,-0.044,-0.027,-0.168,34,-7.3,-29.5,26.5,139.6,-80.3,-31.9,3,1000,60.95,,,,NaN,,,,,0 / 0,57436,2018-08-27 12:45:14:310,0.19
1.07,10.226,1.973,0.854,9.651,1.517,0.102,0.709,0.405,-0.1,-0.257,0.072,34,-7.1,-30.2,26.1,142.1,-79.8,-29.4,3,1000,60.95,,,,NaN,,,,,0 / 0,57536,2018-08-27 12:45:14:410,0.19
0.421,10.394,1.571,0.847,9.669,1.4,-0.39,0.692,0.212,0.651,-0.185,-0.296,34,-6.1,-30,26.5,142.8,-79.7,-30.7,3,1000,59.43,,,,NaN,,,,,0 / 0,57635,2018-08-27 12:45:14:509,0.19
1.085,10.171,-0.024,0.822,9.732,0.887,0.292,0.324,-0.937,0.259,-0.161,0.118,34,-6.1,-28.9,28.3,136.7,-82.1,-36.4,3,1000,59.43,,,,NaN,,,,,0 / 0,57736,2018-08-27 12:45:14:610,0.19
1.781,10.319,-0.302,0.848,9.749,0.645,0.677,0.432,-0.937,0.071,-0.056,0.074,35,-6.5,-28.9,28.2,125.1,-83.4,-48.3,3,1000,59.43,,,,NaN,,,,,0 / 0,57835,2018-08-27 12:45:14:709,0.19
0.055,10.233,1.022,0.838,9.751,0.623,-1.394,0.348,1.539,0.419,-0.07,0.179,35,-5.9,-28.6,28.4,121.5,-83.6,-51.8,3,1000,59.43,,,,NaN,,,,,0 / 0,57935,2018-08-27 12:45:14:809,0.19
0.237,9.874,1.882,0.992,9.733,0.67,-0.819,0.21,1.348,0.038,0.065,0.157,37,-5.7,-27.5,28.3,119.3,-83.2,-56.4,3,1000,60.2,,,,NaN,,,,,0 / 0,58036,2018-08-27 12:45:14:910,0.19
1.592,9.192,0.584,1.089,9.717,0.757,0.546,-0.575,-0.316,0.074,-0.3,-0.081,37,-5.3,-28,28.6,121,-82.4,-54.8,3,1000,60.2,,,,NaN,,,,,0 / 0,58135,2018-08-27 12:45:15:009,0.19
0.912,9.814,0.572,1.033,9.73,0.655,-0.121,0.067,-0.098,0.012,-0.529,-0.034,39,-4.9,-27.1,28.7,118.5,-82.8,-57.3,3,1000,60.2,,,,NaN,,,,,0 / 0,58235,2018-08-27 12:45:15:109,0.19
0.654,10.157,0.275,1.05,9.733,0.576,-0.416,0.34,-0.134,0.105,-0.711,-0.042,36,-2.8,-28,27.7,121,-82.8,-58.9,3,1000,61.14,,,,NaN,,,,,0 / 0,58336,2018-08-27 12:45:15:210,0.19
1.063,11.093,0.915,1.059,9.736,0.517,-0.47,0.962,0.512,0.08,-0.651,0.01,36,-0.8,-27.5,29,120.8,-83,-63,3,1000,61.14,,,,NaN,,,,,0 / 0,58435,2018-08-27 12:45:15:309,0.19
0.809,8.72,3.615,1.122,9.72,0.652,-0.365,-1,3.205,0.172,-1.12,-0.108,34,1.7,-28,28.7,125.4,-82.6,-62.3,3,1000,61.14,,,,NaN,,,,,0 / 0,58535,2018-08-27 12:45:15:409,0.19
0.986,9.498,2.65,1.013,9.725,0.749,0.359,-0.493,1.731,-0.105,-0.831,-0.421,34,4.1,-28,27.8,135.6,-82.6,-57.5,3,1000,62.84,,,,NaN,,,,,0 / 0,58635,2018-08-27 12:45:15:509,0.19
0.433,9.862,1.432,0.881,9.717,0.986,0.024,0.14,-0.071,-0.392,-0.395,-0.281,35,6.8,-27.7,27.1,149.1,-82.7,-46.9,3,1000,62.84,,,,NaN,,,,,0 / 0,58736,2018-08-27 12:45:15:610,0.19
0.611,9.522,1.293,0.764,9.707,1.164,-0.154,-0.185,0.129,0.002,-0.1,-0.018,35,8.5,-28.7,26.3,166.1,-81.9,-34.9,3,1000,62.84,,,,NaN,,,,,0 / 0,58835,2018-08-27 12:45:15:709,0.19
-0.247,10.145,0.294,0.628,9.725,1.099,-0.857,0.408,-0.541,0.32,0.726,0.068,36,10.1,-28.9,26.4,172.3,-81.8,-30.6,3,1000,59.84,,,,NaN,,,,,0 / 0,58935,2018-08-27 12:45:15:809,0.19
1.104,9.386,2.179,0.728,9.711,1.152,0.364,-0.288,0.917,-0.265,0.88,0.332,36,6.8,-28,26.5,164.3,-82.2,-32.2,3,1000,59.84,,,,NaN,,,,,0 / 0,59035,2018-08-27 12:45:15:909,0.19
0.972,10.573,0.081,0.651,9.738,0.956,0.415,0.801,-1.059,0.196,1.823,0.025,33,4.1,-27.8,28,158.6,-83.1,-34.3,3,1000,59.84,,,,NaN,,,,,0 / 0,59135,2018-08-27 12:45:16:009,0.19
-1.705,9.388,2.452,0.554,9.727,1.116,-2.692,-0.459,1.846,0.016,1.88,0.437,32,-1.7,-28.6,27,151.9,-83.3,-30.9,3,1000,59.84,,,,NaN,,,,,0 / 0,59236,2018-08-27 12:45:16:110,0.19
0.273,9.726,2.471,0.574,9.713,1.225,-0.162,-0.047,1.112,0.116,2.318,0.198,32,-8.5,-27.8,26.2,139.7,-82.1,-26.2,3,1000,62.13,,,,NaN,,,,,0 / 0,59335,2018-08-27 12:45:16:209,0.19
-1.231,10.054,2.55,0.302,9.748,1.026,-1.748,0.528,2.051,0.393,2.264,0.286,38,-14.9,-26.4,23.6,134.1,-83.2,-20.1,3,1000,62.13,,,,NaN,,,,,0 / 0,59435,2018-08-27 12:45:16:309,0.19
0.192,9.51,2.011,0.22,9.738,1.136,-0.031,-0.245,0.849,0.17,2.268,0.107,38,-21.2,-25.9,19.6,126.4,-83.3,-13.1,3,1000,62.13,,,,NaN,,,,,0 / 0,59535,2018-08-27 12:45:16:409,0.19
-0.378,10.334,1.851,0.049,9.76,0.953,-0.308,0.461,0.687,0.311,2.004,0.188,30,-25.1,-25.6,16.2,122.5,-83.7,-7.2,3,1000,61.96,,,,NaN,,,,,0 / 0,59636,2018-08-27 12:45:16:510,0.19
0.18,9.295,1.389,0.243,9.763,0.893,-0.157,-0.301,0.53,-0.052,1.608,0.581,30,-30.3,-23.8,12.9,106.1,-84.8,-10.9,3,1000,61.96,,,,NaN,,,,,0 / 0,59736,2018-08-27 12:45:16:610,0.19
0.955,9.505,0.658,0.415,9.722,1.22,0.628,-0.472,0.051,-0.073,1.257,-0.017,33,-32.2,-22.6,7.5,90.6,-83,-20,3,1000,61.96,,,,NaN,,,,,0 / 0,59836,2018-08-27 12:45:16:710,0.19
0.984,9.491,1.425,0.275,9.706,1.373,0.563,-0.074,0.035,-0.202,1.088,0.164,33,-31.8,-23.3,1.7,89.2,-82.1,-11.8,3,1000,60.89,,,,NaN,,,,,0 / 0,59935,2018-08-27 12:45:16:809,0.19
3.034,10.544,-0.213,0.303,9.726,1.214,2.52,1.11,-1.781,-0.111,1.439,0.228,37,-33.3,-22,-2.5,80.2,-82.4,-11.5,3,1000,60.89,,,,NaN,,,,,0 / 0,60035,2018-08-27 12:45:16:909,0.19
-0.247,9.886,3.532,0.426,9.708,1.322,-0.424,-0.04,1.86,0.164,1.401,0.306,38,-34.5,-21.2,-5.8,69.2,-82,-17.5,3,1000,60.89,,,,NaN,,,,,0 / 0,60135,2018-08-27 12:45:17:009,0.19
1.738,9.024,0.876,0.628,9.685,1.407,1.503,-1.168,-1.263,0.054,1.507,0.079,38,-33.9,-21.2,-10,58,-81.4,-21.9,3,1000,63.57,,,,NaN,,,,,0 / 0,60236,2018-08-27 12:45:17:110,0.19
0.57,10.401,2.373,0.616,9.693,1.357,-0.042,0.763,0.896,-0.098,1.233,0.344,67,-32,-20.2,-14.5,48,-81.3,-24.1,3,1000,63.57,,,,NaN,,,,,0 / 0,60335,2018-08-27 12:45:17:209,0.19
1.307,9.536,0.417,0.793,9.668,1.439,0.361,-0.122,-0.838,0.031,1.093,0.288,67,-31.6,-19.5,-18.8,34.5,-80.4,-28,3,1000,63.57,,,,NaN,,,,,0 / 0,60435,2018-08-27 12:45:17:309,0.19
1.384,9.817,1.925,0.845,9.662,1.449,0.816,-0.183,0.375,0.377,1.059,-0.116,99,-29.6,-19,-21.7,25.9,-79.9,-30.4,3,1000,63.57,,,,NaN,,,,,0 / 0,60535,2018-08-27 12:45:17:409,0.19
1.891,11.04,0.414,0.698,9.725,1.053,1.27,1.176,-0.775,0.287,0.836,-0.089,99,-26.3,-19.6,-25.2,18.3,-81.9,-31.6,3,1000,64.43,,,,NaN,,,,,0 / 0,60636,2018-08-27 12:45:17:510,0.19
-0.141,9.072,4.14,0.764,9.725,1.007,-0.91,-0.5,2.8,0.061,0.325,0.308,62,-24.5,-20.3,-27.2,6.8,-82.9,-36.6,3,1000,64.43,,,,NaN,,,,,0 / 0,60735,2018-08-27 12:45:17:609,0.19
2.955,9.117,0.352,1.14,9.692,0.964,1.579,-0.357,-0.516,0.175,-0.345,0.038,62,-26,-19.4,-26.8,355.9,-81.4,-47.6,3,1000,64.43,,,,NaN,,,,,0 / 0,60835,2018-08-27 12:45:17:709,0.19
1.52,10.367,1.963,1.343,9.675,0.877,0.177,0.693,1.087,-0.132,-0.999,0.274,50,-28.4,-20.5,-24.8,352.7,-81.1,-54.9,3,1000,62.68,,,,NaN,,,,,0 / 0,60935,2018-08-27 12:45:17:809,0.19
1.693,8.792,0.433,1.737,9.616,0.83,0.006,-0.843,-0.382,-0.083,-1.871,0.103,70,-31.7,-18.9,-20.5,353,-79.3,-60,3,1000,62.68,,,,NaN,,,,,0 / 0,61036,2018-08-27 12:45:17:910,0.19
2.538,9.433,0.778,1.933,9.594,0.63,0.416,-0.347,0.316,-0.326,-2.324,0.066,70,-34.7,-18.5,-15.5,352.6,-78.3,-68.6,3,1000,62.68,,,,NaN,,,,,0 / 0,61135,2018-08-27 12:45:18:009,0.19
3.113,10.348,1.987,2.241,9.516,0.771,1.03,0.664,1.372,-0.497,-2.72,-0.19,38,-38.3,-17.8,-5.9,11.5,-76.2,-71.1,3,1000,63.02,,,,NaN,,,,,0 / 0,61235,2018-08-27 12:45:18:109,0.19
2.318,6.639,5.866,2.58,9.395,1.12,-0.277,-2.358,4.233,-1.168,-3.377,0.037,38,-38.8,-18.1,1.3,23.5,-74.7,-70,3,1000,63.02,,,,NaN,,,,,0 / 0,61335,2018-08-27 12:45:18:209,0.19
3.845,9.924,0.093,2.758,9.344,1.118,1.145,0.829,-1.29,0.045,-1.271,-0.227,39,-36.6,-17.9,12,49.4,-71.8,-65.1,3,1000,63.02,,,,NaN,,,,,0 / 0,61436,2018-08-27 12:45:18:310,0.19
4.142,7.956,1.367,2.903,9.281,1.265,1.239,-1.325,0.102,-1.2,-2.35,-0.438,39,-33.4,-19.1,17.9,57.6,-71.9,-68.2,3,1000,61.18,,,,NaN,,,,,0 / 0,61535,2018-08-27 12:45:18:409,0.19
1.422,10.71,1.887,2.663,9.287,1.684,-0.896,1.286,-0.175,-1.204,-1.841,-0.747,40,-27.2,-23.9,22.1,79.5,-70.8,-62,3,1000,61.18,,,,NaN,,,,,0 / 0,61636,2018-08-27 12:45:18:510,0.19
1.784,8.895,1.669,2.524,9.253,2.046,-0.726,-0.382,-0.126,-0.101,-1.521,-0.401,40,-21.2,-27.1,23.6,99.8,-70.8,-52.2,3,1000,61.18,,,,NaN,,,,,0 / 0,61735,2018-08-27 12:45:18:609,0.19
2.464,8.43,0.606,2.455,9.308,1.874,0.012,-0.868,-1.304,-0.508,-1.235,-0.199,47,-16.3,-27.8,24.2,110.2,-71.7,-52.5,3,1000,61.18,,,,NaN,,,,,0 / 0,61835,2018-08-27 12:45:18:709,0.19
1.089,10.58,3.134,2.337,9.346,1.834,-1.001,1.227,1.181,0.211,-0.068,-0.114,48,-12.5,-28.6,25.2,116.9,-71.9,-52.1,3,1000,63.83,,,,NaN,,,,,0 / 0,61936,2018-08-27 12:45:18:810,0.19
1.659,12.39,1.204,2.478,9.322,1.768,-0.917,3.152,-0.679,-0.848,-1.411,0.589,48,-11.3,-28.7,24.7,118,-72.8,-53.8,3,1000,63.83,,,,NaN,,,,,0 / 0,62035,2018-08-27 12:45:18:909,0.19
1.171,7.587,3.122,2.797,9.151,2.144,-1.128,-1.516,1.339,0.042,-0.244,-0.391,51,-9.6,-29.6,23.1,123.7,-68.9,-53,3,1000,63.83,,,,NaN,,,,,0 / 0,62135,2018-08-27 12:45:19:009,0.19
2.047,8.368,0.17,2.317,9.305,2.056,-0.524,-0.975,-1.79,-0.16,-0.455,-0.356,51,-9.1,-29.7,26.4,125.5,-70.6,-49.5,3,1000,59.7,,,,NaN,,,,,0 / 0,62235,2018-08-27 12:45:19:109,0.19
1.621,9.793,2.514,2.016,9.336,2.224,-0.39,0.385,-0.069,-0.501,-0.111,-0.209,50,-6.8,-30.6,25.3,134.6,-72.2,-43.7,3,1000,59.7,,,,NaN,,,,,0 / 0,62335,2018-08-27 12:45:19:209,0.19
1.959,9.785,3.01,1.963,9.282,2.482,-0.005,0.503,0.527,-0.076,-0.537,-0.079,50,-5.3,-31.7,23.9,141.1,-71.5,-38.7,3,1000,59.7,,,,NaN,,,,,0 / 0,62435,2018-08-27 12:45:19:309,0.19
2.322,10.056,2.895,2.059,9.295,2.352,0.278,0.782,0.557,0.091,-0.81,-0.006,52,-2.8,-32,22.4,145.5,-71.4,-40.7,3,1000,65.64,,,,NaN,,,,,0 / 0,62535,2018-08-27 12:45:19:409,0.19
2.483,9.611,1.487,2.108,9.39,1.884,0.106,0.405,-0.079,0.474,-0.877,-0.53,52,-0.2,-32.5,23.1,147.2,-71.9,-45.9,3,1000,65.64,,,,NaN,,,,,0 / 0,62638,2018-08-27 12:45:19:512,0.19
1.93,9.833,0.869,1.895,9.522,1.382,0.164,0.096,0.157,0.217,-1.392,-0.463,44,2.6,-30.7,22.8,145.5,-74.7,-50.7,3,1000,65.64,,,,NaN,,,,,0 / 0,62737,2018-08-27 12:45:19:611,0.19
1.47,8.294,2.641,1.688,9.587,1.188,-0.227,-1.384,1.673,0.402,-0.811,-0.582,38,6.8,-29.7,23.4,149.3,-77.5,-55.1,3,1000,65.64,,,,NaN,,,,,0 / 0,62836,2018-08-27 12:45:19:710,0.19
0.891,9.965,1.36,1.225,9.685,0.929,-0.265,0.112,0.682,-0.011,-0.051,-0.203,38,9.8,-29.2,25.8,149.6,-80.4,-55.2,3,1000,64.15,,,,NaN,,,,,0 / 0,62935,2018-08-27 12:45:19:809,0.19
1.53,9.206,1.906,1.201,9.674,1.072,0.329,-0.468,0.834,-0.08,-0.133,0.125,35,10.9,-29.3,23,160.4,-80.8,-48.5,3,1000,64.15,,,,NaN,,,,,0 / 0,63036,2018-08-27 12:45:19:910,0.19
1.08,10.039,0.584,1.156,9.675,1.105,-0.007,0.393,-0.638,0.318,1.172,-0.077,35,10.3,-29.3,24.9,158.6,-80.4,-46.7,3,1000,64.15,,,,NaN,,,,,0 / 0,63135,2018-08-27 12:45:20:009,0.19
0.754,10.176,-0.129,0.941,9.724,0.848,-0.086,0.523,-0.752,0.302,0.999,-0.072,35,8.3,-28.4,26.5,153.5,-81.9,-47.2,3,1000,59.2,,,,NaN,,,,,0 / 0,63235,2018-08-27 12:45:20:109,0.19
0.35,10.219,-0.529,0.714,9.764,0.568,-0.285,0.414,-0.951,0.556,1.661,-0.223,35,5.7,-27.8,28.6,146.5,-83.4,-49,3,1000,59.2,,,,NaN,,,,,0 / 0,63335,2018-08-27 12:45:20:209,0.19
-1.525,9.345,2.299,0.472,9.782,0.512,-2.043,-0.449,1.877,0.04,1.787,0.11,31,1.1,-26.6,30.8,137,-85.9,-47.2,3,1000,59.2,,,,NaN,,,,,0 / 0,63436,2018-08-27 12:45:20:310,0.19
-1.01,9.802,1.592,0.274,9.78,0.675,-1.284,0.023,0.917,-0.101,2.053,0.207,31,-4.9,-24.9,29.9,145.2,-86,-29,3,1000,63.01,,,,NaN,,,,,0 / 0,63535,2018-08-27 12:45:20:409,0.19
-1.192,9.898,2.782,-0.012,9.762,0.937,-1.367,0.206,1.979,0.005,2.298,0.175,30,-11.6,-26.5,28.2,154,-85,-7,3,1000,63.01,,,,NaN,,,,,0 / 0,63635,2018-08-27 12:45:20:509,0.19
-0.237,10.056,1.346,-0.104,9.756,0.986,-0.148,0.292,0.371,0.101,2.082,0.307,29,-18.4,-25.9,24.5,152,-84.1,6.6,3,1000,63.01,,,,NaN,,,,,0 / 0,63735,2018-08-27 12:45:20:609,0.19
0.237,9.472,1.71,0.129,9.755,0.995,0.048,-0.197,0.722,0.089,1.631,0.494,29,-23.5,-24.8,20.2,131.9,-84.2,-4,3,1000,62.3,,,,NaN,,,,,0 / 0,63836,2018-08-27 12:45:20:710,0.19
-0.067,9.814,1.046,0.235,9.764,0.887,-0.341,0.077,0.145,0.204,1.468,0.131,32,-26.5,-23.2,17.3,111.2,-84.5,-14.6,3,1000,62.3,,,,NaN,,,,,0 / 0,63935,2018-08-27 12:45:20:809,0.19
0.18,9.855,0.517,0.15,9.764,0.904,0.108,0.144,-0.267,0.08,1.09,-0.083,32,-30.4,-23.6,14.2,108,-84.7,-13,3,1000,62.3,,,,NaN,,,,,0 / 0,64035,2018-08-27 12:45:20:909,0.19
0.093,9.951,-0.508,-0.077,9.778,0.739,0.17,0.172,-1.247,0.093,1.31,-0.025,33,-30.1,-23.3,9.6,109.1,-84.9,-2.7,3,1000,62.3,,,,NaN,,,,,0 / 0,64135,2018-08-27 12:45:21:009,0.19
3.505,10.164,0.35,0.155,9.776,0.762,3.346,0.407,-0.393,-0.779,0.45,0.4,33,-32.2,-22.6,6.7,102.5,-86.1,-2.5,3,1000,59.6,,,,NaN,,,,,0 / 0,64235,2018-08-27 12:45:21:109,0.19
-0.026,9.946,2.787,0.5,9.749,0.94,-0.526,0.197,1.847,0.634,2.361,0.211,37,-33.6,-21.6,1.7,73.5,-83.1,-24.5,3,1000,59.6,,,,NaN,,,,,0 / 0,64336,2018-08-27 12:45:21:210,0.19
2.002,8.66,0.996,0.865,9.704,1.119,1.004,-1.125,-0.303,-0.419,0.994,0.557,37,-34.6,-20.5,-3.2,54.4,-83.7,-34.1,3,1000,59.6,,,,NaN,,,,,0 / 0,64435,2018-08-27 12:45:21:309,0.19
1.348,9.745,2.026,1.062,9.656,1.346,0.313,0.07,0.66,0.141,1.749,0.152,38,-35.5,-19.1,-8.9,40.9,-79.9,-38.6,3,1000,64.75,,,,NaN,,,,,0 / 0,64535,2018-08-27 12:45:21:409,0.19
1.051,9.706,1.386,1.145,9.632,1.445,-0.079,0.134,0.025,0.091,1.415,0.346,111,-33.8,-18.3,-13.7,34.7,-79.5,-38,3,1000,64.75,,,,NaN,,,,,0 / 0,64635,2018-08-27 12:45:21:509,0.19
1.422,9.354,1.123,1.15,9.644,1.359,0.397,-0.337,-0.305,0.281,1.705,0.118,111,-30.5,-18.2,-21.5,19,-79.3,-40.2,3,1000,64.75,,,,NaN,,,,,0 / 0,64736,2018-08-27 12:45:21:610,0.19
0.828,9.718,1.753,0.927,9.679,1.279,-0.046,0.006,0.646,0.124,1.803,0.078,91,-28.4,-18.4,-26,11.2,-80.6,-36.9,3,1000,61.79,,,,NaN,,,,,0 / 0,64835,2018-08-27 12:45:21:709,0.19
1.286,10.444,0.496,0.747,9.704,1.205,0.539,0.74,-0.709,0.155,1.804,-0.155,91,-23.8,-19,-30.1,6.8,-81.1,-33.6,3,1000,61.79,,,,NaN,,,,,0 / 0,64935,2018-08-27 12:45:21:809,0.19
-0.91,9.474,1.808,0.513,9.712,1.257,-1.423,-0.238,0.551,0.104,1.431,0.308,44,-20.4,-18.9,-30.8,11.1,-81.8,-26.1,3,1000,61.79,,,,NaN,,,,,0 / 0,65035,2018-08-27 12:45:21:909,0.19
-0.407,9.718,3.153,0.628,9.663,1.553,-0.94,-0.014,1.349,0.002,2.227,0.358,44,-16,-19,-34.4,1.9,-81.2,-23.5,3,1000,61.66,,,,NaN,,,,,0 / 0,65136,2018-08-27 12:45:22:010,0.19
-0.184,8.564,3.618,0.484,9.564,2.112,-0.702,-1.002,1.551,-0.388,1.611,0.482,37,-8.1,-18.1,-38.5,356.9,-78.1,-14.3,3,1000,61.66,,,,NaN,,,,,0 / 0,65235,2018-08-27 12:45:22:109,0.19
-0.151,9.697,3.579,0.134,9.487,2.481,-0.335,0.21,1.103,0.122,2.084,0.038,37,-3.5,-17.2,-40.1,358.7,-75.3,-5.4,3,1000,61.66,,,,NaN,,,,,0 / 0,65335,2018-08-27 12:45:22:209,0.19
-1.516,10.236,3.682,-0.238,9.487,2.471,-1.287,0.779,1.181,0.171,2.041,0.429,34,5.6,-17.6,-40.4,356.8,-75.2,3,3,1000,60.01,,,,NaN,,,,,0 / 0,65435,2018-08-27 12:45:22:309,0.19
-0.421,8.797,3.639,-0.242,9.478,2.508,-0.177,-0.683,1.101,0.176,1.846,0.514,34,11.9,-18.4,-39.4,350.4,-75.2,5.8,3,1000,60.01,,,,NaN,,,,,0 / 0,65535,2018-08-27 12:45:22:409,0.19
-0.06,9.115,3.802,-0.322,9.465,2.545,0.205,-0.527,1.281,-0.023,1.49,0.273,34,18.4,-20.9,-35.1,335.6,-75,6.9,3,1000,60.01,,,,NaN,,,,,0 / 0,65635,2018-08-27 12:45:22:509,0.19
-0.103,9.254,1.82,-0.583,9.511,2.319,0.48,-0.257,-0.499,0.094,1.047,-0.065,35,23.3,-20.6,-30.5,329.6,-75.2,10.8,3,1000,58.12,,,,NaN,,,,,0 / 0,65735,2018-08-27 12:45:22:609,0.19
1.202,10.36,2.737,-0.755,9.489,2.359,1.957,0.871,0.378,0.132,1.215,-0.16,35,30.4,-19.8,-26.8,323.8,-75.2,17.1,3,1000,58.12,,,,NaN,,,,,0 / 0,65835,2018-08-27 12:45:22:709,0.19
1.911,11.009,1.173,-0.607,9.519,2.278,2.58,1.545,-1.323,0.138,0.453,0.24,36,30.4,-23,-16.1,310.8,-75.5,17.6,3,1000,58.12,,,,NaN,,,,,0 / 0,65935,2018-08-27 12:45:22:809,0.19
0.103,9.57,2.641,-0.294,9.566,2.141,0.567,0.177,0.486,0.361,1.691,0.355,36,23.3,-23.2,-14.9,299.3,-76.6,10.3,3,1000,58.12,,,,NaN,,,,,0 / 0,66035,2018-08-27 12:45:22:909,0.19
1.044,8.366,0.364,0,9.644,1.777,0.982,-1.269,-1.437,-0.034,1.244,0.585,38,25.3,-23.7,-13.9,293.4,-79.5,2.7,3,1000,61.1,,,,NaN,,,,,0 / 0,66135,2018-08-27 12:45:23:009,0.19
0.014,10.429,-0.285,0.021,9.731,1.215,-0.052,0.706,-1.409,0.121,2.426,0.183,38,27.4,-24.2,-10.9,284.7,-81.4,-2.3,3,1000,61.1,,,,NaN,,,,,0 / 0,66235,2018-08-27 12:45:23:109,0.19
0.369,9.85,2.318,0.053,9.727,1.248,0.251,0.066,0.878,0.016,2.484,0.228,37,29.4,-25.3,-4.9,270.9,-82.7,-2.6,3,1000,61.1,,,,NaN,,,,,0 / 0,66335,2018-08-27 12:45:23:209,0.19
1.223,9.532,2.538,-0.096,9.727,1.247,1.166,-0.298,1.439,0.03,2.291,0.01,37,28.7,-26.1,3.4,260.9,-82.8,3.1,3,1000,58.96,,,,NaN,,,,,0 / 0,66436,2018-08-27 12:45:23:310,0.19
-0.493,8.339,2.725,-0.264,9.707,1.367,-0.195,-1.392,1.324,0.072,2.233,0.121,37,27.1,-25.9,9.8,253.2,-82,8.5,3,1000,58.96,,,,NaN,,,,,0 / 0,66535,2018-08-27 12:45:23:409,0.19
-0.127,9.991,3.084,-0.238,9.679,1.56,0.245,0.298,1.219,-0.141,2.148,0.288,40,24.2,-26.8,15.7,238.7,-81,9.3,3,1000,58.96,,,,NaN,,,,,0 / 0,66636,2018-08-27 12:45:23:510,0.19
-0.323,10.183,3.01,-0.136,9.644,1.774,-0.134,0.642,0.874,-0.604,1.122,0.492,40,18.7,-27.2,21.2,222.4,-80.1,6.2,3,1000,59.72,,,,NaN,,,,,0 / 0,66735,2018-08-27 12:45:23:609,0.19
0.134,9.936,2.435,-0.052,9.591,2.044,0.067,0.424,0.324,0.413,0.872,-0.12,37,14.5,-28.9,22.6,206.2,-77.7,0.2,3,1000,59.72,,,,NaN,,,,,0 / 0,66835,2018-08-27 12:45:23:709,0.19
0.22,10.008,1.101,-0.127,9.636,1.817,0.347,0.372,-0.716,0.008,0.424,0.077,37,13.9,-28.5,23.9,209.5,-79.2,4.1,3,1000,59.72,,,,NaN,,,,,0 / 0,66936,2018-08-27 12:45:23:810,0.19
-0.718,9.304,1.542,-0.215,9.66,1.673,-0.503,-0.356,-0.131,0.277,0.354,-0.083,37,11.9,-27.7,25.2,207.3,-79.6,5.4,3,1000,59.72,,,,NaN,,,,,0 / 0,67035,2018-08-27 12:45:23:909,0.19
-0.486,9.941,0.941,-0.334,9.698,1.418,-0.181,0.198,-0.489,0.093,0.339,0.024,37,11.3,-26.6,26.1,211.4,-81.3,12.5,3,1000,61.32,,,,NaN,,,,,0 / 0,67135,2018-08-27 12:45:24:009,0.19
0.057,9.445,2.179,-0.231,9.693,1.469,0.358,-0.202,0.609,0.017,0.026,0.156,36,9.9,-26.8,27.3,209.8,-81.4,11.4,3,1000,61.32,,,,NaN,,,,,0 / 0,67235,2018-08-27 12:45:24:109,0.19
0.52,9.462,0.953,-0.114,9.699,1.444,0.174,-0.294,-0.249,0.036,-0.075,0.294,33,9.7,-27.2,28,204.5,-81.3,7.3,3,1000,61.32,,,,NaN,,,,,0 / 0,67335,2018-08-27 12:45:24:209,0.19
0.084,11.085,1.365,0.176,9.69,1.498,0.183,1.587,-0.565,-0.381,0.663,0.083,33,9.5,-28,26.2,191.8,-81.3,-5.6,3,1000,61.5,,,,NaN,,,,,0 / 0,67435,2018-08-27 12:45:24:309,0.19
0.546,9.615,-0.309,0.297,9.678,1.558,-0.153,0.05,-1.371,0.141,0.019,0.173,32,8.4,-28.6,25,187.8,-80.6,-8.7,3,1000,61.5,,,,NaN,,,,,0 / 0,67536,2018-08-27 12:45:24:410,0.19
0.728,9.601,1.243,0.358,9.707,1.346,0.518,-0.149,-0.185,0.108,0.546,-0.075,32,8.9,-28.7,25.3,184.3,-81.7,-14.9,3,1000,61.5,,,,NaN,,,,,0 / 0,67635,2018-08-27 12:45:24:509,0.19
0.555,9.421,0.697,0.356,9.716,1.278,0.14,-0.211,-0.627,-0.394,0.398,0.328,31,7.3,-28.4,26.5,182.9,-82.5,-13.8,3,1000,59.98,,,,NaN,,,,,0 / 0,67735,2018-08-27 12:45:24:609,0.19
1.269,8.938,0.749,0.532,9.647,1.682,0.71,-0.604,-0.985,-0.127,0.764,-0.116,31,5.3,-29.5,25.2,174,-79.9,-18.4,3,1000,59.98,,,,NaN,,,,,0 / 0,67835,2018-08-27 12:45:24:709,0.19
1.391,10.7,1.049,0.352,9.624,1.851,0.759,0.729,0.184,-0.22,0.684,-0.165,34,3.8,-30.5,25.8,176.9,-79.2,-12.4,3,1000,59.98,,,,NaN,,,,,0 / 0,67936,2018-08-27 12:45:24:810,0.19
-0.589,9.33,3.022,0.169,9.535,2.284,-1.053,-0.171,1.379,-0.296,0.486,0.002,34,0.8,-32,26.3,177.6,-76.9,-5.2,3,1000,60.21,,,,NaN,,,,,0 / 0,68035,2018-08-27 12:45:24:909,0.19
-0.491,10.894,2.382,-0.021,9.499,2.436,-0.321,1.174,-0.197,0.069,0.705,-0.366,35,1.1,-31.4,24,180.5,-75.6,-1.7,3,1000,60.21,,,,NaN,,,,,0 / 0,68135,2018-08-27 12:45:25:009,0.19
-0.244,10.027,2.136,-0.137,9.498,2.436,-0.117,0.562,-0.307,-0.155,0.024,0.248,38,-0.5,-31.7,25.3,183.3,-75.8,4.2,3,1000,60.21,,,,NaN,,,,,0 / 0,68235,2018-08-27 12:45:25:109,0.19
-0.333,9.735,1.092,-0.143,9.558,2.189,-0.156,0.136,-1.078,0.314,0.113,-0.066,38,-0.5,-31.9,24.6,182.4,-76.6,3,3,1000,60.21,,,,NaN,,,,,0 / 0,68336,2018-08-27 12:45:25:210,0.19
-0.093,9.048,0.606,-0.143,9.601,1.994,0.061,-0.512,-1.34,-0.001,-0.073,-0.048,38,-1,-30.9,25.9,181.5,-78.1,4,3,1000,60.19,,,,NaN,,,,,0 / 0,68435,2018-08-27 12:45:25:309,0.19
