sep=;
ACCELEROMETER X (m/s²);ACCELEROMETER Y (m/s²);ACCELEROMETER Z (m/s²);GRAVITY X (m/s²);GRAVITY Y (m/s²);GRAVITY Z (m/s²);LINEAR ACCELERATION X (m/s²);LINEAR ACCELERATION Y (m/s²);LINEAR ACCELERATION Z (m/s²);GYROSCOPE X (rad/s);GYROSCOPE Y (rad/s);GYROSCOPE Z (rad/s);LIGHT (lux);MAGNETIC FIELD X (μT);MAGNETIC FIELD Y (μT);MAGNETIC FIELD Z (μT);ORIENTATION Z (azimuth °);ORIENTATION X (pitch °);ORIENTATION Y (roll °);PROXIMITY (i);ATMOSPHERIC PRESSURE (hPa);SOUND LEVEL (dB);LOCATION Latitude : ;LOCATION Longitude : ;LOCATION Altitude ( m);LOCATION Altitude-google ( m);LOCATION Altitude-atmospheric pressure ( m);LOCATION Speed ( Kmh);LOCATION Accuracy ( m);LOCATION ORIENTATION (°);Satellites in range;Time since start in ms ;YYYY-MO-DD HH-MI-SS_SSS
-0.5315;10.2044;7.8843;0.3896;8.0183;5.6325;-0.2771;1.439;1.3468;1.2261;0.1814;-0.2028;4385.0;12.54;-38.82;12.96;199.66;-54.85;-3.96;8.0;996.31;58.58;23.031927;72.53537;153.98;NaN;;1.67;154.8387;158.72;7 / 7;79;2018-06-12 12:08:27:721
0.8979;10.0464;2.423;0.4135;9.1095;3.6079;0.4867;-0.1716;-0.0141;0.8529;0.0885;-0.2853;3073.0;15.72;-33.9;21.96;201.16;-68.27;-6.54;8.0;996.31;59.649;23.031927;72.53537;153.98;NaN;;1.67;154.8387;158.72;7 / 7;579;2018-06-12 12:08:28:221
0.4597;7.7;0.4118;0.3023;9.3907;2.8097;0.1072;-2.2773;-1.8687;0.2805;-0.1576;0.0165;2907.0;14.52;-33.06;25.68;198.72;-73.25;-6.14;8.0;996.31;55.581;23.031927;72.53537;153.98;NaN;;1.67;154.8387;158.72;10 / 10;1080;2018-06-12 12:08:28:722
0.3711;4.3312;-0.577;0.1879;9.6153;1.9186;0.1833;-5.284;-2.4956;0.363;0.0189;0.1032;2761.0;18.84;-30.3;26.7;205.54;-78.66;-5.59;8.0;996.28;52.233;23.031927;72.53537;153.98;NaN;;1.67;154.8387;158.72;10 / 10;1579;2018-06-12 12:08:29:221
-0.5579;7.8389;-0.5243;-0.2196;9.5263;2.3176;-0.3382;-1.6875;-2.8419;-0.3731;0.182;0.193;3732.0;14.82;-30.54;27.96;207.99;-76.27;5.41;8.0;996.28;53.169;23.031927;72.53537;153.98;NaN;;1.67;154.8387;158.72;10 / 12;2079;2018-06-12 12:08:29:721
0.1125;9.1509;4.2163;0.0268;9.5585;2.1918;0.0858;-0.4076;2.0245;0.1663;-0.3873;0.0434;3183.0;16.68;-30.72;28.14;205.82;-77.08;-0.7;8.0;996.31;54.365;23.031927;72.53537;153.98;NaN;;1.67;154.8387;158.72;10 / 12;2580;2018-06-12 12:08:30:222
2.2386;13.4965;1.3408;0.2134;9.6223;1.8803;-0.0338;3.4744;1.0384;-0.2033;0.3408;0.2034;2907.0;15.78;-30.42;28.86;199.41;-78.87;-6.47;8.0;996.29;52.131;23.031927;72.53537;153.98;NaN;;1.67;154.8387;158.72;10 / 14;3080;2018-06-12 12:08:30:722
1.8244;11.5189;1.8723;0.0658;9.6974;1.4583;0.2215;2.3985;-0.9077;-0.2491;-0.3916;0.4184;4195.0;12.36;-29.04;30.72;196.62;-81.44;-2.58;8.0;996.3;54.434;23.031927;72.53537;153.98;NaN;;1.67;154.8387;158.72;10 / 14;3580;2018-06-12 12:08:31:222
1.5802;11.2675;2.5906;0.4496;9.3338;2.9747;1.1306;1.9337;-0.3841;-0.56;0.3958;-0.0031;4018.0;12.84;-34.2;25.74;193.71;-72.13;-8.6;8.0;996.31;53.564;23.031927;72.53537;153.98;NaN;;1.67;154.8387;158.72;10 / 17;4080;2018-06-12 12:08:31:722
0.601;7.8269;3.9051;0.3083;8.7582;4.4011;0.137;-0.3566;0.2916;-0.2674;-0.0758;-0.0929;4051.0;15.12;-36.12;19.44;202.65;-64.29;-3.09;8.0;996.32;52.327;23.031927;72.53537;153.98;NaN;;1.67;154.8387;158.72;10 / 17;4579;2018-06-12 12:08:32:221
0.6297;6.3137;2.8348;0.4213;8.921;4.0508;0.2084;-2.6073;-1.216;-0.039;-0.1558;0.0098;3373.0;14.94;-35.64;19.38;201.11;-65.46;-5.94;8.0;996.32;56.294;23.031927;72.53537;153.98;NaN;;1.67;154.8387;158.72;15 / 17;5080;2018-06-12 12:08:32:722
-0.2945;6.4382;3.2849;0.4329;9.1304;3.5523;-0.9549;-2.5437;0.9537;-0.6156;0.4465;0.1588;4076.0;12.9;-35.34;22.44;196.51;-68.6;-6.95;8.0;996.32;58.117;23.031927;72.53537;153.98;NaN;;1.67;154.8387;158.72;15 / 17;5579;2018-06-12 12:08:33:221
0.9577;8.3824;3.6058;0.4721;9.1684;3.4478;1.3045;-0.075;-1.4533;-0.207;-0.6579;-0.1387;4514.0;15.24;-35.1;21.24;199.58;-69.22;-7.8;8.0;996.33;57.012;23.031927;72.53537;153.98;NaN;;1.67;154.8387;158.72;15 / 17;6080;2018-06-12 12:08:33:722
-0.3855;9.1988;2.9186;0.366;9.2177;3.3273;-1.2087;-0.0069;4.2961;0.7564;-0.2132;-0.1069;4401.0;13.98;-35.04;23.16;198.1;-70.04;-6.28;8.0;996.32;51.203;23.031927;72.53537;153.98;NaN;;1.67;154.8387;158.72;15 / 17;6580;2018-06-12 12:08:34:222
0.4956;9.6681;5.7606;0.2031;9.1828;3.4358;-0.1744;1.3807;1.9441;-0.356;-0.2994;-0.1167;5008.0;13.44;-34.98;23.28;198.61;-69.45;-3.38;8.0;996.33;50.76;23.031927;72.53537;153.98;NaN;;1.67;154.8387;158.72;15 / 17;7080;2018-06-12 12:08:34:722
1.1828;11.2315;3.273;0.0914;9.0055;3.881;0.4856;1.6346;1.6761;-0.075;0.0708;0.2505;6448.0;16.74;-35.46;20.88;206.22;-66.68;-1.35;8.0;996.34;51.967;23.031927;72.53537;153.98;NaN;;1.67;154.8387;158.72;16 / 18;7579;2018-06-12 12:08:35:221
0.4382;10.8437;4.257;0.3046;8.8647;4.1826;0.5598;0.9446;1.037;-0.2943;-0.402;-6.0E-4;6795.0;14.52;-36.6;19.38;201.81;-64.68;-4.16;8.0;996.34;52.528;23.032112;72.535286;42.29;NaN;;3.65;19.35484;;16 / 18;8081;2018-06-12 12:08:35:723
0.6824;10.1996;5.8851;0.0898;8.6348;4.6478;0.1281;2.2639;2.5877;0.0191;0.5919;0.047;9785.0;17.22;-36.42;17.88;206.78;-62.68;-1.31;8.0;996.33;52.119;23.032112;72.535286;42.29;NaN;;3.65;19.35484;;18 / 20;8579;2018-06-12 12:08:36:221
-1.0104;8.5476;3.5363;0.2737;8.5706;4.7582;-1.2841;-0.023;-1.2218;0.4442;0.2987;-0.2926;12333.0;15.0;-38.22;16.86;202.35;-60.92;-3.29;8.0;996.35;51.342;23.032112;72.535286;42.29;NaN;;3.65;19.35484;;18 / 20;9081;2018-06-12 12:08:36:723
1.688;5.0974;2.8755;0.817;8.3506;5.0764;0.871;-3.2532;-2.2009;-0.5692;0.1496;0.4276;10170.0;15.96;-38.88;15.0;200.85;-58.38;-9.14;8.0;996.37;51.219;23.032112;72.535286;42.29;NaN;;3.65;19.35484;;18 / 20;9581;2018-06-12 12:08:37:223
-0.352;6.3736;3.7542;0.3783;7.6179;6.164;-1.3097;-2.2691;2.6661;-0.4391;0.8759;-0.047;26167.0;14.82;-39.84;9.3;203.68;-50.97;-3.51;8.0;996.37;54.208;23.032112;72.535286;42.29;NaN;;3.65;19.35484;;18 / 20;10080;2018-06-12 12:08:37:722
0.2753;5.5834;8.2531;0.2481;7.2124;6.64;0.0273;-1.629;1.6131;-0.5283;0.791;0.1491;42162.0;14.34;-39.66;7.56;202.31;-47.35;-2.14;8.0;996.38;52.265;23.032112;72.535286;42.29;NaN;;3.65;19.35484;;19 / 21;10580;2018-06-12 12:08:38:222
-0.4405;6.5268;8.131;0.1942;7.1675;6.6902;-0.6348;-0.6408;1.4408;0.2591;-0.3049;-0.1625;44704.0;14.34;-40.68;8.1;201.96;-46.96;-1.66;8.0;996.38;51.404;23.032112;72.535286;42.29;NaN;;3.65;19.35484;;19 / 21;11080;2018-06-12 12:08:38:722
0.486;7.9538;9.5891;0.429;7.2232;6.619;0.0571;0.7306;2.9701;-0.4452;-0.0465;-0.1069;44785.0;14.94;-40.56;7.86;202.83;-47.44;-3.71;8.0;996.39;51.051;23.032112;72.535286;42.29;NaN;;3.65;19.35484;;19 / 21;11580;2018-06-12 12:08:39:222
0.5507;7.6689;8.3488;0.1397;7.467;6.3556;0.411;0.2018;1.9932;-0.1141;0.2541;0.4197;40574.0;17.76;-38.4;9.24;209.25;-49.59;-1.26;8.0;996.38;53.072;23.032112;72.535286;42.29;NaN;;3.65;19.35484;;19 / 21;12080;2018-06-12 12:08:39:722
0.8188;8.4255;6.6513;0.229;7.0804;6.7813;0.0081;0.7872;0.344;0.1143;0.1228;-0.0641;48198.0;14.28;-40.44;7.92;202.1;-46.22;-1.93;8.0;996.36;56.16;23.032112;72.535286;42.29;NaN;;3.65;19.35484;;19 / 21;12580;2018-06-12 12:08:40:222
0.6034;6.7016;5.921;-0.0189;7.3023;6.5457;0.493;-0.7971;-1.5297;-0.1031;0.0042;0.0;54204.0;16.68;-38.94;7.86;208.05;-48.13;0.17;8.0;996.35;61.722;23.032112;72.535286;42.29;NaN;;3.65;19.35484;;19 / 21;13079;2018-06-12 12:08:40:721
0.0646;6.4454;3.3759;-0.0022;7.1842;6.6752;0.0668;-0.7388;-3.2993;0.1412;0.2889;-0.0147;50759.0;15.06;-40.2;7.68;204.39;-47.1;0.02;8.0;996.35;66.558;23.032112;72.535286;42.29;NaN;;3.65;19.35484;;19 / 22;13579;2018-06-12 12:08:41:221
-0.5842;5.1621;5.5523;-0.2854;7.389;6.4414;-0.2988;-2.227;-0.889;0.1418;0.0085;0.0147;58180.0;16.32;-39.72;9.18;206.4;-48.94;1.6;8.0;996.34;70.014;23.032112;72.535286;42.29;NaN;;3.65;19.35484;;19 / 22;14080;2018-06-12 12:08:41:722
-1.0894;6.9697;6.0743;-0.1717;7.3658;6.472;-0.9225;-0.42;1.3166;0.2988;-0.1155;-0.0409;46617.0;13.98;-39.84;9.72;202.97;-48.69;1.52;8.0;996.34;52.207;23.032112;72.535286;42.29;NaN;;3.65;19.35484;;18 / 22;14581;2018-06-12 12:08:42:223
0.4094;6.9075;6.8692;0.1012;7.4361;6.3926;0.696;0.1083;-1.2784;0.4289;-0.5663;-0.5492;50005.0;15.66;-40.38;9.18;205.64;-48.55;-0.2;8.0;996.34;52.513;23.032112;72.535286;42.29;NaN;;3.65;19.35484;;18 / 22;15080;2018-06-12 12:08:42:722
1.3695;9.0839;7.7982;0.1685;7.249;6.6026;1.1436;1.4901;0.7981;-0.4641;-0.1815;-0.1765;53545.0;14.76;-39.84;9.06;203.55;-47.66;-1.46;8.0;996.35;53.055;23.032112;72.535286;42.29;NaN;;3.65;19.35484;;19 / 22;15580;2018-06-12 12:08:43:222
-0.3951;9.7519;7.6042;-0.0469;7.432;6.3979;-0.9371;2.1858;2.3484;0.3147;-0.0849;-0.3512;48585.0;16.32;-39.6;9.36;206.08;-49.28;0.42;8.0;996.37;59.874;23.032112;72.535286;42.29;NaN;;3.65;19.35484;;19 / 22;16079;2018-06-12 12:08:43:721
0.4477;8.0735;7.2762;-0.1616;7.5327;6.2771;-0.0084;0.7994;-0.0305;-0.0878;0.2449;0.3665;47312.0;18.06;-38.82;9.78;209.47;-50.19;1.48;8.0;996.39;56.491;23.032112;72.535286;42.29;NaN;;3.65;19.35484;;19 / 22;16579;2018-06-12 12:08:44:221
0.4166;5.8684;4.8029;-0.0605;7.3632;6.4769;0.9918;-2.2778;-2.6508;-0.2149;0.1844;0.1796;46468.0;15.66;-40.32;9.36;205.94;-48.66;0.53;8.0;996.38;63.064;23.032112;72.535286;42.29;NaN;;3.65;19.35484;;19 / 22;17080;2018-06-12 12:08:44:722
-0.6584;5.3177;3.4358;-0.4317;7.6167;6.162;-0.2267;-2.299;-2.7262;0.0227;-0.019;0.0305;47875.0;17.94;-38.64;11.4;210.25;-50.96;4.01;8.0;996.38;65.14;23.032112;72.535286;42.29;NaN;;3.65;19.35484;;18 / 22;17579;2018-06-12 12:08:45:221
-1.2666;6.3113;3.7638;-0.2302;8.007;5.6573;-1.0364;-1.6957;-1.8935;-0.5503;0.2724;0.4551;36333.0;16.5;-38.88;13.26;208.75;-54.54;3.45;8.0;996.39;61.138;23.032112;72.535286;42.29;NaN;;3.65;19.35484;;18 / 22;18080;2018-06-12 12:08:45:722
0.6105;8.2531;3.2802;-0.1929;8.0679;5.5716;0.8035;0.1852;-2.2914;0.1394;-0.5394;-0.4148;27552.998;15.24;-39.18;13.74;204.96;-55.36;1.98;8.0;996.38;62.308;23.032112;72.535286;42.29;NaN;;3.65;19.35484;;17 / 22;18579;2018-06-12 12:08:46:221
-1.6928;8.6577;9.8093;-0.3585;7.833;5.8894;0.0927;2.1391;1.8273;-0.1104;0.1484;-0.0751;34047.0;15.96;-38.52;12.0;207.37;-53.01;3.48;8.0;996.36;66.764;23.032045;72.535255;35.49;NaN;;4.12;19.35484;207.67;17 / 22;19079;2018-06-12 12:08:46:721
0.3998;8.933;7.0847;-0.2349;7.9025;5.8022;0.108;0.9395;3.1069;-0.5252;-0.3678;-0.157;31388.998;15.72;-39.18;13.2;207.03;-53.52;3.46;8.0;996.37;53.73;23.032045;72.535255;35.49;NaN;;4.12;19.35484;207.67;18 / 22;19579;2018-06-12 12:08:47:221
-0.6656;9.2299;8.6625;-0.4357;7.9289;5.7543;-0.6417;1.7032;2.6089;0.1669;0.2388;0.1051;28952.0;16.8;-38.34;13.5;208.7;-54.11;3.8;8.0;996.37;54.567;23.032045;72.535255;35.49;NaN;;4.12;19.35484;207.67;18 / 22;20080;2018-06-12 12:08:47:722
-0.3759;8.3895;6.5938;-0.4359;7.7024;6.0542;0.06;0.6872;0.5396;-0.1056;-0.1576;0.1008;29792.998;17.4;-38.52;12.84;208.2;-51.76;4.12;8.0;996.38;50.43;23.032045;72.535255;35.49;NaN;;4.12;19.35484;207.67;17 / 22;20580;2018-06-12 12:08:48:222
0.0263;7.0966;3.1197;-0.4043;7.8382;5.8796;0.6509;-1.5939;-2.8652;0.1962;0.127;-0.0941;25756.0;19.5;-37.68;11.94;213.57;-53.06;3.93;8.0;996.41;60.941;23.032045;72.535255;35.49;NaN;;4.12;19.35484;207.67;17 / 22;21080;2018-06-12 12:08:48:722
-0.4262;6.3113;2.4254;-0.3286;7.7477;6.0029;-0.5548;-1.8937;-1.5903;0.1522;-0.1387;0.0299;26704.0;18.96;-37.92;11.1;212.14;-52.19;3.13;8.0;996.41;61.815;23.032045;72.535255;35.49;NaN;;4.12;19.35484;207.67;18 / 22;21580;2018-06-12 12:08:49:222
-1.1708;6.5962;6.1365;-0.4221;7.8603;5.8487;-0.7535;-1.4485;-1.3714;0.2836;0.1228;-0.0702;25176.0;21.18;-37.08;11.04;215.63;-53.63;2.7;8.0;996.41;57.723;23.032045;72.535255;35.49;NaN;;4.12;19.35484;207.67;18 / 22;22080;2018-06-12 12:08:49:722
-1.913;7.0871;8.4925;-0.6608;7.8892;5.7875;-0.4358;-0.6537;-0.2615;0.4094;-0.2987;0.0202;22733.0;19.02;-38.88;12.48;212.46;-53.15;5.41;8.0;996.42;57.653;23.032045;72.535255;35.49;NaN;;4.12;19.35484;207.67;18 / 21;22580;2018-06-12 12:08:50:222
0.2346;6.5699;5.5427;-0.7381;7.9405;5.7073;-0.2101;-1.1073;1.8394;-0.0988;-0.3543;0.1118;24490.0;16.44;-39.06;14.64;208.14;-54.07;7.37;8.0;996.38;69.529;23.032045;72.535255;35.49;NaN;;4.12;19.35484;207.67;18 / 21;23080;2018-06-12 12:08:50:722
-0.316;8.9043;7.0966;-0.7488;8.0225;5.5901;-0.3262;1.1285;2.7539;0.0905;-0.3788;0.529;21525.0;16.86;-39.24;15.42;209.91;-54.89;7.63;8.0;996.35;72.197;23.032045;72.535255;35.49;NaN;;4.12;19.35484;207.67;18 / 22;23579;2018-06-12 12:08:51:221
0.7207;9.8093;7.1709;-0.5289;8.0746;5.5401;0.2727;1.5983;0.8;0.0221;-0.4606;0.0672;16920.0;17.52;-38.1;14.1;211.32;-55.42;5.45;8.0;996.34;50.656;23.032045;72.535255;35.49;NaN;;4.12;19.35484;207.67;18 / 22;24079;2018-06-12 12:08:51:721
0.7255;8.8899;4.8747;-0.2599;8.396;5.0606;0.9854;0.4939;-0.1858;0.0117;0.1331;0.0525;14292.0;21.78;-36.96;15.84;215.6;-58.89;2.94;8.0;996.37;61.407;23.032045;72.535255;35.49;NaN;;4.12;19.35484;207.67;18 / 22;24581;2018-06-12 12:08:52:223
0.3663;7.2403;2.6074;0.0089;8.4782;4.9286;0.3574;-1.2379;-2.3212;-0.1831;0.0623;0.0305;14450.0;18.12;-36.66;15.3;209.64;-59.83;-0.1;8.0;996.38;55.203;23.032045;72.535255;35.49;NaN;;4.12;19.35484;207.67;18 / 22;25079;2018-06-12 12:08:52:721
-0.3807;5.8325;3.6728;0.1805;8.4207;5.0229;-0.5612;-2.5883;-1.35;0.0545;-0.1332;-0.0171;15064.0;22.32;-36.12;13.38;215.27;-59.45;-2.44;8.0;996.39;64.202;23.032045;72.535255;35.49;NaN;;4.12;19.35484;207.67;19 / 22;25579;2018-06-12 12:08:53:221
-0.2275;5.5715;5.3344;0.4016;8.4528;4.9556;-0.7918;-2.0865;-0.6938;-0.3578;0.3439;0.2462;16787.0;19.86;-37.26;14.22;210.3;-59.54;-4.63;8.0;996.39;54.471;23.032045;72.535255;35.49;NaN;;4.12;19.35484;207.67;19 / 22;26079;2018-06-12 12:08:53:721
1.2091;7.4582;2.6361;0.3137;8.353;5.1283;0.905;-1.4455;-0.8449;0.3636;-0.7141;-0.2297;15752.0;20.1;-37.86;14.28;210.18;-58.4;-3.5;8.0;996.4;66.938;23.032045;72.535255;35.49;NaN;;4.12;19.35484;207.67;19 / 22;26579;2018-06-12 12:08:54:221
0.1125;10.6593;2.9162;-0.1605;8.5781;4.7498;1.02;0.5178;0.7067;0.2842;-0.1161;-0.1588;13701.0;18.9;-36.96;17.28;211.26;-61.01;1.94;8.0;996.41;57.972;23.032045;72.535255;35.49;NaN;;4.12;19.35484;207.67;19 / 22;27079;2018-06-12 12:08:54:721
-1.5204;12.2084;4.1684;-0.4243;8.6057;4.6832;-1.0961;3.6027;-0.5148;0.3068;-0.201;-0.1949;14276.0;20.22;-36.9;16.2;212.71;-58.85;2.32;8.0;996.46;65.638;23.032045;72.535255;35.49;NaN;;4.12;19.35484;207.67;19 / 23;27580;2018-06-12 12:08:55:222
0.261;10.1541;5.9043;-0.1203;8.6416;4.6344;0.3813;1.5125;1.2699;-0.1502;0.4764;-0.0617;11156.0;19.14;-37.02;18.84;209.97;-61.79;1.49;8.0;996.47;52.924;23.032045;72.535255;35.49;NaN;;4.12;19.35484;207.67;19 / 23;28080;2018-06-12 12:08:55:722
-0.7997;8.6792;5.1166;-0.0658;8.3328;5.1701;-0.3724;-0.2809;-0.3743;0.0496;0.0568;-0.0073;11469.0;14.88;-39.3;18.0;203.1;-58.18;0.73;8.0;996.48;50.195;23.03197;72.53522;33.39;NaN;;3.93;12.903226;217.3;19 / 23;28580;2018-06-12 12:08:56:222
0.498;6.1796;3.5818;-0.0325;8.3168;5.1961;0.1714;-2.7046;-0.5704;-0.3065;-0.6219;0.0318;11202.0;17.76;-37.74;15.9;208.3;-58.0;0.36;8.0;996.46;53.143;23.03197;72.53522;33.39;NaN;;3.93;12.903226;217.3;19 / 23;29080;2018-06-12 12:08:56:722
-0.5507;5.5906;5.2626;-0.5419;8.5745;4.728;-1.6776;-0.6974;-0.0855;-0.2363;0.5852;0.4056;14893.0;17.1;-37.5;19.44;210.18;-60.97;6.54;8.0;996.48;57.88;23.03197;72.53522;33.39;NaN;;3.93;12.903226;217.3;20 / 23;29581;2018-06-12 12:08:57:223
-0.419;8.4302;4.0798;-0.4151;8.6328;4.6338;-0.0039;-0.2026;-0.554;-0.2827;0.2681;-0.1924;12876.0;18.84;-37.74;19.26;211.85;-61.68;5.12;8.0;996.46;51.578;23.03197;72.53522;33.39;NaN;;3.93;12.903226;217.3;20 / 23;30080;2018-06-12 12:08:57:722
-0.6129;9.048;6.4382;-0.0074;8.5254;4.8464;1.3003;0.4315;-2.1983;-0.4397;0.6133;-0.1295;13456.0;18.06;-37.92;17.88;210.0;-60.72;3.84;8.0;996.46;55.896;23.03197;72.53522;33.39;NaN;;3.93;12.903226;217.3;20 / 23;30580;2018-06-12 12:08:58:222
-0.1461;11.0185;5.0088;-0.2167;8.4792;4.922;0.5351;1.979;0.0629;0.5865;-0.1949;-0.4276;15109.0;19.14;-37.5;17.76;210.62;-59.84;2.52;8.0;996.47;51.688;23.03197;72.53522;33.39;NaN;;3.93;12.903226;217.3;20 / 23;31081;2018-06-12 12:08:58:723
-1.0008;11.3537;6.1796;-0.5105;8.4913;4.8792;0.137;2.247;1.5494;0.319;0.3836;-0.1649;13646.0;21.42;-36.78;16.5;215.93;-59.98;5.97;8.0;996.47;52.119;23.03197;72.53522;33.39;NaN;;3.93;12.903226;217.3;20 / 23;31581;2018-06-12 12:08:59:223
-0.6129;8.7463;5.3632;-0.2326;8.5394;4.8161;0.0722;-0.3821;-0.425;-0.4733;-0.0275;-0.0812;12071.0;20.34;-36.12;17.46;213.31;-60.55;2.77;8.0;996.46;50.663;23.03197;72.53522;33.39;NaN;;3.93;12.903226;217.3;20 / 23;32080;2018-06-12 12:08:59:722
-0.1844;6.3568;3.249;-0.1888;8.3539;5.1329;-0.1967;-1.863;-2.516;-0.2332;-0.1039;0.1118;12791.0;24.06;-35.94;14.34;219.21;-58.41;2.11;8.0;996.44;52.089;23.03197;72.53522;33.39;NaN;;3.93;12.903226;217.3;19 / 22;32580;2018-06-12 12:09:00:222
-1.3983;6.7255;5.957;-0.1461;8.5467;4.8066;-1.2714;-1.1938;0.3363;-0.2699;0.6548;0.2107;11726.0;21.06;-36.06;16.32;214.68;-60.64;1.74;8.0;996.45;51.126;23.03197;72.53522;33.39;NaN;;3.93;12.903226;217.3;19 / 22;33080;2018-06-12 12:09:00:722
0.6919;7.5611;4.1158;-0.0584;8.7107;4.5046;1.1263;-0.8981;-1.4207;-0.196;-0.3323;-0.0678;9020.0;21.84;-36.0;16.68;215.3;-62.65;0.74;8.0;996.43;53.75;23.03197;72.53522;33.39;NaN;;3.93;12.903226;217.3;20 / 23;33580;2018-06-12 12:09:01:222
0.1868;9.7902;6.5651;-0.1679;8.5583;4.7851;0.3547;1.2319;1.78;-0.2815;0.2327;-0.0177;8657.0;20.28;-36.48;16.74;212.92;-60.77;2.01;8.0;996.4;67.864;23.03197;72.53522;33.39;NaN;;3.93;12.903226;217.3;20 / 23;34080;2018-06-12 12:09:01:722
-0.0431;10.2619;5.0136;-0.0912;8.4972;4.8949;-0.177;1.5396;1.2584;0.6708;-0.1393;-0.2144;8901.0;18.96;-37.08;15.72;211.07;-60.05;1.07;8.0;996.4;64.42;23.03197;72.53522;33.39;NaN;;3.93;12.903226;217.3;19 / 22;34579;2018-06-12 12:09:02:221
-0.1077;9.0073;5.6744;-0.3805;8.4991;4.8776;-0.175;0.2711;-1.0731;-0.155;0.5821;0.361;7067.0;20.58;-36.0;14.46;217.56;-60.07;4.46;8.0;996.44;57.749;23.03197;72.53522;33.39;NaN;;3.93;12.903226;217.3;19 / 22;35079;2018-06-12 12:09:02:721
-0.1389;7.6234;4.1708;-0.3343;8.4063;5.039;-0.293;0.6033;-0.284;0.096;0.1502;-0.2492;8270.0;16.32;-37.26;16.14;207.41;-59.49;2.21;8.0;996.42;50.43;23.03197;72.53522;33.39;NaN;;3.93;12.903226;217.3;18 / 22;35579;2018-06-12 12:09:03:221
-1.1636;6.4071;2.0256;-0.5712;8.6381;4.6073;-0.6259;-2.492;-2.5626;0.3104;-0.0232;-0.0751;7674.0;22.26;-35.04;14.88;219.25;-60.14;5.47;8.0;996.42;51.738;23.03197;72.53522;33.39;NaN;;3.93;12.903226;217.3;18 / 22;36080;2018-06-12 12:09:03:722
-1.1564;6.8548;5.4039;-0.2364;8.7408;4.4399;-1.0398;-1.1294;-0.3409;-0.5704;0.3036;0.3757;6211.0;19.98;-35.28;15.78;215.53;-63.04;3.05;8.0;996.42;51.037;23.03197;72.53522;33.39;NaN;;3.93;12.903226;217.3;19 / 22;36579;2018-06-12 12:09:04:221
-0.316;8.9354;5.0519;-0.036;8.6497;4.6208;-0.3111;0.2451;2.6482;0.4277;-0.2713;-0.2688;6124.0;18.18;-36.48;15.72;210.35;-61.89;0.45;8.0;996.41;50.423;23.03197;72.53522;33.39;NaN;;3.93;12.903226;217.3;19 / 22;37082;2018-06-12 12:09:04:724
1.6042;9.8141;4.9561;-0.0457;8.6075;4.6988;0.1032;1.8579;1.2797;-0.287;-0.1747;0.3012;6442.0;16.14;-36.96;16.26;207.05;-61.37;0.56;8.0;996.42;51.386;23.03197;72.53522;33.39;NaN;;3.93;12.903226;217.3;18 / 23;37579;2018-06-12 12:09:05:221
0.5124;10.0296;5.2291;-0.3099;8.4496;4.9677;0.8223;1.58;0.2614;0.3495;-0.2584;-0.3476;5471.0;14.34;-37.2;16.38;205.22;-59.5;3.57;8.0;996.43;50.829;23.03197;72.53522;33.39;NaN;;3.93;12.903226;217.3;18 / 23;38079;2018-06-12 12:09:05:721
-0.7662;9.036;4.7191;-0.4682;8.6423;4.611;-0.2979;0.3937;0.1081;-0.163;0.2443;0.3818;4590.0;19.44;-35.22;16.68;214.72;-61.8;5.8;8.0;996.43;50.499;23.03197;72.53522;33.39;NaN;;3.93;12.903226;217.3;17 / 20;38579;2018-06-12 12:09:06:221
0.2179;7.3648;3.7231;-0.0863;8.4664;4.9481;0.3042;-1.1016;-1.225;-0.0451;0.5546;-0.0354;3856.0;14.94;-38.1;15.66;205.0;-59.69;1.0;8.0;996.44;47.796;23.03197;72.53522;33.39;NaN;;3.93;12.903226;217.3;17 / 20;39080;2018-06-12 12:09:06:722
-1.1277;6.9218;4.4486;-0.2171;8.695;4.5298;-0.9106;-1.7732;-0.0813;0.3764;0.1716;-0.1032;3659.0;18.54;-35.88;16.38;213.34;-62.46;2.74;8.0;996.44;48.417;23.0319;72.53517;27.18;NaN;;3.57;9.677419;194.31;19 / 22;39579;2018-06-12 12:09:07:221
0.4932;7.6066;2.1141;-0.3579;8.8018;4.3093;-0.0922;-0.6134;0.2948;0.0673;-0.0605;0.2627;3160.0;16.2;-36.54;18.78;208.61;-63.84;4.75;8.0;996.44;47.828;23.0319;72.53517;27.18;NaN;;3.57;9.677419;194.31;19 / 22;40080;2018-06-12 12:09:07:722
0.5076;9.3712;6.2227;-0.272;8.6761;4.5631;0.8849;1.3033;0.3978;-0.2198;-0.4728;0.0696;2623.0;14.58;-38.04;18.84;205.54;-62.22;3.41;8.0;996.44;50.692;23.0319;72.53517;27.18;NaN;;3.57;9.677419;194.31;19 / 23;40581;2018-06-12 12:09:08:223
-0.486;10.5611;7.4246;-0.2391;8.6302;4.6511;-0.2469;1.931;2.7735;-0.2308;0.1918;0.245;2260.0;16.74;-36.48;17.34;209.72;-61.65;2.94;8.0;996.45;47.632;23.0319;72.53517;27.18;NaN;;3.57;9.677419;194.31;19 / 23;41081;2018-06-12 12:09:08:723
-0.486;9.1916;6.1724;0.0393;8.3835;5.0878;-0.2524;0.8704;1.7622;-0.2436;0.1215;0.1142;2064.0;12.48;-38.64;16.2;199.15;-59.84;-1.15;8.0;996.44;48.237;23.0319;72.53517;27.18;NaN;;3.57;9.677419;194.31;18 / 21;41580;2018-06-12 12:09:09:222
0.3256;5.7319;2.7031;0.0696;8.6294;4.6582;0.256;-2.8975;-1.9551;-0.3377;-0.1008;0.3641;1597.0;16.2;-35.88;17.7;205.38;-61.64;-0.86;8.0;996.46;47.346;23.0319;72.53517;27.18;NaN;;3.57;9.677419;194.31;18 / 21;42080;2018-06-12 12:09:09:722
-0.7829;6.8883;5.4685;0.2051;8.5087;4.8714;-0.0207;-0.4783;-4.0597;0.2255;0.2871;0.1564;1641.0;9.96;-37.74;18.78;194.43;-60.19;-2.41;8.0;996.44;47.75;23.0319;72.53517;27.18;NaN;;3.57;9.677419;194.31;19 / 23;42580;2018-06-12 12:09:10:222
-0.8332;7.3672;9.048;0.0691;8.2808;5.253;-0.0116;1.4352;0.6656;-0.2424;-0.1515;-0.1613;1664.0;11.76;-38.22;16.2;199.12;-57.61;-0.75;8.0;996.45;48.12;23.0319;72.53517;27.18;NaN;;3.57;9.677419;194.31;19 / 23;43080;2018-06-12 12:09:10:722
-1.0032;9.5579;7.1517;-0.1422;7.9799;5.6983;-0.861;1.578;1.4534;0.2884;0.2675;-0.1258;2531.0;13.02;-39.3;14.28;201.55;-54.46;1.43;8.0;996.44;47.358;23.0319;72.53517;27.18;NaN;;3.57;9.677419;194.31;19 / 22;43581;2018-06-12 12:09:11:223
-0.34;7.8173;5.2099;0.1256;7.9049;5.8023;-0.5542;-0.0636;-1.2389;-0.1276;-0.0562;0.0079;4111.0;8.4;-40.08;13.68;192.37;-53.71;-1.24;8.0;996.41;48.893;23.0319;72.53517;27.18;NaN;;3.57;9.677419;194.31;19 / 22;44080;2018-06-12 12:09:11:722
0.0623;5.7032;4.7359;0.0982;7.8774;5.8401;-0.0359;-2.1743;-1.1042;0.2286;0.1942;0.1106;5612.0;7.44;-40.14;12.42;191.45;-53.44;-0.96;8.0;996.42;48.589;23.0319;72.53517;27.18;NaN;;3.57;9.677419;194.31;18 / 22;44580;2018-06-12 12:09:12:222
-0.2897;7.2858;4.6904;-0.01;7.4002;6.4348;-0.2797;-0.1145;-1.7444;0.5597;0.3249;0.2553;7184.0;1.2;-42.06;10.08;181.66;-48.99;0.09;8.0;996.42;47.614;23.0319;72.53517;27.18;NaN;;3.57;9.677419;194.31;18 / 22;45079;2018-06-12 12:09:12:721
0.0072;7.0009;9.431;0.4568;6.9535;6.9;-0.2485;0.5286;0.9723;-0.1056;-0.19;-0.1045;11983.0;-0.78;-41.76;7.62;177.52;-45.16;-3.79;8.0;996.47;47.806;23.0319;72.53517;27.18;NaN;;3.57;9.677419;194.31;19 / 22;45580;2018-06-12 12:09:13:222
0.17;8.5883;6.7159;0.357;7.2401;6.6048;-0.187;1.3482;0.1111;0.1877;0.1563;-0.0098;10664.0;5.04;-41.28;9.12;187.45;-47.59;-3.09;8.0;996.44;47.412;23.0319;72.53517;27.18;NaN;;3.57;9.677419;194.31;19 / 22;46080;2018-06-12 12:09:13:722
0.158;7.87;6.6585;-0.2424;7.3298;6.5104;0.4004;0.5401;0.1481;-0.1404;-0.2755;0.0562;10309.0;0.3;-41.76;10.14;180.6;-48.37;2.13;8.0;996.46;48.343;23.0319;72.53517;27.18;NaN;;3.57;9.677419;194.31;19 / 22;46580;2018-06-12 12:09:14:222
1.3767;6.4191;4.0966;-0.0064;7.4838;6.3374;1.3831;-1.0648;-2.2408;0.2597;0.2058;-0.1051;9061.0;1.86;-41.16;12.9;183.16;-49.74;0.06;8.0;996.45;47.622;23.0319;72.53517;27.18;NaN;;3.57;9.677419;194.31;19 / 22;47080;2018-06-12 12:09:14:722
-0.4477;6.8117;6.7638;0.6648;7.6041;6.1568;-1.1126;-0.7924;0.607;-0.3621;0.1539;0.033;6742.0;0.48;-40.86;13.44;177.77;-50.84;-6.16;8.0;996.44;47.928;23.0319;72.53517;27.18;NaN;;3.57;9.677419;194.31;19 / 22;47580;2018-06-12 12:09:15:222
-0.7805;6.364;9.6394;0.4438;7.4562;6.3544;-1.0854;-0.4841;4.0966;0.1901;0.3695;0.0079;10341.0;0.3;-42.06;12.84;178.6;-49.49;-3.99;8.0;996.44;58.165;23.0318;72.53516;26.6;NaN;;2.95;9.677419;192.67;19 / 22;48080;2018-06-12 12:09:15:722
0.3735;7.8149;7.621;0.3948;7.0204;6.8359;-0.0213;0.7946;0.7851;0.1791;0.3164;0.5822;11462.0;-7.8;-40.56;10.5;166.59;-45.72;-3.31;8.0;996.4;63.087;23.0318;72.53516;26.6;NaN;;2.95;9.677419;192.67;18 / 22;48580;2018-06-12 12:09:16:222
1.8939;6.7016;6.9123;0.94;7.0862;6.7136;0.9539;-0.3846;0.1987;-0.0946;-0.697;-0.7208;11048.0;-15.72;-38.22;10.56;151.9;-46.27;-7.97;8.0;996.37;69.779;23.0318;72.53516;26.6;NaN;;2.95;9.677419;192.67;18 / 22;49080;2018-06-12 12:09:16:722
1.0439;6.7088;7.2858;1.1022;6.819;6.9611;-0.0583;-0.1102;0.3247;-0.2833;-1.2938;-1.2651;13623.0;9.78;-40.38;8.58;193.23;-44.05;-9.0;8.0;996.36;70.717;23.0318;72.53516;26.6;NaN;;2.95;9.677419;192.67;19 / 22;49579;2018-06-12 12:09:17:221
1.1876;7.9418;7.2666;1.1779;6.1752;7.5266;0.3305;1.4793;0.1063;0.038;-0.7373;-1.0458;18921.0;28.14;-30.9;-7.38;232.01;-39.03;-8.89;8.0;996.29;67.218;23.0318;72.53516;26.6;NaN;;2.95;9.677419;192.67;19 / 22;50080;2018-06-12 12:09:17:722
-0.1939;6.5507;5.5954;0.9776;6.5903;7.196;-1.1883;-0.2551;-0.9852;-0.1905;-0.179;-0.292;19496.0;31.26;-24.24;-14.88;252.08;-42.22;-7.74;8.0;996.32;52.576;23.0318;72.53516;26.6;NaN;;2.95;9.677419;192.67;19 / 22;50580;2018-06-12 12:09:18:222
2.2626;6.0312;5.526;0.5859;7.0994;6.7398;1.6767;-1.0682;-1.2138;0.3666;-0.7025;-0.4074;19525.0;33.48;-20.4;-15.78;262.8;-46.38;-4.97;8.0;996.29;52.099;23.0318;72.53516;26.6;NaN;;2.95;9.677419;192.67;19 / 22;51079;2018-06-12 12:09:18:721
1.3767;8.775;7.712;0.6321;7.391;6.4144;0.668;2.246;0.4883;0.1174;-0.0068;-0.1448;18360.0;33.24;-18.96;-17.82;267.62;-48.96;-5.7;8.0;996.3;56.619;23.0318;72.53516;26.6;NaN;;2.95;9.677419;192.67;20 / 23;51580;2018-06-12 12:09:19:222
1.2307;8.1357;7.4366;0.5036;7.131;6.7131;0.7271;1.0048;0.7235;0.0215;-0.2358;-0.0745;18531.0;34.2;-18.84;-16.86;265.83;-46.65;-4.29;8.0;996.3;57.279;23.0318;72.53516;26.6;NaN;;2.95;9.677419;192.67;20 / 23;52080;2018-06-12 12:09:19:722
1.008;6.9578;5.1836;0.3444;7.2725;6.5698;0.9748;-0.9253;-1.9967;-0.1783;0.0232;-0.0941;18528.0;35.16;-15.66;-19.26;273.15;-47.87;-3.0;8.0;996.32;59.464;23.0318;72.53516;26.6;NaN;;2.95;9.677419;192.67;20 / 23;52580;2018-06-12 12:09:20:222
0.3974;5.1645;2.4685;0.6197;7.1413;6.6924;-1.2973;-1.8858;-1.5591;0.2915;-0.052;-0.0269;17919.0;34.14;-14.7;-20.7;274.26;-46.74;-5.29;8.0;996.33;52.054;23.0318;72.53516;26.6;NaN;;2.95;9.677419;192.67;20 / 23;53080;2018-06-12 12:09:20:722
-1.0583;6.9937;6.1461;0.1824;7.4736;6.3469;0.9884;-0.6858;-2.6357;-0.1367;-0.3183;-0.4514;18325.0;34.86;-13.2;-21.24;280.84;-49.65;-1.65;8.0;996.3;51.223;23.0318;72.53516;26.6;NaN;;2.95;9.677419;192.67;20 / 23;53581;2018-06-12 12:09:21:223
-0.6345;6.6992;6.4334;0.4856;7.1013;6.7458;-1.1201;-0.4021;-0.3124;0.9964;0.0739;-0.0568;17859.0;34.32;-13.62;-20.82;276.03;-46.4;-4.12;8.0;996.4;47.884;23.0318;72.53516;26.6;NaN;;2.95;9.677419;192.67;20 / 23;54079;2018-06-12 12:09:21:721
0.8069;8.0208;12.3928;0.604;6.7116;7.1246;0.2028;1.3092;5.2682;-0.5332;-0.0068;0.022;17222.0;35.7;-14.4;-20.16;272.06;-43.19;-4.85;8.0;996.35;49.959;23.0318;72.53516;26.6;NaN;;2.95;9.677419;192.67;20 / 23;54580;2018-06-12 12:09:22:222
0.4717;7.6162;8.8157;0.4678;6.9622;6.8905;0.0039;0.654;1.9252;-0.1746;0.2999;0.427;19981.0;34.38;-13.32;-22.02;277.71;-45.23;-3.88;8.0;996.44;47.498;23.0318;72.53516;26.6;NaN;;2.95;9.677419;192.67;20 / 23;55079;2018-06-12 12:09:22:721
0.7686;8.605;7.676;0.3978;6.3296;7.4799;0.9311;0.8724;0.4763;0.578;0.0562;-0.0147;19965.0;35.04;-16.68;-18.78;266.91;-40.2;-3.04;8.0;996.38;47.447;23.0318;72.53516;26.6;NaN;;2.95;9.677419;192.67;20 / 23;55581;2018-06-12 12:09:23:223
0.8428;6.5771;5.5044;0.2778;6.2349;7.5643;0.3806;-1.2596;-3.5132;0.0954;0.2089;-0.1558;16310.0;35.88;-15.12;-18.9;269.46;-39.48;-2.1;8.0;996.35;47.966;23.0318;72.53516;26.6;NaN;;2.95;9.677419;192.67;20 / 23;56080;2018-06-12 12:09:23:722
0.1556;4.6401;3.4502;0.2576;5.9122;7.8198;-0.339;-2.3519;-2.6841;0.2738;-0.2945;-0.0244;17782.0;36.18;-14.58;-19.44;268.07;-37.08;-1.89;8.0;996.38;47.069;23.0318;72.53516;26.6;NaN;;2.95;9.677419;192.67;20 / 23;56580;2018-06-12 12:09:24:222
-0.182;4.7909;5.8037;0.3089;6.1519;7.6308;-0.0839;-1.7967;-2.7752;0.0704;-0.1815;-0.025;16854.0;36.66;-12.78;-20.22;272.23;-38.85;-2.32;8.0;996.36;48.069;23.03178;72.53508;25.73;NaN;;4.27;6.451613;266.01;20 / 23;57080;2018-06-12 12:09:24:722
-0.2035;4.4797;7.4725;0.2028;6.2102;7.587;-0.131;-1.7879;0.6517;-0.0561;0.0549;-0.0513;15754.0;36.78;-13.44;-18.48;271.08;-39.29;-1.53;8.0;996.38;48.21;23.03178;72.53508;25.73;NaN;;4.27;6.451613;266.01;19 / 22;57580;2018-06-12 12:09:25:222
0.3232;5.9785;8.9091;0.4963;5.5868;8.0444;-0.173;0.3917;0.8647;1.0679;-0.5962;-1.1997;16578.0;36.0;-6.66;-25.38;280.88;-34.73;-3.53;8.0;996.37;48.375;23.03178;72.53508;25.73;NaN;;4.27;6.451613;266.01;19 / 22;58080;2018-06-12 12:09:25:722
-0.0431;5.8779;14.4854;0.5006;5.8059;7.8874;0.7109;2.0377;0.4351;-0.6059;0.0055;0.2346;17870.0;34.08;-3.0;-27.66;289.79;-36.3;-3.63;8.0;996.36;47.706;23.03178;72.53508;25.73;NaN;;4.27;6.451613;266.01;18 / 22;58579;2018-06-12 12:09:26:221
1.2929;6.6585;8.9737;0.6312;5.4184;8.1494;0.0823;0.8354;2.6105;0.6305;-0.2163;-0.0305;16543.0;33.72;-4.56;-28.2;285.21;-33.54;-4.43;8.0;996.35;47.585;23.03178;72.53508;25.73;NaN;;4.27;6.451613;266.01;18 / 22;59080;2018-06-12 12:09:26:722
1.0319;7.3528;7.6449;0.4494;6.117;7.6518;0.5825;1.2358;-0.0069;-0.2772;0.2364;0.3311;13773.0;34.14;-5.88;-26.88;286.42;-37.96;-3.67;8.0;996.32;50.902;23.03178;72.53508;25.73;NaN;;4.27;6.451613;266.01;21 / 24;59580;2018-06-12 12:09:27:222
0.4765;6.0048;6.874;0.9539;5.6766;7.9396;-0.4774;0.3283;-1.0656;-0.3426;0.3256;0.0458;14274.0;33.6;-7.74;-26.52;280.19;-35.37;-6.85;8.0;996.41;59.199;23.03178;72.53508;25.73;NaN;;4.27;6.451613;266.01;21 / 24;60079;2018-06-12 12:09:27:721
-0.1341;5.0854;5.4901;0.8483;6.1612;7.5822;-1.3487;-0.6975;-1.7186;0.3764;-0.0489;-0.1466;13519.0;32.1;-5.16;-29.34;288.88;-38.92;-6.38;8.0;996.41;48.339;23.03178;72.53508;25.73;NaN;;4.27;6.451613;266.01;18 / 21;60579;2018-06-12 12:09:28:221
0.51;5.423;6.51;0.7837;5.9668;7.743;-0.2713;-1.9396;6.1127;0.6061;-0.4356;0.047;13226.0;33.24;-4.74;-28.26;287.09;-37.48;-5.78;8.0;996.38;50.074;23.03178;72.53508;25.73;NaN;;4.27;6.451613;266.01;18 / 21;61079;2018-06-12 12:09:28:721
2.5284;7.1972;8.6769;0.8781;5.9649;7.7343;1.8035;1.0982;1.1652;0.2249;-0.5217;-0.2639;14828.0;33.54;-6.78;-28.62;284.58;-37.46;-6.48;8.0;996.39;49.339;23.03178;72.53508;25.73;NaN;;4.27;6.451613;266.01;18 / 21;61580;2018-06-12 12:09:29:222
1.8987;6.2371;7.7982;0.6284;5.4926;8.0998;0.5017;1.1372;1.2738;0.0979;0.2205;0.0226;14808.0;33.0;-3.3;-28.44;289.42;-34.59;-3.58;8.0;996.38;50.093;23.03178;72.53508;25.73;NaN;;4.27;6.451613;266.01;18 / 21;62080;2018-06-12 12:09:29:722
0.9098;4.6281;6.9434;0.825;5.5606;8.0355;0.0848;-0.9324;-1.0921;0.1925;0.2193;-0.3244;16553.0;33.0;-3.66;-29.16;287.71;-35.3;-5.93;8.0;996.38;47.63;23.03178;72.53508;25.73;NaN;;4.27;6.451613;266.01;18 / 22;62580;2018-06-12 12:09:30:222
1.2953;5.8636;4.7167;0.6331;5.9915;7.7376;0.9184;-0.5015;-3.6027;0.2341;0.419;-0.5553;15100.0;31.38;-0.96;-31.5;296.33;-37.66;-4.68;8.0;996.37;49.685;23.03178;72.53508;25.73;NaN;;4.27;6.451613;266.01;18 / 22;63081;2018-06-12 12:09:30:723
1.439;7.5635;8.8492;0.6963;6.0496;7.6869;0.7427;1.5139;1.1624;0.2164;0.1826;0.1491;14145.0;32.46;-2.16;-29.88;293.56;-38.09;-5.18;8.0;996.38;48.941;23.03178;72.53508;25.73;NaN;;4.27;6.451613;266.01;19 / 22;63579;2018-06-12 12:09:31:221
1.7598;5.8468;8.6314;0.8631;6.2304;7.5238;1.2702;-0.4889;1.2608;0.2579;-1.0342;-1.2523;12306.0;27.48;2.64;-35.1;306.08;-39.44;-6.54;8.0;996.38;52.301;23.03178;72.53508;25.73;NaN;;4.27;6.451613;266.01;19 / 22;64079;2018-06-12 12:09:31:721
0.486;5.763;8.277;1.1552;6.2459;7.4716;-0.6692;-0.4828;0.8054;-0.0616;-1.5785;-1.7581;9169.0;-10.68;9.9;-41.4;7.59;-39.56;-8.79;8.0;996.38;48.045;23.03178;72.53508;25.73;NaN;;4.27;6.451613;266.01;19 / 22;64580;2018-06-12 12:09:32:222
0.826;6.1054;7.3385;1.2589;6.5114;7.2241;-0.4329;-0.406;0.1144;-0.2412;-0.785;-0.8686;8461.0;-35.28;-4.68;-26.16;60.1;-41.6;-9.89;8.0;996.36;48.225;23.03178;72.53508;25.73;NaN;;4.27;6.451613;266.01;19 / 22;65081;2018-06-12 12:09:32:723
0.0287;7.0894;7.1565;0.3618;6.1949;7.5936;-0.3331;0.8945;-0.4371;-0.1312;0.0061;-0.6078;8673.0;-38.58;-14.28;-17.46;88.43;-39.18;-2.73;8.0;996.37;48.904;23.03178;72.53508;25.73;NaN;;4.27;6.451613;266.01;19 / 22;65580;2018-06-12 12:09:33:222
0.1437;6.0001;5.751;0.4332;6.3847;7.4309;0.5604;-1.4836;-1.2489;0.5749;-0.2487;-0.7837;8123.0;-38.04;-21.54;-11.82;101.33;-40.62;-3.34;8.0;996.35;49.556;23.03178;72.53508;25.73;NaN;;4.27;6.451613;266.01;19 / 22;66080;2018-06-12 12:09:33:722
0.2658;8.6601;8.435;0.2034;6.1732;7.6171;0.2515;1.7399;1.5194;0.5065;-0.0122;-0.2663;8205.0;-36.66;-22.38;-11.1;104.59;-39.01;-1.53;8.0;996.39;47.979;23.03178;72.53508;25.73;NaN;;4.27;6.451613;266.01;20 / 23;66579;2018-06-12 12:09:34:221
-0.1844;7.9921;6.1461;0.035;6.9635;6.905;-0.2817;1.4644;-0.2728;0.1638;0.0018;-0.1747;7151.0;-37.02;-24.18;-9.72;104.75;-44.6;-0.8;8.0;996.35;47.981;23.03178;72.53508;25.73;NaN;;4.27;6.451613;266.01;20 / 23;67079;2018-06-12 12:09:34:721
0.1245;6.8979;4.7071;-0.0645;6.7533;7.1105;0.414;0.2092;-1.5534;-0.0756;0.1466;0.1045;6723.0;-35.64;-25.44;-9.12;108.5;-42.7;-0.6;8.0;996.37;48.428;23.03178;72.53508;25.73;NaN;;4.27;6.451613;266.01;18 / 21;67581;2018-06-12 12:09:35:223
0.1125;5.708;4.9849;0.0545;7.0489;6.8176;0.0581;-1.341;-1.8327;-0.1734;-0.0593;0.1179;7040.0;-36.9;-22.5;-10.44;102.07;-45.95;-0.46;8.0;996.39;48.553;23.03178;72.53508;25.73;NaN;;4.27;6.451613;266.01;18 / 21;68079;2018-06-12 12:09:35:721
0.0623;6.6561;7.2954;0.285;7.2199;6.6304;0.5003;-0.2932;-1.3367;0.3275;-0.1167;-0.1961;7208.0;-37.02;-23.04;-9.48;102.0;-47.41;-2.46;8.0;996.38;48.195;23.03178;72.53508;25.73;NaN;;4.27;6.451613;266.01;18 / 21;68581;2018-06-12 12:09:36:223
0.3065;9.8788;5.5667;0.0812;7.7275;6.0374;0.2253;2.1513;-0.4707;0.2463;0.2578;0.1717;6691.0;-37.62;-22.56;-9.6;98.83;-52.0;-0.77;8.0;996.37;48.751;23.03178;72.53508;25.73;NaN;;4.27;6.451613;266.01;18 / 21;69080;2018-06-12 12:09:36:722
0.3807;9.8477;5.4302;-0.1659;8.9499;4.0053;0.5466;0.8978;1.425;0.9354;0.3567;0.3598;5361.0;-37.74;-21.42;-12.54;87.27;-65.87;2.37;8.0;996.33;49.355;23.03178;72.53508;25.73;NaN;;4.27;6.451613;266.01;19 / 22;69579;2018-06-12 12:09:37:221
-0.0838;9.0001;2.684;-0.5398;9.2075;3.3317;0.456;-0.2074;-0.6478;-0.0402;0.4349;0.2156;2524.0;-36.78;-22.02;-14.34;90.23;-69.87;9.2;8.0;996.37;48.311;23.03178;72.53508;25.73;NaN;;4.27;6.451613;266.01;19 / 22;70079;2018-06-12 12:09:37:721
-0.2299;7.5108;2.3799;-0.6425;9.0669;3.6808;0.4127;-1.5561;-1.3009;-0.3438;0.5204;0.27;3019.0;-33.72;-19.2;-23.22;77.5;-67.6;9.9;8.0;996.39;50.698;23.03178;72.53508;25.73;NaN;;4.27;6.451613;266.01;19 / 23;70581;2018-06-12 12:09:38:223
-1.5395;6.6226;3.9577;-0.2827;8.9601;3.9757;-1.853;-0.8938;2.3356;-0.0793;0.6994;-0.1307;4138.0;-32.46;-15.42;-25.2;66.55;-66.02;4.07;8.0;996.41;60.276;23.03178;72.53508;25.73;NaN;;4.27;6.451613;266.01;19 / 23;71079;2018-06-12 12:09:38:721
0.1868;7.8484;0.0479;-0.3128;8.9067;4.0919;0.4996;-1.0582;-4.044;-0.3359;-0.0538;0.4679;5349.0;-30.6;-13.86;-28.62;61.13;-65.26;4.37;8.0;996.42;52.989;23.03178;72.53508;25.73;NaN;;4.27;6.451613;266.01;18 / 21;71580;2018-06-12 12:09:39:222
0.3663;8.5308;7.9849;0.4386;8.0386;5.5999;-0.0722;0.4922;2.385;-0.3255;0.0995;0.1136;7256.0;-32.4;-5.64;-29.1;53.03;-55.06;-4.48;8.0;996.45;57.191;23.03178;72.53508;25.73;NaN;;4.27;6.451613;266.01;18 / 21;72085;2018-06-12 12:09:39:727
0.1197;8.3345;8.854;0.3054;7.9462;5.7389;-0.0109;0.3859;2.9188;-0.042;0.1899;0.1008;7535.0;-31.44;-5.04;-30.36;52.32;-54.12;-3.05;8.0;996.45;49.835;23.03178;72.53508;25.73;NaN;;4.27;6.451613;266.01;19 / 22;72580;2018-06-12 12:09:40:222
0.9386;8.6457;5.5188;0.496;7.7683;5.9646;0.4162;0.0442;-0.714;0.0276;-0.0232;0.0122;7776.0;-31.62;-3.66;-30.42;51.56;-52.39;-4.75;8.0;996.45;47.273;23.03178;72.53508;25.73;NaN;;4.27;6.451613;266.01;19 / 22;73080;2018-06-12 12:09:40:722
0.7494;6.4645;2.8731;0.3501;7.913;5.782;0.5645;-2.3439;-1.7093;0.4283;0.1551;-0.2205;7720.0;-33.12;-6.72;-29.1;56.26;-53.79;-3.46;8.0;996.46;50.159;23.03178;72.53508;25.73;NaN;;4.27;6.451613;266.01;20 / 23;73580;2018-06-12 12:09:41:222
0.8883;5.6218;4.0152;0.3073;7.7705;5.9745;0.4421;-2.2565;-2.5866;0.0184;0.0061;-0.0165;7280.0;-31.74;-6.36;-29.7;54.89;-52.41;-2.94;8.0;996.49;49.674;23.03178;72.53508;25.73;NaN;;4.27;6.451613;266.01;20 / 23;74083;2018-06-12 12:09:41:725
-0.8404;6.4861;6.2203;0.1375;7.8678;5.8523;-1.2341;-0.5844;0.6985;-0.185;0.328;-0.2437;6446.0;-32.04;-9.06;-27.3;61.7;-53.35;-1.35;8.0;996.47;47.906;23.03178;72.53508;25.73;NaN;;4.27;6.451613;266.01;18 / 21;74580;2018-06-12 12:09:42:222
-0.3472;7.0176;6.6465;0.3629;7.6572;6.116;-1.0022;0.7299;1.9264;0.0441;-0.0544;0.0782;6534.0;-32.94;-7.8;-28.02;59.6;-51.34;-3.4;8.0;996.47;47.876;23.03178;72.53508;25.73;NaN;;4.27;6.451613;266.01;18 / 21;75080;2018-06-12 12:09:42:722
1.0678;8.7104;9.5148;0.4109;7.9781;5.6879;1.0424;1.6589;1.483;-0.5991;-0.0281;0.0874;6442.0;-32.64;-7.86;-28.08;57.08;-54.44;-4.13;8.0;996.48;48.102;23.03178;72.53508;25.73;NaN;;4.27;6.451613;266.01;18 / 21;75580;2018-06-12 12:09:43:222
0.5052;8.368;8.0807;0.2677;7.8241;5.9062;0.2375;0.5439;2.1745;0.1858;-0.1265;-0.0049;6726.0;-32.94;-8.7;-26.82;61.43;-52.92;-2.6;8.0;996.48;48.086;23.03178;72.53508;25.73;NaN;;4.27;6.451613;266.01;18 / 21;76080;2018-06-12 12:09:43:722
0.486;8.459;5.9689;0.1269;7.5455;6.2625;0.3591;0.9135;-0.2936;0.1198;-0.0868;0.2987;7692.0;-31.02;-5.28;-29.88;56.17;-50.3;-1.16;8.0;996.48;47.861;23.03178;72.53508;25.73;NaN;;4.27;6.451613;266.01;18 / 21;76580;2018-06-12 12:09:44:222
0.1077;7.3265;3.328;0.2082;7.6859;6.0871;-0.0047;-1.0418;-2.5173;0.2817;0.229;0.0733;7055.0;-30.48;-5.22;-30.24;53.8;-51.6;-1.96;8.0;996.5;47.201;23.03178;72.53508;25.73;NaN;;4.27;6.451613;266.01;18 / 21;77079;2018-06-12 12:09:44:721
0.6321;5.1261;4.3719;0.1171;7.3067;6.5398;-0.1578;-1.7567;-2.9676;-0.1624;0.1111;0.2156;7057.0;-27.54;-0.84;-34.32;47.57;-48.17;-1.03;8.0;996.53;50.581;23.03178;72.53508;25.73;NaN;;4.27;6.451613;266.01;17 / 21;77579;2018-06-12 12:09:45:221
-1.2809;6.2682;5.368;-0.0286;7.5754;6.2276;-0.8093;-1.9512;-1.5899;-0.1868;-0.11;0.2327;6484.0;-26.22;-0.96;-35.1;43.62;-50.28;-1.01;8.0;996.51;57.102;23.031816;72.53516;23.14;NaN;;4.03;9.677419;59.83;17 / 21;78079;2018-06-12 12:09:45:721
-0.431;6.9626;7.4582;0.3375;7.4388;6.3813;-0.8523;0.4169;0.6028;-0.177;0.3066;0.5284;6504.0;-22.62;2.22;-37.68;34.06;-49.34;-3.03;8.0;996.46;50.838;23.031816;72.53516;23.14;NaN;;4.03;9.677419;59.83;17 / 21;78581;2018-06-12 12:09:46:223
0.6345;7.1062;8.7104;0.3063;7.2797;6.5638;-0.6965;0.1282;7.1147;-0.3566;-0.5547;0.3115;7407.0;-21.12;4.26;-39.54;30.03;-47.93;-2.67;8.0;996.44;51.105;23.031816;72.53516;23.14;NaN;;4.03;9.677419;59.83;17 / 21;79080;2018-06-12 12:09:46:722
0.6345;9.6561;5.8205;0.2453;7.7684;5.9802;0.4706;1.3059;2.0742;0.3031;0.0458;0.0159;6883.0;-18.54;0.6;-39.6;27.81;-52.39;-2.35;8.0;996.45;52.05;23.031816;72.53516;23.14;NaN;;4.03;9.677419;59.83;19 / 22;79581;2018-06-12 12:09:47:223
0.2682;9.4741;6.6274;0.1463;8.1584;5.4397;0.0836;1.5983;2.0304;0.1528;-0.0636;0.0886;7540.0;-14.64;0.3;-41.28;23.36;-55.66;-0.47;8.0;996.42;49.199;23.031816;72.53516;23.14;NaN;;4.03;9.677419;59.83;19 / 22;80079;2018-06-12 12:09:47:721
1.0056;8.6002;5.7678;-0.0795;8.3699;5.1097;0.4554;0.2831;0.4115;0.005;0.0617;0.2798;5958.0;-15.06;-4.02;-41.52;25.0;-58.59;0.89;8.0;996.41;55.118;23.031816;72.53516;23.14;NaN;;4.03;9.677419;59.83;17 / 21;80581;2018-06-12 12:09:48:223
0.0072;7.5755;3.6201;-0.2891;8.7066;4.5035;0.7872;-1.8542;-1.2066;0.0783;0.1258;-0.0672;5321.0;-10.56;-6.0;-42.0;22.0;-62.6;3.67;8.0;996.39;59.65;23.031816;72.53516;23.14;NaN;;4.03;9.677419;59.83;17 / 21;81080;2018-06-12 12:09:48:722
-1.336;7.3504;3.5411;-0.3214;8.7221;4.4713;-0.9044;-1.1681;-0.3436;-0.1245;0.1942;-0.0904;4008.0;-14.1;-6.72;-40.32;28.2;-62.8;4.11;8.0;996.33;66.444;23.031816;72.53516;23.14;NaN;;4.03;9.677419;59.83;18 / 21;81579;2018-06-12 12:09:49:221
-1.2187;7.9753;4.9394;-0.024;8.8442;4.2368;-0.9936;-0.2487;1.6172;-0.0017;0.3665;-0.1185;3215.0;-13.2;-6.84;-39.9;21.85;-64.4;0.32;8.0;996.33;70.348;23.031816;72.53516;23.14;NaN;;4.03;9.677419;59.83;18 / 21;82080;2018-06-12 12:09:49:722
0.8045;9.4502;3.1772;-0.0134;9.0263;3.8334;0.8179;0.4239;-0.6562;-0.0494;-0.0184;-0.193;2451.0;-15.18;-9.84;-38.7;25.36;-66.99;0.2;8.0;996.27;54.596;23.031816;72.53516;23.14;NaN;;4.03;9.677419;59.83;16 / 20;82579;2018-06-12 12:09:50:221
-0.3711;10.8724;6.6513;0.1427;9.0088;3.8719;-0.5138;1.8636;2.7794;-0.8325;0.0055;0.2101;2383.0;-15.24;-8.4;-40.14;21.64;-66.73;-2.11;8.0;996.26;59.636;23.031816;72.53516;23.14;NaN;;4.03;9.677419;59.83;16 / 20;83080;2018-06-12 12:09:50:722
0.6249;11.6074;5.3392;0.0729;8.7629;4.4018;-0.3099;1.9658;1.9837;0.1076;-0.2902;0.0843;2675.0;-15.0;-6.3;-39.18;23.91;-63.33;-0.95;8.0;996.29;59.957;23.031816;72.53516;23.14;NaN;;4.03;9.677419;59.83;17 / 21;83581;2018-06-12 12:09:51:223
0.8236;10.0847;4.4869;0.0351;8.7612;4.4057;0.8388;0.2389;0.2177;0.0264;-0.2303;0.2608;2423.0;-16.5;-6.06;-39.9;25.31;-63.3;-0.46;8.0;996.3;48.606;23.031816;72.53516;23.14;NaN;;4.03;9.677419;59.83;17 / 21;84080;2018-06-12 12:09:51:722
-0.0862;8.7319;5.1381;-0.1891;8.6233;4.6662;0.1029;0.1086;0.4719;0.0869;0.138;0.2144;2295.0;-14.34;-4.02;-40.62;24.96;-61.56;2.32;8.0;996.32;50.767;23.031816;72.53516;23.14;NaN;;4.03;9.677419;59.83;17 / 21;84581;2018-06-12 12:09:52:223
0.2466;6.2084;2.1189;-0.2521;8.6726;4.5708;0.2809;-2.7755;-2.2005;0.0423;-0.0391;0.0898;2276.0;-17.16;-6.36;-40.38;31.18;-62.17;3.16;8.0;996.32;51.938;23.031816;72.53516;23.14;NaN;;4.03;9.677419;59.83;17 / 21;85079;2018-06-12 12:09:52:721
-0.3687;6.2634;2.7965;-0.2429;8.7106;4.4985;-1.6989;-1.049;0.1488;-0.4599;-0.0257;0.2511;2077.0;-15.66;-5.7;-40.68;28.98;-62.65;3.09;8.0;996.33;49.841;23.031816;72.53516;23.14;NaN;;4.03;9.677419;59.83;18 / 22;85579;2018-06-12 12:09:53:221
0.3783;7.7167;4.1924;-0.387;8.7039;4.5015;0.818;-0.5825;-1.9564;0.3514;-0.2694;-0.2407;1897.0;-16.92;-6.6;-39.54;33.42;-62.57;4.91;8.0;996.34;58.307;23.031816;72.53516;23.14;NaN;;4.03;9.677419;59.83;18 / 22;86082;2018-06-12 12:09:53:724
-1.0726;10.7072;7.4127;-0.5467;8.6246;4.6354;-1.1819;1.1033;4.7286;-0.4556;-0.1167;0.0556;2284.0;-16.26;-7.92;-39.72;35.05;-63.16;7.39;8.0;996.32;53.528;23.031816;72.53516;23.14;NaN;;4.03;9.677419;59.83;16 / 21;86580;2018-06-12 12:09:54:222
0.0144;10.8149;5.9713;-0.3114;8.6687;4.5746;0.3258;2.1462;1.3968;-0.1202;-0.2725;0.1973;2738.0;-18.06;-6.6;-39.9;33.77;-62.12;3.89;8.0;996.34;53.959;23.031912;72.53523;21.67;NaN;;3.77;9.677419;48.1;16 / 21;87080;2018-06-12 12:09:54:722
-0.4142;10.2331;6.4669;-0.2046;8.9248;4.059;0.8463;1.0425;0.2291;-0.0488;-0.1589;0.0495;2225.0;-17.94;-9.66;-39.06;33.19;-65.52;2.89;8.0;996.31;52.58;23.031912;72.53523;21.67;NaN;;3.77;9.677419;48.1;18 / 21;87580;2018-06-12 12:09:55:222
-0.0982;9.0144;1.9585;-0.1729;9.1057;3.6369;0.1993;-0.4552;-1.7214;0.4552;0.2553;0.0275;1437.0;-17.76;-10.32;-39.54;31.38;-68.21;2.72;8.0;996.31;52.209;23.031912;72.53523;21.67;NaN;;3.77;9.677419;48.1;18 / 21;88080;2018-06-12 12:09:55:722
0.4262;7.9394;2.241;-0.0385;9.0263;3.8333;0.4647;-1.0869;-1.5922;0.6947;0.7257;-0.3134;1449.0;-19.5;-9.36;-39.48;31.06;-66.99;0.58;8.0;996.34;52.338;23.031912;72.53523;21.67;NaN;;3.77;9.677419;48.1;17 / 22;88581;2018-06-12 12:09:56:223
-0.7853;6.5029;2.7941;0.1896;8.8447;4.2315;0.0857;-3.053;-2.4382;0.0056;-0.1778;0.2902;1780.0;-18.06;-7.26;-40.68;23.54;-64.68;-3.76;8.0;996.34;52.14;23.031912;72.53523;21.67;NaN;;3.77;9.677419;48.1;17 / 22;89080;2018-06-12 12:09:56:722
-0.6967;8.1166;5.8947;0.2965;8.9045;4.0978;-0.9933;-0.7879;1.7969;0.0313;0.4282;-0.2083;2348.0;-18.9;-7.08;-39.96;24.94;-65.23;-4.14;8.0;996.34;51.087;23.031912;72.53523;21.67;NaN;;3.77;9.677419;48.1;17 / 20;89580;2018-06-12 12:09:57:222
-0.7303;10.1876;7.7072;0.0593;8.9998;3.8948;-0.0186;2.1479;1.3008;-0.7561;0.2156;0.146;2573.0;-16.2;-8.76;-40.62;24.16;-66.6;-0.87;8.0;996.34;50.738;23.031912;72.53523;21.67;NaN;;3.77;9.677419;48.1;17 / 20;90080;2018-06-12 12:09:57:722
-0.4573;12.1605;5.7439;-0.1854;9.0449;3.7848;0.0441;3.355;1.9303;0.3837;-0.3256;-0.1906;3175.0;-15.78;-8.94;-41.46;28.18;-67.27;2.8;8.0;996.32;49.846;23.031912;72.53523;21.67;NaN;;3.77;9.677419;48.1;19 / 23;90580;2018-06-12 12:09:58:222
-0.4453;11.2531;3.8356;-0.3165;9.3353;2.9869;-0.2797;2.3272;0.7553;0.1198;0.1673;0.1014;2821.0;-18.48;-13.44;-38.46;35.97;-72.16;6.05;8.0;996.32;49.963;23.031912;72.53523;21.67;NaN;;3.77;9.677419;48.1;19 / 23;91080;2018-06-12 12:09:58:722
0.7638;10.6665;5.1621;-0.2279;9.0941;3.6627;0.9917;1.5724;1.4993;0.1296;-0.1436;-0.1038;3184.0;-14.94;-8.82;-40.92;28.87;-68.52;4.95;8.0;996.32;51.641;23.031912;72.53523;21.67;NaN;;3.77;9.677419;48.1;20 / 23;91580;2018-06-12 12:09:59:222
0.0287;8.5356;1.2642;-0.4761;9.2651;3.1782;0.5048;-0.7295;-1.914;0.0746;0.1264;0.0238;3481.0;-16.98;-12.6;-40.62;35.85;-70.87;8.52;8.0;996.34;51.481;23.031912;72.53523;21.67;NaN;;3.77;9.677419;48.1;20 / 23;92080;2018-06-12 12:09:59:722
-0.3041;6.7255;1.2331;-0.3081;9.1488;3.5177;0.004;-2.4233;-2.2847;0.2878;0.0513;-0.1533;3237.0;-11.7;-9.0;-42.9;23.72;-68.89;5.0;8.0;996.36;48.013;23.031912;72.53523;21.67;NaN;;3.77;9.677419;48.1;19 / 22;92580;2018-06-12 12:10:00:222
-1.2354;8.2602;3.8141;0.0148;9.319;3.0538;-0.0028;-0.7092;-0.5733;0.2005;0.5406;-0.3604;3653.0;-15.36;-11.94;-40.74;22.75;-71.86;-0.28;8.0;996.36;49.167;23.031912;72.53523;21.67;NaN;;3.77;9.677419;48.1;19 / 22;93079;2018-06-12 12:10:00:721
-0.5172;9.2467;0.7446;0.426;9.2895;3.1136;-0.9407;0.2158;1.4954;0.4662;-0.1546;-0.0354;3345.0;-15.72;-11.28;-40.56;15.55;-71.31;-7.79;8.0;996.34;48.591;23.031912;72.53523;21.67;NaN;;3.77;9.677419;48.1;18 / 22;93580;2018-06-12 12:10:01:222
-0.2131;8.7152;7.4534;0.3778;9.3417;2.9599;0.4674;-1.34;2.3219;-0.1202;-1.019;0.171;3672.0;-16.38;-11.46;-40.44;18.84;-73.92;-4.97;8.0;996.33;50.072;23.031912;72.53523;21.67;NaN;;3.77;9.677419;48.1;18 / 22;94083;2018-06-12 12:10:01:725
0.7686;10.9586;3.8332;0.2806;9.2725;3.18;0.6556;2.0333;-0.9629;0.4949;0.0592;-0.1692;4739.0;-14.76;-9.12;-40.98;17.09;-70.11;-5.16;8.0;996.34;49.597;23.031912;72.53523;21.67;NaN;;3.77;9.677419;48.1;19 / 22;94580;2018-06-12 12:10:02:222
0.1077;11.5596;5.5427;0.3202;9.1779;3.4401;-0.2124;2.3817;2.1027;0.1162;0.0733;-0.0733;5202.0;-12.48;-8.58;-41.82;12.28;-69.37;-5.32;8.0;996.34;49.063;23.031912;72.53523;21.67;NaN;;3.77;9.677419;48.1;19 / 22;95079;2018-06-12 12:10:02:721
0.4405;9.6896;3.759;0.5939;8.7389;4.4101;-0.1533;0.9507;-0.6511;0.1198;0.3604;-0.1533;6998.0;-13.14;-4.38;-42.78;10.73;-63.01;-7.67;8.0;996.37;50.545;23.031912;72.53523;21.67;NaN;;3.77;9.677419;48.1;19 / 22;95579;2018-06-12 12:10:03:221
0.1389;8.8636;1.8029;0.3263;8.8696;4.1706;0.8948;-1.773;-2.4946;0.4729;-0.0495;-0.3567;7477.0;-12.42;-6.96;-42.9;13.23;-64.75;-4.47;8.0;996.35;51.522;23.032028;72.53525;19.73;NaN;;4.11;9.677419;12.59;19 / 22;96079;2018-06-12 12:10:03:721
0.0934;5.9953;1.5252;0.2993;9.3187;3.04;-0.7302;-2.6698;-0.8637;-0.2412;-0.4551;0.19;4697.0;-17.04;-12.18;-39.36;20.66;-71.85;-5.62;8.0;996.39;53.949;23.032028;72.53525;19.73;NaN;;4.11;9.677419;12.59;18 / 21;96579;2018-06-12 12:10:04:221
-1.1109;6.5555;3.1389;0.08;9.1845;3.4363;-1.1909;-2.629;-0.2974;-0.4776;-0.1234;0.2816;4881.0;-14.1;-8.76;-40.74;20.15;-69.48;-1.33;8.0;996.4;62.02;23.032028;72.53525;19.73;NaN;;4.11;9.677419;12.59;18 / 21;97079;2018-06-12 12:10:04:721
1.4437;9.1581;3.0838;0.1289;9.2183;3.343;1.0802;-0.1345;-1.2528;-0.0048;-0.3317;-0.2407;5455.0;-14.28;-10.38;-40.44;21.55;-69.83;-0.67;8.0;996.42;64.193;23.032028;72.53525;19.73;NaN;;4.11;9.677419;12.59;18 / 21;97579;2018-06-12 12:10:05:221
-1.2546;9.9243;7.1445;0.0577;9.2187;3.3441;-1.7457;1.7663;4.3439;-0.3951;0.0745;0.2749;5689.0;-14.28;-10.5;-40.02;21.14;-70.06;-0.99;8.0;996.4;67.664;23.032028;72.53525;19.73;NaN;;4.11;9.677419;12.59;18 / 21;98079;2018-06-12 12:10:05:721
0.9122;11.7774;2.3967;0.3389;9.4256;2.6857;0.9157;2.347;-0.1478;0.1272;-0.4606;-0.0574;5603.0;-15.06;-12.84;-40.26;15.19;-73.98;-7.19;8.0;996.38;69.117;23.032028;72.53525;19.73;NaN;;4.11;9.677419;12.59;19 / 22;98581;2018-06-12 12:10:06:223
-0.091;10.8317;4.3815;0.1417;9.5083;2.3962;0.1839;1.4455;0.362;-0.1477;0.361;0.0141;4927.0;-15.66;-14.94;-39.3;21.34;-75.83;-3.38;8.0;996.4;68.701;23.032028;72.53525;19.73;NaN;;4.11;9.677419;12.59;19 / 22;99079;2018-06-12 12:10:06:721
1.0224;8.9809;3.8476;0.4646;9.16;3.4712;0.486;-0.6483;-0.476;-0.0164;0.1643;0.0849;6822.0;-15.6;-9.72;-41.52;15.42;-69.08;-7.62;8.0;996.41;65.388;23.032028;72.53525;19.73;NaN;;4.11;9.677419;12.59;19 / 22;99581;2018-06-12 12:10:07:223
0.8835;8.5524;1.8196;0.1978;8.8812;4.1539;0.6857;-0.3289;-2.3342;0.0655;0.105;0.0;7887.0;-14.94;-6.66;-41.52;20.0;-64.91;-2.73;8.0;996.4;65.283;23.032028;72.53525;19.73;NaN;;4.11;9.677419;12.59;19 / 22;100079;2018-06-12 12:10:07:721
-0.522;6.6417;2.2027;0.2615;8.8155;4.2881;-0.7834;-2.1738;-2.0854;0.3147;0.1655;-0.0556;8513.0;-13.38;-4.44;-42.18;15.87;-64.02;-3.49;8.0;996.41;69.556;23.032028;72.53525;19.73;NaN;;4.11;9.677419;12.59;19 / 22;100580;2018-06-12 12:10:08:222
-0.5674;6.7351;3.8261;-0.0188;8.9128;4.0905;-0.8025;-1.1601;0.2815;-0.1166;-0.0727;0.0391;8115.0;-14.4;-6.24;-41.94;21.73;-65.35;0.26;8.0;996.41;65.226;23.032028;72.53525;19.73;NaN;;4.11;9.677419;12.59;19 / 22;101080;2018-06-12 12:10:08:722
-0.51;7.9562;4.2307;0.1176;9.0089;3.8726;-0.6276;-1.0527;0.3581;-0.2302;0.1594;0.2584;7597.0;-14.82;-7.08;-41.16;21.28;-66.73;-1.74;8.0;996.42;64.505;23.032028;72.53525;19.73;NaN;;4.11;9.677419;12.59;19 / 22;101579;2018-06-12 12:10:09:221
1.4629;8.6266;2.1908;0.2612;9.1968;3.3942;0.1482;0.1648;0.3744;0.4711;-0.3983;-0.1894;7907.0;-16.14;-9.84;-41.1;19.57;-69.69;-4.4;8.0;996.4;62.847;23.032028;72.53525;19.73;NaN;;4.11;9.677419;12.59;19 / 22;102080;2018-06-12 12:10:09:722
-0.1508;12.3209;3.024;0.0967;9.3132;3.0699;-0.2476;3.0077;-0.046;-0.634;0.4722;0.0886;7575.0;-15.9;-10.38;-39.48;20.26;-71.08;-4.6;8.0;996.38;63.904;23.032028;72.53525;19.73;NaN;;4.11;9.677419;12.59;19 / 22;102580;2018-06-12 12:10:10:222
0.9769;11.617;3.1676;0.3101;9.1288;3.5691;1.0211;1.746;0.8484;0.4002;-0.1925;-0.3091;7765.0;-14.94;-7.56;-39.96;17.98;-68.57;-4.97;8.0;996.41;67.708;23.032028;72.53525;19.73;NaN;;4.11;9.677419;12.59;19 / 22;103080;2018-06-12 12:10:10:722
-0.1341;11.1046;4.3312;0.0301;8.9966;3.9026;-0.1283;1.8016;0.7734;0.0423;0.1435;-0.1173;7924.0;-17.04;-7.44;-39.54;26.13;-66.55;-0.44;8.0;996.41;68.617;23.032028;72.53525;19.73;NaN;;4.11;9.677419;12.59;19 / 22;103579;2018-06-12 12:10:11:221
0.3927;8.3632;3.8548;0.0112;8.9339;4.0441;0.4294;-1.3441;-1.0225;-0.0139;-0.0898;-0.022;7901.0;-15.48;-7.32;-40.32;23.91;-65.65;-0.16;8.0;996.42;63.374;23.032028;72.53525;19.73;NaN;;4.11;9.677419;12.59;19 / 22;104080;2018-06-12 12:10:11:722
0.6943;7.2427;1.1612;0.0681;9.0297;3.8249;0.4754;-3.463;-1.1577;-0.0958;-0.187;0.036;7793.0;-17.76;-8.88;-39.24;27.89;-67.04;-1.02;8.0;996.44;65.833;23.032028;72.53525;19.73;NaN;;4.11;9.677419;12.59;19 / 22;104580;2018-06-12 12:10:12:222
1.1564;5.2123;1.9346;0.0551;8.8984;4.1214;-0.1149;-2.5272;-1.1357;-0.1404;-0.1839;0.5321;8881.0;-17.34;-7.02;-40.14;26.13;-65.15;-0.77;8.0;996.44;62.753;23.032131;72.53528;16.96;NaN;;4.4;6.451613;23.09;19 / 22;105079;2018-06-12 12:10:12:721
0.1341;7.1469;4.8819;-0.1992;8.9518;3.9995;0.3333;-1.8049;0.8824;0.3703;0.4569;-0.2865;8822.0;-16.32;-7.8;-40.2;27.53;-66.46;1.74;8.0;996.44;67.345;23.032131;72.53528;16.96;NaN;;4.4;6.451613;23.09;19 / 22;105580;2018-06-12 12:10:13:222
-0.4789;8.3943;3.9099;0.0544;9.3664;2.9048;-0.0496;-0.7278;0.282;-0.0958;0.0574;0.2767;7819.0;-14.88;-11.94;-39.3;22.79;-72.77;-1.07;8.0;996.46;65.282;23.032131;72.53528;16.96;NaN;;4.4;6.451613;23.09;19 / 22;106079;2018-06-12 12:10:13:721
-1.2426;10.7742;7.1134;0.1227;9.2823;3.1615;-0.4962;1.832;1.8569;-0.4977;-0.0025;-0.1264;7616.0;-14.58;-10.68;-39.36;21.69;-71.18;-2.22;8.0;996.46;68.365;23.032131;72.53528;16.96;NaN;;4.4;6.451613;23.09;19 / 22;106580;2018-06-12 12:10:14:222
0.0096;10.8796;4.7526;-0.0686;9.3036;3.0997;0.3607;1.2719;-0.3535;-0.2418;-0.1332;0.0354;7408.0;-14.04;-10.92;-40.32;23.54;-71.57;1.27;8.0;996.47;71.183;23.032131;72.53528;16.96;NaN;;4.4;6.451613;23.09;19 / 22;107080;2018-06-12 12:10:14:722
-0.0623;11.1382;3.5794;-0.1266;9.3291;3.0202;0.3134;0.734;0.5329;0.1339;0.1399;0.1142;8286.0;-13.2;-11.88;-39.72;23.45;-72.05;2.4;8.0;996.45;56.393;23.032131;72.53528;16.96;NaN;;4.4;6.451613;23.09;19 / 22;107579;2018-06-12 12:10:15:221
0.4908;9.9817;2.5882;-0.1344;9.3849;2.8418;0.0195;-0.9499;-2.588;0.2261;0.1276;0.1863;7850.0;-13.44;-13.98;-39.18;24.44;-73.14;2.71;8.0;996.47;56.445;23.032131;72.53528;16.96;NaN;;4.4;6.451613;23.09;19 / 22;108079;2018-06-12 12:10:15:721
0.1628;7.8005;2.7965;-0.1897;9.373;2.8777;0.3525;-1.5725;-0.0812;-0.0805;0.0116;-0.0061;8279.0;-11.64;-13.2;-39.6;24.75;-73.54;5.02;8.0;996.47;56.535;23.032131;72.53528;16.96;NaN;;4.4;6.451613;23.09;18 / 21;108580;2018-06-12 12:10:16:222
0.158;6.376;1.3815;-0.218;9.3472;2.9586;0.376;-2.9712;-1.5771;-0.0402;-0.1344;0.011;8682.0;-10.92;-12.54;-39.36;23.14;-72.39;4.21;8.0;996.49;64.637;23.032131;72.53528;16.96;NaN;;4.4;6.451613;23.09;18 / 21;109080;2018-06-12 12:10:16:722
-1.1014;8.1214;2.4805;-0.0341;9.3622;2.9186;-1.0672;-1.2408;-0.4381;-0.3939;-0.4142;0.2926;8715.0;-13.08;-12.12;-39.66;21.34;-72.68;0.67;8.0;996.48;55.501;23.032131;72.53528;16.96;NaN;;4.4;6.451613;23.09;18 / 21;109580;2018-06-12 12:10:17:222
0.2825;9.1629;2.5762;0.0223;9.3692;2.8962;1.0312;0.3276;-1.7901;0.4436;-0.237;-0.1289;8133.0;-14.76;-12.54;-38.64;23.67;-72.82;-0.44;8.0;996.48;64.795;23.032131;72.53528;16.96;NaN;;4.4;6.451613;23.09;18 / 21;110080;2018-06-12 12:10:17:722
-0.9745;10.882;6.613;-0.2484;9.4044;2.7688;-1.2384;3.5893;-0.6307;-0.3249;0.5778;0.0703;8154.0;-12.48;-12.42;-40.2;24.69;-73.53;5.13;8.0;996.47;57.958;23.032131;72.53528;16.96;NaN;;4.4;6.451613;23.09;18 / 21;110579;2018-06-12 12:10:18:221
-0.0599;12.4454;4.8364;0.1458;9.1277;3.5824;-0.2057;3.3177;1.254;-0.2516;-0.2542;0.0562;10396.0;-12.36;-9.0;-40.08;16.78;-68.55;-2.33;8.0;996.48;58.949;23.032131;72.53528;16.96;NaN;;4.4;6.451613;23.09;18 / 21;111079;2018-06-12 12:10:18:721
0.1221;10.8437;3.9434;0.4601;9.2413;3.2491;-0.338;1.6023;0.6943;0.052;-0.0831;0.1319;10071.0;-15.06;-10.56;-39.18;15.14;-70.45;-8.06;8.0;996.48;52.447;23.032131;72.53528;16.96;NaN;;4.4;6.451613;23.09;18 / 21;111580;2018-06-12 12:10:19:222
0.9888;10.5755;4.5036;0.3659;9.061;3.7328;-0.1241;1.5408;1.1084;0.1113;-0.157;0.2841;10697.0;-14.04;-7.32;-39.66;15.83;-67.51;-5.6;8.0;996.47;52.586;23.032131;72.53528;16.96;NaN;;4.4;6.451613;23.09;18 / 21;112079;2018-06-12 12:10:19:721
0.5148;8.3153;0.8212;0.2503;9.2459;3.2591;0.5063;-2.2665;-2.3038;0.352;0.116;-0.0263;9787.0;-17.4;-10.8;-38.4;22.87;-70.53;-4.39;8.0;996.49;57.454;23.032131;72.53528;16.96;NaN;;4.4;6.451613;23.09;18 / 21;112579;2018-06-12 12:10:20:221
-0.1963;7.5324;2.9354;0.3177;9.1995;3.3822;0.4341;-2.5242;-2.0893;0.0704;0.3213;-0.0519;9697.0;-14.34;-9.96;-39.54;16.19;-69.73;-5.37;8.0;996.51;61.769;23.032131;72.53528;16.96;NaN;;4.4;6.451613;23.09;18 / 21;113080;2018-06-12 12:10:20:722
-1.324;8.3297;4.4486;0.1241;9.2339;3.2999;-1.1105;-1.5699;-0.0101;-0.2119;-0.0471;0.0984;9147.0;-16.08;-11.64;-38.52;21.73;-71.87;-3.45;8.0;996.52;61.562;23.032131;72.53528;16.96;NaN;;4.4;6.451613;23.09;18 / 21;113581;2018-06-12 12:10:21:223
-0.2849;8.8923;2.2339;0.1202;9.2453;3.2681;-0.4051;-0.3529;-1.0343;0.1217;0.4868;0.0434;8879.0;-14.76;-11.4;-39.3;21.98;-70.52;-2.11;8.0;996.51;61.301;23.032228;72.53534;13.93;NaN;;4.46;6.451613;36.86;18 / 21;114080;2018-06-12 12:10:21:722
-1.0415;9.6441;9.103;0.034;9.155;3.5149;-1.0755;0.4891;5.5881;-0.2259;-0.2511;0.0745;10231.0;-14.16;-10.5;-40.32;21.89;-69.0;-0.55;8.0;996.52;67.772;23.032228;72.53534;13.93;NaN;;4.46;6.451613;36.86;18 / 21;114580;2018-06-12 12:10:22:222
0.7135;11.3393;2.0208;-0.0924;9.2338;3.3012;0.3821;1.2028;1.7842;0.2793;-0.1106;0.025;9801.0;-13.2;-11.16;-39.12;23.33;-70.32;1.6;8.0;996.52;59.239;23.032228;72.53534;13.93;NaN;;4.46;6.451613;36.86;18 / 21;115080;2018-06-12 12:10:22:722
-0.3256;11.3393;6.2084;-0.0373;9.116;3.6148;-0.2883;2.2232;2.5936;0.2695;-0.3543;-0.0464;10503.0;-11.1;-8.52;-40.44;19.12;-67.99;0.9;8.0;996.54;58.504;23.032228;72.53534;13.93;NaN;;4.46;6.451613;36.86;18 / 21;115580;2018-06-12 12:10:23:222
0.4549;9.7112;2.3871;0.0701;9.3114;3.0762;0.0232;1.4149;0.429;0.184;0.1472;0.0415;9294.0;-14.76;-12.0;-38.7;23.63;-70.77;-0.78;8.0;996.54;63.047;23.032228;72.53534;13.93;NaN;;4.46;6.451613;36.86;18 / 21;116080;2018-06-12 12:10:23:722
0.3089;7.7527;2.5882;0.0496;9.1585;3.5056;0.094;-0.35;-1.1952;0.2561;0.2706;-0.1845;9113.0;-14.4;-9.36;-40.56;20.84;-69.05;-0.81;8.0;996.53;61.036;23.032228;72.53534;13.93;NaN;;4.46;6.451613;36.86;18 / 21;116580;2018-06-12 12:10:24:222
-0.1245;6.7183;3.0024;-0.0228;9.1904;3.4214;-0.1017;-2.4721;-0.4189;-0.3346;0.0128;0.1949;9000.0;-13.92;-10.8;-39.78;23.03;-69.58;0.38;8.0;996.54;52.903;23.032228;72.53534;13.93;NaN;;4.46;6.451613;36.86;18 / 21;117080;2018-06-12 12:10:24:722
0.103;6.8285;4.1421;0.1678;9.2665;3.2053;-0.5485;-1.1092;0.3335;-0.2729;0.4037;0.0977;9075.0;-12.18;-10.92;-39.66;15.89;-70.9;-3.0;8.0;996.55;65.115;23.032228;72.53534;13.93;NaN;;4.46;6.451613;36.86;18 / 21;117580;2018-06-12 12:10:25:222
1.1062;8.9953;1.9585;0.2046;9.4299;2.6844;0.2336;0.2837;1.7642;0.4112;0.0733;-0.1087;7389.0;-14.04;-13.14;-38.34;18.09;-74.07;-4.36;8.0;996.57;59.902;23.032228;72.53534;13.93;NaN;;4.46;6.451613;36.86;18 / 21;118079;2018-06-12 12:10:25:721
-0.8883;11.2268;2.6145;-0.0464;9.5531;2.2151;-0.8419;1.6737;0.3994;-0.0848;0.4294;0.2266;7246.0;-12.54;-15.54;-37.5;23.19;-76.94;1.2;8.0;996.55;70.057;23.032228;72.53534;13.93;NaN;;4.46;6.451613;36.86;18 / 22;118580;2018-06-12 12:10:26:222
0.1437;11.7319;2.2722;0.1847;9.5147;2.3679;-0.041;2.2173;-0.0957;0.2695;-0.1473;-0.1362;6854.0;-13.62;-13.8;-38.7;16.85;-74.65;-4.96;8.0;996.59;60.739;23.032228;72.53534;13.93;NaN;;4.46;6.451613;36.86;18 / 22;119080;2018-06-12 12:10:26:722
0.8835;10.5324;2.9545;0.0578;9.405;2.7771;0.3971;1.0963;0.515;0.1559;-0.1045;0.3054;6963.0;-11.82;-12.9;-38.52;18.24;-73.55;-1.19;8.0;996.62;62.762;23.032228;72.53534;13.93;NaN;;4.46;6.451613;36.86;18 / 21;119579;2018-06-12 12:10:27:221
0.3879;8.9761;2.0256;0.4205;9.3766;2.8412;-0.1834;-0.9464;-0.3512;-0.0439;6.0E-4;-0.0654;6647.0;-11.76;-12.66;-37.92;10.57;-72.97;-8.42;8.0;996.64;65.557;23.032228;72.53534;13.93;NaN;;4.46;6.451613;36.86;18 / 21;120079;2018-06-12 12:10:27:721
1.3719;6.2179;0.8212;0.1863;9.3607;2.9176;-0.2103;-2.5322;-0.8705;0.0215;-0.132;0.2816;6144.0;-15.18;-12.0;-38.4;20.51;-72.66;-3.65;8.0;996.64;69.011;23.032228;72.53534;13.93;NaN;;4.46;6.451613;36.86;18 / 21;120579;2018-06-12 12:10:28:221
0.5938;7.1876;2.5571;0.3529;9.2207;3.3204;0.2409;-2.033;-0.7633;0.1321;-0.0092;0.1613;5797.0;-12.72;-10.62;-39.42;14.51;-70.09;-6.07;8.0;996.62;66.479;23.032228;72.53534;13.93;NaN;;4.46;6.451613;36.86;18 / 21;121081;2018-06-12 12:10:28:723
1.1876;9.0097;0.8093;0.4311;9.4638;2.5339;0.7565;-0.4542;-1.7246;-0.0811;-0.0666;-0.3152;5361.0;-15.12;-13.62;-37.32;14.18;-74.81;-9.65;8.0;996.62;52.207;23.032228;72.53534;13.93;NaN;;4.46;6.451613;36.86;16 / 20;121580;2018-06-12 12:10:29:222
0.0694;12.0049;1.0224;0.1058;9.544;2.2519;-0.0364;2.4609;-1.2296;-0.5093;0.2028;0.0275;5063.0;-13.08;-14.1;-37.44;15.9;-75.87;-5.28;8.0;996.61;60.209;23.032228;72.53534;13.93;NaN;;4.46;6.451613;36.86;16 / 20;122080;2018-06-12 12:10:29:722
0.747;11.8062;2.4039;0.3299;9.5215;2.3243;-0.0569;2.4882;0.3094;-0.0139;-0.0813;0.1698;4867.0;-13.2;-14.52;-38.28;12.24;-76.15;-8.08;8.0;996.6;65.912;23.032228;72.53534;13.93;NaN;;4.46;6.451613;36.86;17 / 21;122580;2018-06-12 12:10:30:222
0.6273;10.7982;3.2706;0.3137;9.3887;2.815;0.6081;1.1365;0.8315;0.2414;0.1264;-0.0324;5018.0;-14.46;-12.48;-38.28;15.85;-73.21;-6.36;8.0;996.6;73.025;23.032228;72.53534;13.93;NaN;;4.46;6.451613;36.86;17 / 21;123080;2018-06-12 12:10:30:722
0.5746;8.9354;2.684;0.2626;9.2765;3.1698;0.2497;-0.6332;-1.1395;-0.3389;-0.0507;0.0434;4593.0;-16.56;-11.1;-38.22;22.34;-71.07;-4.74;8.0;996.56;67.555;23.032303;72.5354;11.16;NaN;;4.23;6.451613;29.61;16 / 20;123579;2018-06-12 12:10:31:221
0.8212;6.8644;1.0702;0.2693;9.1256;3.5807;0.4825;-2.6419;-1.3851;0.2548;-0.1558;-0.0977;4735.0;-17.88;-10.44;-37.14;25.42;-68.52;-4.3;8.0;996.61;62.466;23.032303;72.5354;11.16;NaN;;4.23;6.451613;29.61;16 / 20;124079;2018-06-12 12:10:31:721
0.5459;7.2283;3.9075;0.1633;9.1285;3.5796;0.3826;-1.9002;0.3279;-0.4776;-0.3354;0.2071;4831.0;-17.52;-10.68;-37.68;26.86;-68.57;-2.61;8.0;996.6;68.558;23.032303;72.5354;11.16;NaN;;4.23;6.451613;29.61;16 / 20;124580;2018-06-12 12:10:32:222
-0.7518;8.7032;4.2355;0.4338;9.4381;2.6275;0.8448;-0.1268;-1.5764;-0.0652;0.0598;-0.3586;5100.0;-19.62;-13.8;-36.12;22.48;-74.24;-9.37;8.0;996.63;46.817;23.032303;72.5354;11.16;NaN;;4.23;6.451613;29.61;16 / 20;125080;2018-06-12 12:10:32:722
-1.5946;11.1142;6.0839;0.2364;9.4326;2.6721;-1.1295;2.2946;1.3143;-0.3976;0.3763;-0.0189;5047.0;-17.46;-13.92;-36.24;23.2;-74.12;-5.06;8.0;996.62;47.831;23.032303;72.5354;11.16;NaN;;4.23;6.451613;29.61;17 / 20;125580;2018-06-12 12:10:33:222
-0.0383;11.7008;3.0695;0.3784;9.4733;2.5069;0.1364;2.2778;-0.6897;-0.0793;0.1527;-0.0929;5279.0;-18.06;-12.9;-36.6;19.55;-75.02;-8.58;8.0;996.62;49.683;23.032303;72.5354;11.16;NaN;;4.23;6.451613;29.61;17 / 20;126079;2018-06-12 12:10:33:721
0.8955;11.3872;3.1293;0.1643;9.4292;2.6896;0.2188;2.1854;0.3991;-0.1624;-0.1839;0.3433;5435.0;-17.28;-13.86;-37.02;24.25;-74.05;-3.5;8.0;996.62;51.757;23.032303;72.5354;11.16;NaN;;4.23;6.451613;29.61;16 / 20;126579;2018-06-12 12:10:34:221
0.6105;9.285;3.4214;0.3238;9.3192;3.0362;0.2867;-0.0342;0.3852;-0.2522;-0.0397;0.1552;5374.0;-17.22;-11.82;-38.1;20.8;-71.86;-6.09;8.0;996.62;52.445;23.032303;72.5354;11.16;NaN;;4.23;6.451613;29.61;16 / 20;127079;2018-06-12 12:10:34:721
0.8811;6.8596;1.1085;0.1421;9.3563;2.9343;0.3129;-2.5493;-1.4523;0.016;-0.0965;0.1906;5414.0;-18.06;-13.26;-38.4;25.96;-72.57;-2.77;8.0;996.59;52.546;23.032303;72.5354;11.16;NaN;;4.23;6.451613;29.61;17 / 21;127579;2018-06-12 12:10:35:221
-0.0503;7.4103;3.5986;0.3414;9.3934;2.7959;-0.5712;-1.5306;0.4125;-0.6474;-0.0837;0.1411;5223.0;-17.88;-13.38;-37.74;21.03;-73.31;-6.96;8.0;996.58;51.469;23.032303;72.5354;11.16;NaN;;4.23;6.451613;29.61;17 / 21;128080;2018-06-12 12:10:35:722
0.9553;9.2682;1.7933;0.054;9.3524;2.9497;-0.4946;0.0045;0.6776;-0.0652;0.2895;-0.4337;4818.0;-18.3;-12.96;-38.64;27.23;-72.49;-1.05;8.0;996.58;50.832;23.032303;72.5354;11.16;NaN;;4.23;6.451613;29.61;16 / 20;128579;2018-06-12 12:10:36:221
-0.4669;10.518;5.1812;0.2381;9.4029;2.7747;-0.705;1.1151;2.4065;-0.6272;0.2156;-0.0098;5326.0;-18.0;-13.92;-38.7;22.78;-73.5;-4.9;8.0;996.58;51.93;23.032303;72.5354;11.16;NaN;;4.23;6.451613;29.61;16 / 20;129079;2018-06-12 12:10:36:721
0.9817;11.1549;3.6992;0.3017;9.3674;2.8863;0.68;1.7875;0.8129;0.4705;-0.0397;0.0843;5249.0;-16.5;-11.52;-39.96;18.06;-72.79;-5.97;8.0;996.59;51.902;23.032303;72.5354;11.16;NaN;;4.23;6.451613;29.61;15 / 20;129579;2018-06-12 12:10:37:221
0.6369;10.3935;3.3017;0.0504;9.3831;2.8504;0.3614;0.5675;1.1984;0.0398;0.0403;0.0574;5542.0;-17.04;-13.62;-39.66;25.29;-73.1;-1.01;8.0;996.56;62.12;23.032303;72.5354;11.16;NaN;;4.23;6.451613;29.61;15 / 20;130080;2018-06-12 12:10:37:722
-0.1628;8.7223;2.1979;0.2578;9.2661;3.2004;-0.1452;-1.6068;-1.6681;-0.0659;0.1906;-0.0318;5777.0;-16.32;-12.24;-41.7;18.85;-70.89;-4.6;8.0;996.53;62.487;23.032303;72.5354;11.16;NaN;;4.23;6.451613;29.61;17 / 21;130579;2018-06-12 12:10:38:221
-0.1628;7.0272;2.5044;0.293;9.3157;3.0499;-0.0153;-2.4274;-0.6269;-0.1544;-0.0764;0.1448;5405.0;-16.14;-13.26;-40.74;19.47;-72.77;-4.34;8.0;996.55;65.155;23.032303;72.5354;11.16;NaN;;4.23;6.451613;29.61;17 / 21;131079;2018-06-12 12:10:38:721
-1.5994;8.5428;2.6409;0.182;9.4332;2.6743;-1.7814;-0.8904;-0.0334;-0.4886;0.2962;0.0904;5280.0;-15.06;-15.0;-41.4;18.58;-74.14;-3.89;8.0;996.57;57.323;23.032303;72.5354;11.16;NaN;;4.23;6.451613;29.61;17 / 20;131580;2018-06-12 12:10:39:222
0.2753;8.8373;5.7941;0.2833;9.4232;2.7007;-0.0079;-0.5859;3.0935;-0.0897;-0.4667;-0.0648;4963.0;-14.7;-15.48;-42.42;15.7;-73.92;-5.99;8.0;996.55;63.592;23.032303;72.5354;11.16;NaN;;4.23;6.451613;29.61;17 / 20;132080;2018-06-12 12:10:39:722
0.3927;11.1884;3.4909;0.1243;9.41;2.758;0.2683;1.7784;0.7329;0.4027;-0.0379;0.0568;4597.0;-14.22;-15.72;-42.0;18.4;-73.65;-2.58;8.0;996.53;69.843;23.032394;72.53544;8.62;NaN;;4.09;9.677419;41.46;17 / 20;132580;2018-06-12 12:10:40:222
-0.4046;11.6266;2.9162;0.2986;9.363;2.9008;0.0749;1.1167;-0.382;0.3569;-0.0159;-0.1808;4474.0;-12.9;-15.9;-42.24;13.34;-72.7;-5.88;8.0;996.53;71.319;23.032394;72.53544;8.62;171.87679258408738;;4.09;9.677419;41.46;17 / 20;133080;2018-06-12 12:10:40:722
0.3137;9.7854;2.3584;0.2444;9.3891;2.8205;0.6582;-0.8607;-1.5707;0.1675;-0.0068;-0.0965;3520.0;-14.34;-17.76;-41.28;16.53;-73.22;-4.95;8.0;996.52;74.071;23.032394;72.53544;8.62;171.87679258408738;;4.09;9.677419;41.46;16 / 20;133580;2018-06-12 12:10:41:222
0.0718;7.846;0.984;0.5969;9.4;2.7301;-0.5251;-1.554;-1.7461;0.1241;0.0183;-0.2285;3951.0;-17.34;-17.22;-40.56;11.97;-73.44;-12.33;8.0;996.46;69.475;23.032394;72.53544;8.62;171.87679258408738;;4.09;9.677419;41.46;16 / 20;134082;2018-06-12 12:10:41:724
-0.668;7.3744;2.9474;0.5113;9.3711;2.8444;-1.1793;-1.9968;0.1029;-0.2381;0.0592;-0.0489;4011.0;-19.2;-16.5;-40.26;17.84;-72.86;-10.19;8.0;996.43;69.45;23.032394;72.53544;8.62;171.87679258408738;;4.09;9.677419;41.46;18 / 21;134580;2018-06-12 12:10:42:222
-0.2442;9.2539;2.8827;0.1915;9.3419;2.9769;-0.4357;-0.0881;-0.0942;0.5291;0.2956;-0.069;3909.0;-17.52;-16.26;-42.0;22.89;-72.29;-3.68;8.0;996.44;64.021;23.032394;72.53544;8.62;171.87679258408738;;4.09;9.677419;41.46;18 / 21;135080;2018-06-12 12:10:42:722
-0.0215;9.127;5.4015;0.3272;9.29;3.124;0.5611;0.8186;2.2895;-0.3188;-0.245;0.0525;3581.0;-17.34;-14.94;-43.44;18.39;-71.32;-5.98;8.0;996.45;52.343;23.032394;72.53544;8.62;171.87679258408738;;4.09;9.677419;41.46;16 / 19;135579;2018-06-12 12:10:43:221
0.7207;11.2268;4.3049;0.0939;9.3155;3.0632;0.4161;2.0358;0.873;-0.177;0.0403;0.168;3389.0;-19.14;-16.02;-44.1;25.3;-71.79;-1.76;8.0;996.47;44.792;23.032394;72.53544;8.62;171.87679258408738;;4.09;9.677419;41.46;16 / 19;136081;2018-06-12 12:10:43:723
0.9194;10.8269;3.6225;0.3281;9.2883;3.1288;0.4022;1.6056;0.9008;0.3544;-0.113;-0.0635;3432.0;-22.62;-15.6;-46.14;26.27;-70.9;-4.18;8.0;996.45;59.463;23.032394;72.53544;8.62;171.87679258408738;;4.09;9.677419;41.46;18 / 21;136580;2018-06-12 12:10:44:222
-0.0958;9.5819;2.3703;0.431;9.2824;3.1339;-0.1868;-0.5074;-1.7812;-0.0726;-0.0061;-0.2553;3193.0;-26.94;-19.74;-38.1;33.44;-71.18;-7.83;8.0;996.44;56.979;23.032394;72.53544;8.62;171.87679258408738;;4.09;9.677419;41.46;18 / 21;137080;2018-06-12 12:10:44:722
0.4573;7.19;2.6265;0.6217;9.1635;3.4372;-0.1333;-2.4188;-1.11;-0.3334;0.1741;0.069;2624.0;-26.4;-14.52;-36.9;29.93;-69.13;-10.25;8.0;996.48;53.266;23.032394;72.53544;8.62;171.87679258408738;;4.09;9.677419;41.46;17 / 20;137580;2018-06-12 12:10:45:222
0.1532;7.2618;3.2634;0.5266;9.2195;3.3006;-0.0454;-1.4644;0.2023;-0.3811;-0.2181;-0.1026;2799.0;-25.56;-14.46;-36.06;31.61;-70.07;-9.07;8.0;996.47;54.051;23.032394;72.53544;8.62;171.87679258408738;;4.09;9.677419;41.46;17 / 20;138080;2018-06-12 12:10:45:722
-0.8763;9.0599;3.5411;0.1828;9.2385;3.2844;-0.5084;0.7792;0.4148;0.4406;0.1893;0.1949;2864.0;-24.12;-14.28;-36.54;34.93;-70.4;-3.19;8.0;996.45;52.312;23.032394;72.53544;8.62;171.87679258408738;;4.09;9.677419;41.46;17 / 21;138580;2018-06-12 12:10:46:222
1.5323;8.957;4.1565;0.3471;9.3958;2.7874;0.297;0.428;2.0299;-0.1043;-0.5846;0.2254;2644.0;-21.0;-14.16;-35.28;27.48;-73.36;-7.1;8.0;996.42;52.414;23.032394;72.53544;8.62;171.87679258408738;;4.09;9.677419;41.46;17 / 21;139079;2018-06-12 12:10:46:721
0.7159;12.3449;1.3312;0.2439;9.4504;2.6078;0.3858;2.6718;-0.8911;0.4955;-0.1521;-0.1888;3029.0;-20.34;-15.0;-33.9;28.84;-74.51;-5.34;8.0;996.42;58.905;23.032394;72.53544;8.62;171.87679258408738;;4.09;9.677419;41.46;17 / 21;139580;2018-06-12 12:10:47:222
1.2666;10.5995;3.2418;0.2256;9.2765;3.1727;1.0409;1.323;0.0691;-0.0133;-0.0807;-0.1436;3009.0;-19.74;-10.8;-34.98;29.56;-71.07;-4.07;8.0;996.41;66.912;23.032394;72.53544;8.62;171.87679258408738;;4.09;9.677419;41.46;17 / 21;140080;2018-06-12 12:10:47:722
0.2059;10.8006;3.8907;0.2557;9.1556;3.5044;0.125;0.1486;-1.7326;-0.1825;0.3983;-0.2578;3020.0;-20.46;-8.34;-36.18;28.42;-69.0;-4.17;8.0;996.41;58.738;23.032394;72.53544;8.62;171.87679258408738;;4.09;9.677419;41.46;16 / 19;140579;2018-06-12 12:10:48:221
0.17;7.9418;2.3775;0.3782;8.922;4.0527;0.2107;-1.3633;-2.4677;0.4253;0.5833;0.0464;2919.0;-17.7;-3.78;-39.6;21.48;-65.48;-5.33;8.0;996.43;52.621;23.032394;72.53544;8.62;171.87679258408738;;4.09;9.677419;41.46;16 / 19;141080;2018-06-12 12:10:48:722
0.1053;7.5084;2.7582;0.1579;9.2164;3.347;0.3353;-2.218;-1.1922;-0.0616;-0.2963;-0.1875;3104.0;-16.68;-8.64;-38.82;22.33;-70.39;-3.96;8.0;996.42;54.145;23.032463;72.53548;6.39;171.87679258408738;;3.53;9.677419;58.98;20 / 23;141581;2018-06-12 12:10:49:223
-0.8739;7.5468;3.0503;-0.1689;9.2753;3.1798;-0.8918;-1.3622;-0.3953;-0.5277;0.2504;0.2498;2768.0;-17.46;-10.98;-39.06;30.44;-71.05;3.04;8.0;996.4;68.582;23.032463;72.53548;6.39;171.87679258408738;;3.53;9.677419;58.98;20 / 23;142080;2018-06-12 12:10:49:722
0.8308;10.0631;2.6768;0.2107;9.1558;3.5066;0.0622;0.8019;0.997;0.242;-0.2114;-0.1472;2858.0;-20.76;-9.48;-38.64;28.5;-69.01;-3.44;8.0;996.39;67.475;23.032463;72.53548;6.39;171.87679258408738;;3.53;9.677419;58.98;18 / 21;142581;2018-06-12 12:10:50:223
1.075;12.0911;3.8428;0.2231;9.1601;3.4948;1.1536;1.9494;0.7479;-0.3133;-0.5846;0.1979;2424.0;-21.66;-9.78;-38.28;30.5;-69.08;-3.65;8.0;996.39;66.311;23.032463;72.53548;6.39;171.87679258408738;;3.53;9.677419;58.98;18 / 21;143080;2018-06-12 12:10:50:722
0.8572;11.6194;4.7766;0.2781;9.0397;3.7916;0.579;2.5797;0.985;0.3764;-0.0245;-0.2291;2351.0;-20.7;-8.82;-38.58;28.17;-67.19;-4.2;8.0;996.39;62.109;23.032463;72.53548;6.39;171.87679258408738;;3.53;9.677419;58.98;19 / 22;143580;2018-06-12 12:10:51:222
0.0503;9.6944;3.6872;0.0229;9.0504;3.7763;0.1256;1.2905;0.9524;-0.1575;0.3048;0.0867;1806.0;-22.62;-10.5;-37.38;35.71;-68.09;-1.1;8.0;996.39;61.469;23.032463;72.53548;6.39;171.87679258408738;;3.53;9.677419;58.98;19 / 22;144080;2018-06-12 12:10:51:722
-0.5531;7.4845;1.5419;0.2253;8.9891;3.9135;-0.3522;-2.0553;-2.4794;0.0349;0.2278;-0.014;2124.0;-21.72;-8.64;-38.4;31.45;-66.44;-3.3;8.0;996.39;47.971;23.032463;72.53548;6.39;171.87679258408738;;3.53;9.677419;58.98;18 / 22;144580;2018-06-12 12:10:52:222
-0.8476;6.6848;2.9258;0.1732;8.8599;4.2002;-0.9849;-1.3108;1.0552;0.0514;0.1997;-0.0409;2408.0;-20.7;-8.04;-38.16;31.52;-64.62;-2.36;8.0;996.39;50.308;23.032463;72.53548;6.39;171.87679258408738;;3.53;9.677419;58.98;18 / 22;145079;2018-06-12 12:10:52:721
-0.7949;8.7559;-0.8476;0.3086;8.9844;3.9187;-0.7755;-0.2477;-0.9378;0.8773;0.0391;-0.2498;1697.0;-19.02;-9.42;-38.76;25.44;-66.37;-4.5;8.0;996.39;49.4;23.032463;72.53548;6.39;171.87679258408738;;3.53;9.677419;58.98;17 / 21;145579;2018-06-12 12:10:53:221
0.158;8.8085;6.4502;-0.0467;8.9487;4.0112;0.5567;0.1041;2.9131;0.0417;-0.2853;-0.1319;1625.0;-14.88;-8.34;-39.96;25.06;-65.85;0.67;8.0;996.38;49.141;23.032463;72.53548;6.39;171.87679258408738;;3.53;9.677419;58.98;17 / 21;146079;2018-06-12 12:10:53:721
1.0415;11.2914;4.3719;-0.1781;9.134;3.5648;0.633;2.0951;1.104;-0.0524;-0.2987;0.0654;1555.0;-14.46;-10.44;-39.78;25.89;-68.66;2.86;8.0;996.36;51.051;23.032463;72.53548;6.39;171.87679258408738;;3.53;9.677419;58.98;18 / 21;146579;2018-06-12 12:10:54:221
0.486;10.6018;4.1565;0.0282;9.1291;3.5817;0.4579;1.4727;0.5748;0.0588;-0.0727;-0.0586;1376.0;-14.04;-9.06;-39.96;21.9;-68.58;-0.45;8.0;996.38;49.204;23.032463;72.53548;6.39;171.87679258408738;;3.53;9.677419;58.98;18 / 21;147081;2018-06-12 12:10:54:723
0.498;9.0575;1.8125;-0.2857;9.2461;3.2556;0.9705;-1.5533;-2.3051;-0.0274;-0.0434;0.0941;1233.0;-15.9;-11.46;-38.76;31.44;-70.53;5.02;8.0;996.39;48.332;23.032463;72.53548;6.39;171.87679258408738;;3.53;9.677419;58.98;19 / 22;147581;2018-06-12 12:10:55:223
-0.1053;6.3688;0.9122;-0.0129;9.2183;3.3456;-0.0062;-3.1752;-0.7382;-0.075;-0.3598;0.0293;1210.0;-14.52;-10.02;-39.48;24.53;-70.05;0.22;8.0;996.38;50.434;23.032463;72.53548;6.39;171.87679258408738;;3.53;9.677419;58.98;19 / 22;148079;2018-06-12 12:10:55:721
-1.0247;7.7934;5.3464;-0.2288;9.1501;3.5205;-0.7959;-1.3567;1.8259;-0.1337;0.2089;-0.2016;1204.0;-15.42;-10.68;-38.34;29.74;-68.91;3.72;8.0;996.41;49.488;23.032463;72.53548;6.39;171.87679258408738;;3.53;9.677419;58.98;19 / 22;148579;2018-06-12 12:10:56:221
0.0168;7.8341;2.2363;0.0351;9.0884;3.6837;-0.5714;-1.0868;1.4425;0.5053;-0.38;0.0037;1300.0;-16.68;-9.66;-37.62;27.76;-67.94;-0.55;8.0;996.37;48.282;23.032463;72.53548;6.39;171.87679258408738;;3.53;9.677419;58.98;19 / 22;149079;2018-06-12 12:10:56:721
0.6225;9.9099;6.4789;-0.0118;9.2032;3.3869;0.9144;2.2702;-0.1355;-0.1483;-0.2841;0.2462;1442.0;-15.66;-10.32;-37.98;26.64;-69.8;0.2;8.0;996.36;48.255;23.032463;72.53548;6.39;171.87679258408738;;3.53;9.677419;58.98;16 / 20;149580;2018-06-12 12:10:57:222
-0.3376;11.0807;4.7143;-0.0425;9.1852;3.4353;-0.2113;2.0512;0.8121;0.2775;0.1594;-0.0611;1221.0;-17.94;-11.94;-37.56;30.64;-69.49;0.71;8.0;996.38;48.219;23.032463;72.53548;6.39;171.87679258408738;;3.53;9.677419;58.98;16 / 20;150080;2018-06-12 12:10:57:722
-0.8404;10.9658;4.4605;-0.4791;9.1529;3.4878;-0.3613;1.8129;0.9728;-0.1251;0.1533;0.1405;1259.0;-12.9;-10.5;-38.58;30.54;-68.96;7.82;8.0;996.39;47.978;23.032537;72.53553;4.52;171.87679258408738;;2.7;9.677419;29.56;18 / 22;150584;2018-06-12 12:10:58:226
0.407;6.9171;1.2785;-0.2263;9.3734;2.8738;0.6333;-2.4563;-1.5952;0.0282;-0.4637;0.1735;943.0;-17.7;-14.82;-36.72;35.25;-72.91;4.5;8.0;996.37;49.266;23.032537;72.53553;4.52;171.87679258408738;;2.7;9.677419;29.56;18 / 22;151080;2018-06-12 12:10:58:722
-0.6201;5.8348;3.7111;-0.0696;9.3;3.1104;-0.5505;-3.4652;0.6008;-0.3243;0.2193;0.3427;1010.0;-16.68;-12.36;-36.78;29.97;-71.5;1.28;8.0;996.39;49.144;23.032537;72.53553;4.52;171.87679258408738;;2.7;9.677419;29.56;20 / 23;151581;2018-06-12 12:10:59:223
1.9801;8.5978;1.0535;0.1109;9.3673;2.9002;1.8692;-0.7695;-1.8467;0.3501;-0.0159;-0.3946;1289.0;-15.72;-11.82;-37.38;24.25;-72.79;-2.19;8.0;996.38;49.954;23.032537;72.53553;4.52;171.87679258408738;;2.7;9.677419;29.56;20 / 23;152079;2018-06-12 12:10:59:721
-1.1038;9.5723;5.7151;0.0267;9.3754;2.8762;-0.3787;1.2552;2.4583;-0.3627;0.251;-0.0452;1113.0;-15.36;-12.66;-36.6;24.82;-72.94;-0.53;8.0;996.37;48.916;23.032537;72.53553;4.52;171.87679258408738;;2.7;9.677419;29.56;20 / 23;152580;2018-06-12 12:11:00:222
0.2322;11.526;3.0814;-0.081;9.2842;3.1571;0.3132;2.2419;-0.0757;-0.0775;-0.1387;-0.0257;1585.0;-13.14;-10.8;-38.7;22.63;-69.87;0.9;8.0;996.41;49.789;23.032537;72.53553;4.52;171.87679258408738;;2.7;9.677419;29.56;20 / 23;153080;2018-06-12 12:11:00:722
-0.1461;11.7679;3.352;-0.3683;9.2887;3.1233;0.2222;2.4792;0.2286;-0.1813;0.0085;0.1387;1221.0;-13.62;-12.54;-37.5;32.09;-71.29;6.72;8.0;996.4;49.147;23.032537;72.53553;4.52;171.87679258408738;;2.7;9.677419;29.56;19 / 22;153580;2018-06-12 12:11:01:222
-0.2658;9.7184;3.2083;-0.5218;9.1348;3.5289;0.1363;0.3417;-1.0197;0.0013;0.1967;0.0159;1256.0;-11.94;-10.38;-38.82;29.82;-68.67;8.41;8.0;996.38;48.781;23.032537;72.53553;4.52;171.87679258408738;;2.7;9.677419;29.56;19 / 22;154079;2018-06-12 12:11:01:721
-0.3879;6.3185;2.0327;-0.6159;9.3975;2.7346;-0.5071;-2.4038;-0.8096;-0.2186;-0.3635;0.3653;1177.0;-14.64;-13.68;-36.72;39.69;-73.39;12.69;8.0;996.4;49.266;23.032537;72.53553;4.52;171.87679258408738;;2.7;9.677419;29.56;18 / 21;154580;2018-06-12 12:11:02:222
-0.2203;5.4973;3.2203;-0.3831;9.3672;2.8772;0.1629;-3.87;0.3431;-0.6877;-0.1906;0.5217;1132.0;-14.34;-13.8;-36.24;33.47;-72.78;7.58;8.0;996.4;49.212;23.032537;72.53553;4.52;171.87679258408738;;2.7;9.677419;29.56;18 / 21;155080;2018-06-12 12:11:02:722
1.7742;8.7559;0.747;-0.2366;9.4168;2.7275;2.0107;-0.6609;-1.9805;0.176;-0.5223;-0.1692;1218.0;-15.84;-12.18;-37.5;31.92;-73.79;4.96;8.0;996.41;48.541;23.032537;72.53553;4.52;171.87679258408738;;2.7;9.677419;29.56;20 / 23;155581;2018-06-12 12:11:03:223
0.9912;10.5037;7.1661;0.0421;9.177;3.4571;1.5955;1.966;0.7233;-1.1929;-0.4197;0.0141;1297.0;-16.32;-9.72;-37.26;26.43;-69.36;-0.7;8.0;996.39;48.954;23.032537;72.53553;4.52;171.87679258408738;;2.7;9.677419;29.56;20 / 23;156080;2018-06-12 12:11:03:722
1.4318;11.4805;2.8899;0.0188;9.248;3.2625;0.0028;2.5533;2.321;0.3648;-0.1576;0.0648;1438.0;-14.04;-9.06;-39.18;22.14;-70.57;-0.33;8.0;996.37;48.014;23.032537;72.53553;4.52;171.87679258408738;;2.7;9.677419;29.56;19 / 22;156579;2018-06-12 12:11:04:221
0.4118;11.2675;4.3217;-0.0842;9.4537;2.606;0.769;0.54;-0.2046;-0.0365;0.0775;0.0996;1174.0;-15.18;-12.24;-37.38;26.84;-74.58;1.85;8.0;996.37;49.684;23.032537;72.53553;4.52;171.87679258408738;;2.7;9.677419;29.56;19 / 22;157080;2018-06-12 12:11:04:722
0.1891;8.5739;1.6616;0.3555;9.2657;3.1922;0.2718;-0.5865;-1.1618;-0.0182;0.0513;0.2492;1262.0;-14.64;-9.48;-39.66;18.09;-70.52;-4.7;8.0;996.36;47.74;23.032537;72.53553;4.52;171.87679258408738;;2.7;9.677419;29.56;18 / 21;157579;2018-06-12 12:11:05:221
0.3974;6.7327;2.2363;0.4617;9.2747;3.1524;-0.0643;-2.542;-0.9162;0.1516;0.171;-0.0513;1273.0;-14.58;-9.36;-38.22;15.06;-71.04;-8.33;8.0;996.37;49.745;23.032537;72.53553;4.52;171.87679258408738;;2.7;9.677419;29.56;18 / 21;158079;2018-06-12 12:11:05:721
-1.0271;7.7287;4.3672;0.4373;9.3849;2.8111;-0.8371;-0.902;-0.5725;-0.3682;0.3384;0.1313;1139.0;-11.22;-9.9;-39.3;7.8;-73.14;-8.84;8.0;996.36;49.506;23.032537;72.53553;4.52;171.87679258408738;;2.7;9.677419;29.56;18 / 21;158580;2018-06-12 12:11:06:222
2.7343;8.4566;0.7326;0.5005;9.2896;3.1021;1.0629;-1.0605;3.0488;-0.5228;-1.0165;0.1558;1121.0;-13.86;-8.58;-39.3;12.03;-71.31;-9.17;8.0;996.35;49.691;23.032537;72.53553;4.52;171.87679258408738;;2.7;9.677419;29.56;18 / 21;159080;2018-06-12 12:11:06:722
-0.9409;11.7846;4.2355;0.347;9.3367;2.9792;-1.288;2.4479;1.2563;-0.2613;0.4001;-0.1472;1109.0;-11.88;-8.82;-40.38;11.33;-72.19;-6.64;8.0;996.35;49.859;23.032648;72.53555;2.77;NaN;;2.72;9.677419;30.64;18 / 21;159579;2018-06-12 12:11:07:221
0.6919;11.3632;4.5156;0.3882;9.3002;3.0865;0.002;2.3336;0.5552;0.6012;-0.1521;-0.3018;1170.0;-10.8;-8.94;-39.48;10.02;-70.42;-7.04;8.0;996.34;49.691;23.032648;72.53555;2.77;NaN;;2.72;9.677419;30.64;18 / 21;160079;2018-06-12 12:11:07:721
-0.0455;11.1789;4.2953;0.0821;9.3677;2.9;0.2435;1.0785;1.5222;-0.0145;0.0531;-0.0898;1129.0;-15.06;-12.24;-37.92;22.78;-72.79;-1.62;8.0;996.34;49.28;23.032648;72.53555;2.77;NaN;;2.72;9.677419;30.64;18 / 21;160579;2018-06-12 12:11:08:221
0.0;9.3281;2.8803;0.1746;9.3002;3.1058;-0.2273;-1.6792;-2.2559;-0.0304;0.2859;-0.0367;1636.0;-13.68;-10.74;-38.28;19.61;-71.51;-3.22;8.0;996.36;50.057;23.032648;72.53555;2.77;NaN;;2.72;9.677419;30.64;18 / 21;161080;2018-06-12 12:11:08:722
-0.9242;6.1198;2.7103;0.0578;9.2827;3.1621;-0.4816;-2.7128;-1.4502;0.2121;0.1759;-0.036;1977.0;-16.92;-10.2;-37.08;25.67;-71.58;-2.11;8.0;996.35;50.698;23.032648;72.53555;2.77;NaN;;2.72;9.677419;30.64;18 / 21;161580;2018-06-12 12:11:09:222
0.0646;5.672;3.2251;0.0513;9.0081;3.8758;-0.4416;-3.3025;0.137;-0.51;-0.3757;0.4233;2368.0;-14.58;-5.94;-39.12;23.3;-66.72;-0.76;8.0;996.38;49.62;23.032648;72.53555;2.77;NaN;;2.72;9.677419;30.64;18 / 21;162080;2018-06-12 12:11:09:722
1.8747;7.9131;0.5196;0.2268;9.143;3.5389;2.0574;-1.4095;-1.9922;0.3697;-0.3391;-0.7165;2395.0;-17.16;-7.8;-37.62;23.47;-68.8;-3.67;8.0;996.36;50.028;23.032648;72.53555;2.77;NaN;;2.72;9.677419;30.64;18 / 21;162580;2018-06-12 12:11:10:222
0.7326;11.5428;3.6465;0.0954;9.1045;3.6426;1.0826;2.4502;-0.0392;-0.1068;-0.3421;-0.3378;2689.0;-18.12;-9.18;-37.32;28.44;-68.19;-1.5;8.0;996.35;49.546;23.032648;72.53555;2.77;NaN;;2.72;9.677419;30.64;18 / 21;163037;2018-06-12 12:11:10:679
-0.2682;12.7519;4.8245;-0.2018;9.0925;3.6683;-0.0664;3.6594;1.1562;0.5297;0.1258;-0.193;3383.0;-21.24;-9.3;-35.88;38.46;-68.0;3.15;8.0;996.35;49.838;23.032648;72.53555;2.77;NaN;;2.72;9.677419;30.64;17 / 21;163537;2018-06-12 12:11:11:179
1.0511;10.1565;3.9075;0.0223;9.1863;3.4325;1.012;0.477;0.5898;0.1406;0.1502;-0.0232;3423.0;-25.86;-12.24;-32.16;44.84;-69.51;-0.37;8.0;996.33;50.226;23.032648;72.53555;2.77;NaN;;2.72;9.677419;30.64;17 / 21;164038;2018-06-12 12:11:11:680
-0.51;10.0751;2.4613;-0.2312;9.1455;3.5323;-0.3554;-1.4096;-2.1652;0.1559;0.2651;-0.0629;3643.0;-23.64;-12.78;-32.58;46.75;-68.84;3.74;8.0;996.34;50.741;23.032648;72.53555;2.77;NaN;;2.72;9.677419;30.64;17 / 20;164539;2018-06-12 12:11:12:181
-0.6153;6.7806;2.1357;-0.5481;9.2954;3.0766;-0.7712;-2.51;-0.079;0.1241;0.1582;0.0061;3387.0;-24.18;-14.46;-32.1;53.79;-71.42;10.1;8.0;996.36;49.648;23.032648;72.53555;2.77;NaN;;2.72;9.677419;30.64;17 / 20;165038;2018-06-12 12:11:12:680
-0.012;5.6074;1.9896;-0.1908;9.6184;1.9027;-1.0686;-2.4068;1.2578;-0.7775;0.2089;0.5302;2646.0;-22.98;-16.2;-32.46;45.24;-78.76;5.73;8.0;996.32;51.891;23.032648;72.53555;2.77;NaN;;2.72;9.677419;30.64;18 / 21;165537;2018-06-12 12:11:13:179
1.6209;7.4893;0.6153;0.3885;9.6081;1.9244;0.1526;-1.6855;0.2712;-0.2235;0.2174;-0.5156;2589.0;-22.92;-15.18;-33.6;23.71;-79.28;-12.3;8.0;996.33;52.274;23.032648;72.53555;2.77;NaN;;2.72;9.677419;30.64;18 / 21;166037;2018-06-12 12:11:13:679
-0.091;9.3065;2.4613;0.407;9.5837;2.0391;-0.6895;0.1347;2.5819;-0.0023;-0.157;0.1753;2338.0;-20.7;-14.82;-35.34;21.79;-77.76;-11.29;8.0;996.33;55.183;23.032648;72.53555;2.77;NaN;;2.72;9.677419;30.64;17 / 20;166538;2018-06-12 12:11:14:180
-0.2299;9.9458;5.3392;0.1299;9.6756;1.5923;0.3202;2.9661;1.0199;-0.1874;-0.088;0.4337;2907.0;-14.52;-15.78;-37.14;18.85;-80.62;-4.66;8.0;996.33;54.501;23.032648;72.53555;2.77;NaN;;2.72;9.677419;30.64;17 / 20;167038;2018-06-12 12:11:14:680
1.5515;12.9075;1.8077;0.2038;9.6864;1.5176;-0.0122;3.5468;0.7043;0.1302;0.0049;0.1289;2492.0;-16.26;-17.22;-36.3;17.69;-81.02;-7.65;8.0;996.33;52.333;23.032648;72.53555;2.77;NaN;;2.72;9.677419;30.64;18 / 21;167538;2018-06-12 12:11:15:180
0.4453;12.0384;2.2027;-0.2519;9.6858;1.5137;0.9008;2.0629;1.5773;-0.1612;-0.424;0.1588;2546.0;-14.1;-18.3;-36.6;40.32;-81.51;16.78;8.0;996.34;53.119;23.032648;72.53555;2.77;NaN;;2.72;9.677419;30.64;18 / 21;168037;2018-06-12 12:11:15:679
0.3591;9.9817;1.0846;-0.2201;9.6976;1.4416;0.462;-0.5012;-0.7616;0.0942;0.3543;-0.1607;2782.0;-16.08;-18.9;-35.58;35.33;-81.45;8.68;8.0;996.34;53.454;23.03272;72.535614;1.11;NaN;;3.68;9.677419;38.95;17 / 20;168538;2018-06-12 12:11:16:180
0.4669;6.6561;-0.2777;-0.1024;9.6528;1.7272;1.1224;-3.7772;-2.1534;0.1767;0.3592;-0.1674;3143.0;-14.88;-16.26;-37.02;27.72;-79.84;3.39;8.0;996.34;54.734;23.03272;72.535614;1.11;NaN;;3.68;9.677419;38.95;17 / 20;169037;2018-06-12 12:11:16:679
-1.415;7.0392;-0.2299;-0.1421;9.7457;1.0821;-1.4764;-1.95;-0.5099;0.8077;0.2229;-0.3305;3223.0;-15.84;-19.2;-33.9;34.69;-83.61;7.48;8.0;996.35;53.638;23.03272;72.535614;1.11;NaN;;3.68;9.677419;38.95;18 / 21;169538;2018-06-12 12:11:17:180
-1.4533;7.6784;2.7845;0.0268;9.7312;1.2139;-1.3892;-2.5364;1.7359;-0.0976;0.2034;0.0428;2855.0;-15.06;-19.08;-35.4;20.55;-84.29;-3.74;8.0;996.33;55.109;23.03272;72.535614;1.11;NaN;;3.68;9.677419;38.95;18 / 21;170037;2018-06-12 12:11:17:679
1.8268;8.605;-1.4916;0.0789;9.743;1.1123;1.7479;-1.138;-2.6039;-0.017;-0.5749;-0.2352;2882.0;-15.3;-19.5;-35.88;19.76;-83.47;-4.06;8.0;996.34;55.556;23.03272;72.535614;1.11;NaN;;3.68;9.677419;38.95;19 / 22;170537;2018-06-12 12:11:18:179
0.3232;12.7447;4.8747;0.3079;9.7064;1.3641;1.2891;3.7566;-2.2021;-0.9394;0.4917;0.5339;2569.0;-14.28;-18.54;-36.3;9.27;-81.8;-12.72;8.0;996.34;53.605;23.03272;72.535614;1.11;NaN;;3.68;9.677419;38.95;19 / 22;171037;2018-06-12 12:11:18:679
0.3567;13.0656;-1.257;0.0836;9.774;0.7949;-0.244;3.1838;0.0694;0.5322;-0.0807;-0.1319;2287.0;-13.74;-21.3;-35.28;16.59;-85.32;-6.0;8.0;996.33;54.528;23.03272;72.535614;1.11;NaN;;3.68;9.677419;38.95;17 / 20;171537;2018-06-12 12:11:19:179
0.2514;12.3138;1.4988;0.1395;9.7711;0.8227;0.9738;1.2019;-0.1164;-0.0414;0.1777;-0.0977;1894.0;-15.42;-20.88;-35.04;14.29;-85.12;-9.63;8.0;996.35;53.159;23.03272;72.535614;1.11;NaN;;3.68;9.677419;38.95;17 / 20;172037;2018-06-12 12:11:19:679
0.2873;10.5133;0.8045;-0.0369;9.6866;1.529;0.0871;1.9184;0.1111;-0.0579;0.1417;-0.0953;1862.0;-13.32;-17.46;-37.92;20.55;-81.4;0.18;8.0;996.33;53.605;23.03272;72.535614;1.11;NaN;;3.68;9.677419;38.95;19 / 22;172538;2018-06-12 12:11:20:180
0.8931;6.8644;1.1804;-0.2104;9.5767;2.1009;0.706;-3.3348;-0.2716;-0.0292;-0.0794;0.1246;1727.0;-14.16;-15.78;-37.74;28.88;-77.57;5.72;8.0;996.34;55.641;23.03272;72.535614;1.11;NaN;;3.68;9.677419;38.95;19 / 22;173037;2018-06-12 12:11:20:679
0.6249;6.6441;-0.0479;0.2879;9.5308;2.2917;0.0689;-3.253;-1.9541;-0.0952;-0.1705;0.1765;1940.0;-15.6;-13.86;-37.26;18.17;-76.38;-7.16;8.0;996.35;55.874;23.03272;72.535614;1.11;NaN;;3.68;9.677419;38.95;18 / 21;173537;2018-06-12 12:11:21:179
0.1437;8.7008;3.838;0.3486;9.6518;1.7007;0.384;-0.8145;1.0958;-0.4165;0.1844;-0.3256;1813.0;-16.86;-16.62;-37.08;14.36;-79.8;-11.58;8.0;996.34;54.02;23.03272;72.535614;1.11;NaN;;3.68;9.677419;38.95;18 / 21;174038;2018-06-12 12:11:21:680
1.1493;8.4757;-1.1277;0.3486;9.6449;1.739;-0.1978;-0.3001;-0.6233;0.3984;-0.0721;0.2046;1652.0;-14.28;-16.08;-37.38;10.31;-79.58;-11.34;8.0;996.34;54.589;23.03272;72.535614;1.11;NaN;;3.68;9.677419;38.95;18 / 21;174539;2018-06-12 12:11:22:181
-0.7829;10.3481;6.3568;0.4095;9.615;1.8851;-1.1924;0.733;4.4717;-0.2302;-0.0116;0.0727;1767.0;-13.26;-16.5;-38.28;7.35;-78.66;-12.25;8.0;996.34;54.315;23.03272;72.535614;1.11;NaN;;3.68;9.677419;38.95;18 / 21;175038;2018-06-12 12:11:22:680
-0.0048;11.4566;2.8851;0.0752;9.4873;2.4812;-0.6331;1.797;1.5891;0.0734;-0.0043;-0.1258;1656.0;-11.52;-13.62;-38.52;17.39;-75.34;-1.74;8.0;996.35;55.029;23.03272;72.535614;1.11;NaN;;3.68;9.677419;38.95;17 / 20;175538;2018-06-12 12:11:23:180
-0.0527;10.5228;2.3416;0.0622;9.4437;2.6426;-0.1508;0.471;-1.1198;-0.028;0.0916;-0.1161;1491.0;-12.66;-13.5;-40.26;18.86;-74.36;-1.35;8.0;996.34;55.031;23.03272;72.535614;1.11;NaN;;3.68;9.677419;38.95;17 / 20;176037;2018-06-12 12:11:23:679
0.7757;6.8117;0.7757;0.1139;9.5152;2.3703;0.5756;-3.4026;-1.4102;-0.0378;-0.1344;0.1533;1367.0;-16.5;-13.92;-39.0;21.87;-76.0;-2.75;8.0;996.37;55.558;23.03272;72.535614;1.11;NaN;;3.68;9.677419;38.95;18 / 21;176537;2018-06-12 12:11:24:179
0.9888;5.5188;0.2059;0.1242;9.5497;2.2267;0.8646;-4.0309;-2.0208;0.1058;0.0604;0.2773;1275.0;-16.56;-15.18;-40.62;21.46;-76.85;-3.19;8.0;996.36;55.569;23.03272;72.535614;1.11;NaN;;3.68;9.677419;38.95;18 / 21;177038;2018-06-12 12:11:24:680
-0.8164;9.0264;4.4605;0.3738;9.5405;2.2379;-0.4504;-0.2675;1.4732;-0.3407;0.2254;-0.2767;941.0;-17.58;-14.16;-38.34;17.66;-76.62;-9.48;8.0;996.36;55.338;23.032825;72.53569;-0.25;NaN;;3.62;9.677419;7.62;18 / 21;177537;2018-06-12 12:11:25:179
1.5898;9.4909;0.2634;0.2583;9.5215;2.3332;-1.9869;1.4562;6.3388;-0.0219;-0.1204;0.1301;806.0;-13.32;-14.82;-43.92;11.35;-76.15;-6.32;8.0;996.35;55.799;23.032825;72.53569;-0.25;NaN;;3.62;9.677419;7.62;18 / 21;178038;2018-06-12 12:11:25:680
0.7183;12.7902;3.0838;0.4902;9.5624;2.1191;0.3597;2.7921;-0.6227;0.2017;0.0385;-0.0092;799.0;-13.02;-15.06;-42.6;4.21;-77.19;-13.03;8.0;996.38;59.513;23.032825;72.53569;-0.25;NaN;;3.62;9.677419;7.62;18 / 21;178538;2018-06-12 12:11:26:180
1.6137;11.3177;2.8372;1.2226;9.5668;1.7753;0.3912;1.7509;1.062;0.1449;0.2419;0.2266;815.0;-13.74;-15.6;-42.06;342.06;-77.3;-34.55;8.0;996.37;57.162;23.032825;72.53569;-0.25;NaN;;3.62;9.677419;7.62;18 / 21;179038;2018-06-12 12:11:26:680
2.9186;10.1421;1.3073;2.633;9.2551;1.8922;0.2856;0.8871;-0.5849;0.1412;-0.4967;-0.0208;541.0;-16.08;-12.48;-38.22;323.63;-70.69;-54.3;8.0;996.37;56.712;23.032825;72.53569;-0.25;NaN;;3.62;9.677419;7.62;17 / 20;179537;2018-06-12 12:11:27:179
2.7774;7.7287;-1.3049;1.6066;9.5594;1.4852;0.3327;-2.0821;-1.4397;-0.0042;-0.5987;-0.2321;555.0;-20.7;-14.76;-34.68;341.82;-77.11;-47.25;8.0;996.36;56.514;23.032825;72.53569;-0.25;NaN;;3.62;9.677419;7.62;17 / 20;180037;2018-06-12 12:11:27:679
0.0072;6.3041;2.842;0.1842;8.2519;5.2955;-1.3646;-2.1657;0.6711;0.7887;0.6634;0.4704;1604.0;-15.3;-1.68;-41.04;21.85;-57.29;-1.99;8.0;996.39;58.077;23.032825;72.53569;-0.25;NaN;;3.62;9.677419;7.62;18 / 21;180538;2018-06-12 12:11:28:180
-1.2354;8.866;1.5802;-0.2988;9.6427;1.7602;-0.9366;-0.7767;-0.18;-0.1495;-0.2126;-0.3372;1752.0;-12.54;-19.74;-37.02;24.96;-76.17;2.0;8.0;996.35;56.894;23.032825;72.53569;-0.25;NaN;;3.62;9.677419;7.62;18 / 21;181037;2018-06-12 12:11:28:679
-2.1668;10.2355;2.8995;-0.3554;9.6418;1.7546;-1.8114;0.5937;1.1448;0.407;0.4923;-0.5156;742.0;-13.98;-18.96;-37.56;34.96;-79.48;11.45;8.0;996.33;56.609;23.032825;72.53569;-0.25;NaN;;3.62;9.677419;7.62;18 / 21;181538;2018-06-12 12:11:29:180
-1.5275;11.787;6.2922;-0.2763;9.5665;2.1392;-1.2513;2.2205;4.153;-0.5191;0.3036;0.0275;742.0;-13.5;-16.92;-38.82;28.93;-77.29;7.36;8.0;996.35;56.416;23.032825;72.53569;-0.25;NaN;;3.62;9.677419;7.62;18 / 21;182037;2018-06-12 12:11:29:679
-0.589;11.9738;4.1349;-0.2176;9.4854;2.4798;0.1553;1.8467;2.0861;-0.3536;0.218;0.1521;869.0;-13.26;-14.58;-39.6;26.06;-75.3;5.01;8.0;996.35;56.391;23.032825;72.53569;-0.25;NaN;;3.62;9.677419;7.62;17 / 20;182538;2018-06-12 12:11:30:180
0.1987;10.0416;3.1317;-0.0213;9.3818;2.8552;-0.0721;-0.1447;-0.7075;-0.1831;0.1258;0.1356;885.0;-11.76;-12.18;-40.8;19.05;-73.07;0.43;8.0;996.35;54.042;23.032825;72.53569;-0.25;NaN;;3.62;9.677419;7.62;17 / 20;183037;2018-06-12 12:11:30:679
0.5291;8.2555;0.237;-0.0125;9.3547;2.9427;0.6661;-2.1096;-2.4902;-0.05;0.0366;-0.2126;936.0;-13.98;-11.88;-39.54;20.78;-72.48;-1.14;8.0;996.35;54.452;23.032825;72.53569;-0.25;NaN;;3.62;9.677419;7.62;18 / 21;183538;2018-06-12 12:11:31:180
0.3041;6.2491;2.9066;0.1106;9.2801;3.1683;0.1935;-3.031;-0.2617;0.093;-0.0177;-0.0116;994.0;-13.26;-10.5;-40.5;18.32;-71.14;-2.0;8.0;996.35;54.408;23.032825;72.53569;-0.25;NaN;;3.62;9.677419;7.62;18 / 21;184039;2018-06-12 12:11:31:681
0.2801;7.7455;2.0232;0.1386;9.4822;2.4977;0.6372;-0.8987;-2.062;-0.086;-0.413;-0.1955;1016.0;-17.34;-13.8;-38.52;22.95;-75.22;-3.18;8.0;996.35;55.971;23.032825;72.53569;-0.25;NaN;;3.62;9.677419;7.62;17 / 20;184537;2018-06-12 12:11:32:179
-2.1094;10.3457;8.2076;-0.0775;9.4327;2.6811;-0.3344;2.8619;0.4746;-0.5093;0.1136;0.0476;1155.0;-15.36;-12.72;-38.82;25.68;-74.13;1.65;8.0;996.34;54.297;23.032825;72.53569;-0.25;NaN;;3.62;9.677419;7.62;17 / 20;185038;2018-06-12 12:11:32:680
0.1604;12.4694;1.5419;0.1254;9.5072;2.4017;0.7413;2.3134;-0.6539;-0.2308;-0.3012;0.1973;1270.0;-15.6;-12.78;-39.3;21.78;-73.88;-3.13;8.0;996.36;54.162;23.032825;72.53569;-0.25;NaN;;3.62;9.677419;7.62;18 / 21;185537;2018-06-12 12:11:33:179
-0.067;12.1581;2.4039;-0.3915;9.5906;2.0095;0.4753;2.4455;-0.5657;-0.4147;-0.0074;-0.1319;896.0;-15.18;-16.74;-37.5;36.78;-77.95;11.02;8.0;996.35;55.298;23.032825;72.53569;-0.25;NaN;;3.62;9.677419;7.62;18 / 21;186037;2018-06-12 12:11:33:679
-0.1844;9.9961;3.5316;-0.4374;9.4381;2.627;0.1789;-0.1723;-0.2567;-0.3884;0.2907;0.168;984.0;-13.08;-13.5;-38.82;31.45;-74.24;9.45;8.0;996.34;54.341;23.032904;72.53574;-1.27;173.0180478351659;;3.28;6.451613;43.83;18 / 21;186538;2018-06-12 12:11:34:180
0.1173;6.9937;0.5148;-0.5437;9.3651;2.8581;-1.1994;-1.6699;-0.8015;0.3129;-0.1448;0.212;1523.0;-17.58;-14.7;-37.62;41.53;-72.74;10.77;8.0;996.37;54.98;23.032904;72.53574;-1.27;173.0180478351659;;3.28;6.451613;43.83;18 / 21;187037;2018-06-12 12:11:34:679
-0.9457;8.0112;3.2035;-0.0675;9.4407;2.6531;-0.8783;-1.4295;0.5505;0.261;0.3585;-0.5174;1415.0;-17.88;-14.58;-37.44;31.33;-74.3;1.46;8.0;996.36;55.301;23.032904;72.53574;-1.27;173.0180478351659;;3.28;6.451613;43.83;18 / 22;187539;2018-06-12 12:11:35:181
1.6329;9.8884;0.9146;0.2085;9.3353;2.9963;0.7324;0.292;-0.7074;0.275;-0.1033;-0.171;1630.0;-21.6;-12.36;-37.38;30.49;-72.16;-3.98;8.0;996.37;55.542;23.032904;72.53574;-1.27;173.0180478351659;;3.28;6.451613;43.83;18 / 22;188037;2018-06-12 12:11:35:679
-1.099;11.5643;4.8628;0.0789;9.4597;2.5841;0.4838;2.5045;-0.5035;-0.5894;-0.135;0.0525;1633.0;-20.88;-14.7;-36.54;31.56;-74.71;-1.75;8.0;996.32;54.409;23.032904;72.53574;-1.27;173.0180478351659;;3.28;6.451613;43.83;19 / 22;188537;2018-06-12 12:11:36:179
0.9745;11.8948;3.2826;0.2955;9.4692;2.5332;0.8274;1.9084;1.7118;0.7619;-0.2309;-0.1704;1661.0;-20.04;-12.72;-37.02;26.56;-73.79;-4.98;8.0;996.33;53.508;23.032904;72.53574;-1.27;173.0180478351659;;3.28;6.451613;43.83;19 / 22;189037;2018-06-12 12:11:36:679
0.6943;11.0831;3.103;0.0191;9.4263;2.7045;-0.2082;0.8308;0.183;0.0062;0.2938;0.1863;1556.0;-21.54;-14.76;-35.88;35.39;-73.99;-0.4;8.0;996.34;54.199;23.032904;72.53574;-1.27;173.0180478351659;;3.28;6.451613;43.83;17 / 20;189537;2018-06-12 12:11:37:179
-0.079;8.4566;2.095;0.257;9.4347;2.6628;-0.3647;-0.1832;-0.4816;-0.0555;-0.2028;0.099;1537.0;-22.62;-14.52;-36.18;31.38;-74.5;-4.96;8.0;996.32;55.246;23.032904;72.53574;-1.27;173.0180478351659;;3.28;6.451613;43.83;17 / 20;190038;2018-06-12 12:11:37:680
0.0024;7.0823;0.3903;-0.0759;9.536;2.2866;-0.0558;-2.6022;-1.937;0.0581;-0.2346;-0.0397;1521.0;-23.64;-17.7;-32.76;42.79;-76.51;1.9;8.0;996.35;54.129;23.032904;72.53574;-1.27;173.0180478351659;;3.28;6.451613;43.83;18 / 21;190538;2018-06-12 12:11:38:180
-0.3807;8.0639;2.4493;-0.0464;9.5692;2.1443;-0.375;-0.6194;-0.7628;-0.4122;0.295;0.4215;1265.0;-20.1;-17.52;-35.52;34.03;-77.37;1.24;8.0;996.35;53.597;23.032904;72.53574;-1.27;173.0180478351659;;3.28;6.451613;43.83;18 / 21;191038;2018-06-12 12:11:38:680
1.0559;9.3425;0.1796;-0.1208;9.6186;1.9073;-0.5113;-0.1852;2.2036;0.1956;-0.3989;-0.0586;1279.0;-18.42;-18.78;-36.12;33.64;-78.76;3.62;8.0;996.34;54.72;23.032904;72.53574;-1.27;173.0180478351659;;3.28;6.451613;43.83;18 / 21;191538;2018-06-12 12:11:39:180
1.0655;12.0025;0.3615;-0.146;9.7034;1.4118;1.0821;3.2281;-1.0096;0.1803;0.0745;-0.0556;1265.0;-16.98;-21.24;-36.18;38.33;-81.08;9.79;8.0;996.33;53.598;23.032904;72.53574;-1.27;173.0180478351659;;3.28;6.451613;43.83;18 / 21;192038;2018-06-12 12:11:39:680
-0.103;12.127;3.2107;0.0207;9.7126;1.355;-0.1212;2.3067;1.3434;0.0062;-0.0257;-0.1264;1295.0;-16.08;-20.7;-35.7;25.09;-82.06;-0.87;8.0;996.34;53.195;23.032904;72.53574;-1.27;173.0180478351659;;3.28;6.451613;43.83;18 / 21;192538;2018-06-12 12:11:40:180
0.8045;10.7072;2.8923;0.2181;9.5213;2.3384;0.2583;1.7989;0.3959;0.611;0.171;0.0623;1394.0;-21.96;-17.1;-34.68;30.44;-76.14;-5.33;8.0;996.34;54.079;23.032904;72.53574;-1.27;173.0180478351659;;3.28;6.451613;43.83;18 / 21;193037;2018-06-12 12:11:40:679
0.4382;8.3081;0.1915;0.5011;9.6743;1.5254;-0.8028;-1.2153;-0.2348;0.1437;-0.0013;-0.0489;1317.0;-21.84;-18.3;-33.0;16.96;-80.58;-18.19;8.0;996.35;52.311;23.032904;72.53574;-1.27;173.0180478351659;;3.28;6.451613;43.83;18 / 22;193538;2018-06-12 12:11:41:180
-0.5722;8.5524;3.6513;0.39;9.5275;2.2901;-0.9623;-0.9752;1.3612;-0.2192;0.3323;0.1222;1506.0;-23.52;-16.08;-33.66;25.85;-77.07;-12.1;8.0;996.33;54.867;23.032904;72.53574;-1.27;173.0180478351659;;3.28;6.451613;43.83;18 / 22;194037;2018-06-12 12:11:41:679
-0.2179;9.7998;6.2826;0.6778;9.3734;2.8017;-1.2309;1.0536;4.0292;-0.0628;0.0446;0.1307;1568.0;-22.44;-12.24;-35.46;21.19;-72.91;-13.6;8.0;996.32;56.139;23.032904;72.53574;-1.27;173.0180478351659;;3.28;6.451613;43.83;19 / 22;194538;2018-06-12 12:11:42:180
1.3935;11.7319;2.605;1.0088;9.3982;2.6126;0.3846;2.3337;-0.0076;0.5181;0.2003;-0.1851;1959.0;-22.86;-11.34;-34.44;14.66;-73.41;-21.11;8.0;996.3;54.575;23.032904;72.53574;-1.27;173.0180478351659;;3.28;6.451613;43.83;19 / 22;195038;2018-06-12 12:11:42:680
1.9322;10.8772;2.083;0.8389;9.5019;2.2759;0.8155;1.234;-0.5616;-0.1465;0.0684;0.0654;1619.0;-22.62;-14.4;-34.56;14.72;-75.68;-20.23;8.0;996.32;56.041;23.032978;72.53579;-2.13;173.0180478351659;;3.33;6.451613;43.45;17 / 21;195537;2018-06-12 12:11:43:179
0.8404;8.5069;1.3576;1.0959;9.4043;2.5551;-0.2555;-0.8974;-1.1976;0.0013;-0.0385;-0.1466;2027.0;-26.04;-12.72;-33.84;16.2;-73.53;-23.21;8.0;996.34;55.494;23.032978;72.53579;-2.13;173.0180478351659;;3.33;6.451613;43.45;17 / 21;196037;2018-06-12 12:11:43:679
-0.4741;7.4438;1.5611;-0.0309;9.6316;1.8444;-0.0864;-2.4943;-1.4278;0.3917;0.1038;0.025;1886.0;-23.7;-17.82;-33.12;36.96;-78.46;-2.69;8.0;996.33;54.248;23.032978;72.53579;-2.13;173.0180478351659;;3.33;6.451613;43.45;18 / 21;196537;2018-06-12 12:11:44:179
0.4741;8.7583;-0.5722;0.5057;9.6575;1.6268;-0.6158;-0.0278;-0.717;-0.1434;0.0488;0.3916;1668.0;-20.46;-17.28;-35.7;12.89;-80.0;-17.27;8.0;996.33;53.432;23.032978;72.53579;-2.13;173.0180478351659;;3.33;6.451613;43.45;18 / 21;197038;2018-06-12 12:11:44:680
-0.0934;9.807;3.1772;0.4279;9.5534;2.1726;-0.6027;1.1825;2.4101;-0.2265;-0.482;-0.1362;1863.0;-21.54;-14.88;-35.76;22.59;-76.95;-11.14;8.0;996.33;52.624;23.032978;72.53579;-2.13;173.0180478351659;;3.33;6.451613;43.45;18 / 21;197538;2018-06-12 12:11:45:180
0.9266;12.1222;2.4805;0.547;9.5468;2.1746;0.6214;2.9297;-0.1993;0.0612;-0.1369;-0.0519;1942.0;-25.02;-14.58;-33.06;25.52;-76.66;-14.3;8.0;996.36;52.144;23.032978;72.53579;-2.13;173.0180478351659;;3.33;6.451613;43.45;18 / 21;198037;2018-06-12 12:11:45:679
0.8308;11.1621;1.7957;0.3379;9.4109;2.737;-0.1416;2.6012;0.8449;-0.1783;-0.4997;-0.2272;2234.0;-26.58;-12.54;-33.06;36.65;-73.0;-6.96;8.0;996.33;51.979;23.032978;72.53579;-2.13;173.0180478351659;;3.33;6.451613;43.45;19 / 22;198537;2018-06-12 12:11:46:179
1.3456;8.3345;0.8524;0.4367;9.5213;2.3075;0.9089;-1.1868;-1.4552;-0.2571;0.1038;0.044;1393.0;-32.16;-16.62;-25.44;46.36;-76.14;-10.72;8.0;996.35;50.826;23.032978;72.53579;-2.13;173.0180478351659;;3.33;6.451613;43.45;19 / 22;199037;2018-06-12 12:11:46:679
0.3113;7.3911;-0.2299;0.2808;9.6433;1.76;0.2436;-4.0958;-1.7217;-0.2406;0.2144;0.1307;1219.0;-31.98;-19.62;-23.58;48.48;-79.53;-9.06;8.0;996.36;50.876;23.032978;72.53579;-2.13;173.0180478351659;;3.33;6.451613;43.45;18 / 21;199538;2018-06-12 12:11:47:180
0.5196;9.1533;2.3919;0.3917;9.6519;1.6905;0.9347;-0.58;-0.8741;-0.5051;-0.2053;-0.405;1518.0;-34.74;-18.84;-19.92;51.43;-79.81;-13.05;8.0;996.36;51.6;23.032978;72.53579;-2.13;173.0180478351659;;3.33;6.451613;43.45;18 / 21;200037;2018-06-12 12:11:47:679
1.0104;9.3065;1.3959;0.2977;9.6208;1.8768;0.7127;-0.3142;-0.481;0.4607;-0.3611;0.3317;1670.0;-34.62;-19.32;-21.12;54.82;-78.83;-9.01;8.0;996.34;50.919;23.032978;72.53579;-2.13;173.0180478351659;;3.33;6.451613;43.45;17 / 21;200537;2018-06-12 12:11:48:179
-0.237;11.2196;2.751;0.1313;9.6591;1.6896;-0.5479;2.9228;0.1037;-0.2247;-0.6103;0.0733;1868.0;-35.94;-20.28;-17.4;65.19;-80.05;-4.44;8.0;996.36;50.456;23.032978;72.53579;-2.13;173.0180478351659;;3.33;6.451613;43.45;17 / 21;201037;2018-06-12 12:11:48:679
-0.1963;12.4478;5.1668;0.3697;9.542;2.2325;-0.5661;2.9059;2.9343;0.1583;0.1808;-0.0648;1921.0;-37.68;-21.0;-12.54;68.86;-76.66;-9.4;8.0;996.35;50.95;23.032978;72.53579;-2.13;173.0180478351659;;3.33;6.451613;43.45;19 / 22;201540;2018-06-12 12:11:49:182
0.1101;11.6553;3.3759;0.1541;9.5349;2.2873;-0.1685;1.9217;0.9474;-0.2485;0.0354;-0.066;2224.0;-36.66;-21.66;-13.2;74.66;-76.48;-3.85;8.0;996.35;49.74;23.032978;72.53579;-2.13;173.0180478351659;;3.33;6.451613;43.45;19 / 22;202037;2018-06-12 12:11:49:679
0.0934;8.9283;3.1389;0.164;9.3324;3.0081;-0.0682;-1.4505;-0.2858;-0.6987;-0.3317;0.2352;2342.0;-37.26;-22.38;-11.76;79.75;-72.11;-3.12;8.0;996.34;49.599;23.032978;72.53579;-2.13;173.0180478351659;;3.33;6.451613;43.45;19 / 22;202537;2018-06-12 12:11:50:179
-0.5962;8.0256;1.2546;0.26;9.4132;2.7375;0.08;-1.5696;-2.3616;-0.009;-0.0654;0.3109;2706.0;-37.32;-21.42;-14.64;71.03;-73.63;-6.0;8.0;996.34;50.12;23.032978;72.53579;-2.13;173.0180478351659;;3.33;6.451613;43.45;19 / 22;203037;2018-06-12 12:11:50:679
-0.091;6.9578;4.8149;0.467;9.3541;2.9074;-0.558;-2.3963;1.9075;-0.4373;-0.0526;0.0061;3079.0;-37.5;-22.26;-11.52;73.45;-72.53;-9.13;8.0;996.34;50.768;23.032978;72.53579;-2.13;173.0180478351659;;3.33;6.451613;43.45;19 / 22;203537;2018-06-12 12:11:51:179
0.067;9.8812;0.0862;-0.1087;9.4998;2.4313;-1.5481;0.3215;1.7898;0.4082;-0.3806;0.0922;2514.0;-36.84;-24.0;-10.62;85.29;-75.63;2.56;8.0;996.32;51.099;23.032978;72.53579;-2.13;173.0180478351659;;3.33;6.451613;43.45;19 / 22;204037;2018-06-12 12:11:51:679
-1.0271;11.8062;6.2922;-0.1291;9.592;2.0364;-0.1558;3.2341;1.6819;-0.645;-0.5205;-0.3677;2847.0;-37.32;-24.96;-5.7;92.51;-77.99;3.63;8.0;996.34;51.159;23.033049;72.53587;-2.89;173.0180478351659;;3.64;6.451613;81.79;19 / 22;204538;2018-06-12 12:11:52:180
-0.1149;12.4742;2.1908;-0.0916;9.6521;1.7316;1.2073;2.3624;-0.4554;-0.3682;-1.0006;0.4685;3735.0;-35.7;-27.54;0.66;107.79;-79.27;8.44;8.0;996.34;50.561;23.033049;72.53587;-2.89;173.0180478351659;;3.64;6.451613;81.79;19 / 22;205037;2018-06-12 12:11:52:679
1.403;11.3656;1.8388;0.3278;9.5276;2.2996;1.0058;0.0232;-0.4392;0.0313;-0.3006;-0.0269;4813.0;-35.88;-26.82;5.34;99.79;-76.3;-8.11;8.0;996.34;51.724;23.033049;72.53587;-2.89;173.0180478351659;;3.64;6.451613;81.79;19 / 22;205537;2018-06-12 12:11:53:179
0.7805;9.4095;0.6177;0.0374;9.5606;2.1825;0.4702;-1.5254;-1.8306;0.0386;-0.1051;0.0;5048.0;-33.06;-28.98;11.22;116.61;-77.14;-0.98;8.0;996.32;50.94;23.033049;72.53587;-2.89;173.0180478351659;;3.64;6.451613;81.79;19 / 22;206037;2018-06-12 12:11:53:679
-0.2179;7.4486;0.7566;-0.0671;9.529;2.3161;-0.1125;-2.4371;-1.2028;-0.0451;0.1961;-0.0336;5030.0;-34.26;-29.7;9.0;116.46;-76.33;1.66;8.0;996.32;51.725;23.033049;72.53587;-2.89;173.0180478351659;;3.64;6.451613;81.79;17 / 20;206538;2018-06-12 12:11:54:180
-1.3145;7.4989;3.2682;-0.2332;9.6469;1.7471;-0.6958;-2.3564;-0.3393;0.4497;0.0519;-0.1808;4614.0;-34.32;-28.14;11.22;116.12;-80.39;1.7;8.0;996.35;52.673;23.033049;72.53587;-2.89;173.0180478351659;;3.64;6.451613;81.79;17 / 20;207037;2018-06-12 12:11:54:679
-1.0511;8.8133;-0.0287;-0.4081;9.6963;1.4093;-1.0428;-0.4783;-1.201;-0.0842;0.0452;0.2688;4337.0;-33.96;-28.56;10.14;127.81;-81.4;16.15;8.0;996.33;51.492;23.033049;72.53587;-2.89;173.0180478351659;;3.64;6.451613;81.79;18 / 21;207538;2018-06-12 12:11:55:180
-2.0687;10.4414;6.2179;-0.0962;9.6066;1.9681;-1.247;1.8164;3.5603;-0.2357;0.0702;-0.0696;4801.0;-35.52;-27.54;7.8;113.11;-78.41;2.8;8.0;996.33;51.267;23.033049;72.53587;-2.89;173.0180478351659;;3.64;6.451613;81.79;18 / 21;208037;2018-06-12 12:11:55:679
-0.7542;11.5883;3.7901;0.0538;9.6816;1.5598;-0.4847;1.8396;2.6948;-0.0115;0.1557;-0.1943;4080.0;-35.7;-26.52;7.74;106.83;-80.84;-1.97;8.0;996.33;51.672;23.033049;72.53587;-2.89;173.0180478351659;;3.64;6.451613;81.79;19 / 22;208537;2018-06-12 12:11:56:179
0.1245;11.4949;2.8157;-0.2052;9.5336;2.2886;0.3297;1.9613;0.5271;0.1143;-0.3427;-0.011;5144.0;-36.48;-28.08;5.16;113.02;-76.48;5.92;8.0;996.34;53.344;23.033049;72.53587;-2.89;173.0180478351659;;3.64;6.451613;81.79;19 / 22;209037;2018-06-12 12:11:56:679
0.3137;8.2124;1.0319;-0.263;9.5489;2.2178;0.5766;-1.3366;-1.1858;-0.017;0.2718;0.0061;4823.0;-35.64;-28.44;8.16;118.72;-77.33;8.23;8.0;996.34;52.144;23.033049;72.53587;-2.89;173.0180478351659;;3.64;6.451613;81.79;18 / 21;209537;2018-06-12 12:11:57:179
0.5818;7.0033;0.3759;-0.1302;9.5447;2.2477;0.6162;-3.0442;-1.5486;-0.064;0.1576;-0.0055;5106.0;-36.96;-27.72;6.66;112.74;-76.73;3.31;8.0;996.35;51.093;23.033049;72.53587;-2.89;173.0180478351659;;3.64;6.451613;81.79;18 / 21;210037;2018-06-12 12:11:57:679
-1.9513;8.4542;3.0024;-0.4656;9.5764;2.0606;-1.0619;-0.7056;0.2235;-0.2302;0.3292;-0.5229;4844.0;-34.74;-29.22;10.68;127.41;-77.56;12.73;8.0;996.36;51.535;23.033049;72.53587;-2.89;173.0180478351659;;3.64;6.451613;81.79;19 / 22;210537;2018-06-12 12:11:58:179
-1.9801;9.807;4.4342;-0.4632;9.5067;2.362;-1.5169;0.3003;2.0722;0.5933;0.3005;-0.1051;5724.0;-34.98;-29.7;6.36;120.56;-75.79;11.1;8.0;996.35;51.503;23.033049;72.53587;-2.89;173.0180478351659;;3.64;6.451613;81.79;19 / 22;211038;2018-06-12 12:11:58:680
0.8164;8.4686;4.4079;-0.0397;9.4586;2.589;0.8561;-0.9901;1.8189;0.3355;-0.6897;0.0202;6192.0;-37.44;-27.6;5.58;110.4;-74.69;0.88;8.0;996.35;52.301;23.033049;72.53587;-2.89;173.0180478351659;;3.64;6.451613;81.79;19 / 22;211539;2018-06-12 12:11:59:181
0.3951;12.1486;1.2474;-0.2983;9.6024;1.9684;0.2672;2.4264;-0.5941;-0.0762;-0.2584;0.2266;5211.0;-34.74;-29.1;7.56;119.33;-78.29;8.62;8.0;996.34;52.775;23.033049;72.53587;-2.89;173.0180478351659;;3.64;6.451613;81.79;19 / 22;212037;2018-06-12 12:11:59:679
0.0982;11.5141;4.2115;-0.027;9.3937;2.8157;0.4651;1.7182;0.4237;-0.0946;-0.1375;0.036;5557.0;-35.88;-28.08;7.44;112.76;-73.31;0.55;8.0;996.34;50.267;23.033049;72.53587;-2.89;173.0180478351659;;3.64;6.451613;81.79;18 / 21;212537;2018-06-12 12:12:00:179
0.4382;9.2084;1.5611;-0.1026;9.4034;2.7812;0.8089;-1.1767;-2.5322;0.0154;0.0421;0.0342;5556.0;-34.38;-28.5;10.38;119.13;-73.51;2.11;8.0;996.35;50.639;23.033049;72.53587;-2.89;173.0180478351659;;3.64;6.451613;81.79;18 / 21;213037;2018-06-12 12:12:00:679
0.0311;8.2483;0.9505;-0.1333;9.3647;2.9077;-0.1684;-0.0366;-1.5932;0.1192;0.4862;-0.1374;5607.0;-35.76;-27.18;7.26;113.35;-72.41;1.08;8.0;996.34;52.892;23.033016;72.535965;-3.63;NaN;;3.99;9.677419;115.99;18 / 22;213537;2018-06-12 12:12:01:179
-1.2354;7.5108;2.241;-0.3076;9.4533;2.5907;-0.4825;-2.2848;-1.3049;0.0453;-0.0544;0.1839;5244.0;-33.6;-28.86;9.66;121.56;-74.67;5.2;8.0;996.36;50.968;23.033016;72.535965;-3.63;NaN;;3.99;9.677419;115.99;18 / 22;214038;2018-06-12 12:12:01:680
0.1844;7.6808;1.0966;-0.1111;9.5308;2.3071;0.2954;-1.8499;-1.2105;-0.5509;0.168;0.3421;5594.0;-36.72;-26.82;7.26;112.12;-76.38;2.76;8.0;996.35;52.412;23.033016;72.535965;-3.63;NaN;;3.99;9.677419;115.99;18 / 21;214537;2018-06-12 12:12:02:179
-0.1532;9.2563;-0.3448;-0.167;9.5317;2.2999;-0.6087;-0.4238;-0.6263;0.8016;-0.3714;-0.347;4439.0;-35.82;-27.48;8.52;116.54;-76.4;4.15;8.0;996.37;51.668;23.033016;72.535965;-3.63;NaN;;3.99;9.677419;115.99;18 / 21;215038;2018-06-12 12:12:02:680
0.4501;12.2659;1.2067;-0.1856;9.5617;2.1701;0.7004;2.3067;-0.925;0.0441;0.0207;-0.0739;4450.0;-36.48;-27.54;7.86;115.76;-77.17;4.89;8.0;996.36;50.951;23.033016;72.535965;-3.63;NaN;;3.99;9.677419;115.99;18 / 21;215539;2018-06-12 12:12:03:181
-0.0311;13.3888;3.7446;-0.2454;9.4776;2.5069;0.2142;3.9112;1.2378;0.385;0.2248;-0.2676;4109.0;-35.82;-27.0;5.76;114.54;-75.12;5.59;8.0;996.37;51.604;23.033016;72.535965;-3.63;NaN;;3.99;9.677419;115.99;18 / 21;216038;2018-06-12 12:12:03:680
1.4054;11.1406;1.3815;-0.0232;9.636;1.8211;1.4287;1.5045;-0.4396;-0.2192;-0.0648;-0.0055;3502.0;-35.1;-26.4;8.88;112.02;-79.3;0.73;8.0;996.35;51.356;23.033016;72.535965;-3.63;NaN;;3.99;9.677419;115.99;19 / 22;216538;2018-06-12 12:12:04:180
-0.3376;11.2315;2.8205;-0.3921;9.5102;2.3606;0.3729;0.2106;-0.371;-0.1996;0.0635;-0.1399;3243.0;-35.64;-27.6;3.48;113.77;-75.88;9.43;8.0;996.38;50.983;23.033016;72.535965;-3.63;NaN;;3.99;9.677419;115.99;19 / 22;217041;2018-06-12 12:12:04:683
0.2562;6.6082;0.6177;-0.3549;9.6144;1.8995;0.1706;-3.1378;-1.1286;-0.1166;-0.3635;0.0984;2589.0;-33.9;-27.72;8.46;121.2;-78.64;10.58;8.0;996.38;51.293;23.033016;72.535965;-3.63;NaN;;3.99;9.677419;115.99;18 / 21;217537;2018-06-12 12:12:05:179
-0.2346;7.3863;0.8643;-0.3141;9.5664;2.1343;0.0795;-2.1801;-1.27;-0.0512;-0.0666;0.2663;2668.0;-35.58;-27.06;5.22;114.47;-77.29;8.37;8.0;996.39;52.041;23.033016;72.535965;-3.63;NaN;;3.99;9.677419;115.99;18 / 21;218037;2018-06-12 12:12:05:679
0.1891;9.7208;1.7478;9.0E-4;9.6646;1.6633;1.1124;-0.2;-1.3089;-0.2937;0.2486;-0.3085;2775.0;-35.28;-25.5;9.12;110.5;-80.23;-0.03;8.0;996.37;51.031;23.033016;72.535965;-3.63;NaN;;3.99;9.677419;115.99;19 / 22;218537;2018-06-12 12:12:06:179
-0.7566;9.783;6.352;-0.0677;9.5758;2.1142;0.118;1.73;1.4198;-0.7207;0.091;0.1167;2663.0;-35.88;-26.52;4.98;108.27;-77.54;1.83;8.0;996.37;50.726;23.033016;72.535965;-3.63;NaN;;3.99;9.677419;115.99;19 / 22;219037;2018-06-12 12:12:06:679
-0.4573;13.566;2.1644;0.1342;9.5865;2.0619;1.0198;2.2317;-0.4793;0.239;0.1325;-0.3464;2747.0;-36.54;-25.38;4.74;101.82;-77.84;-3.72;8.0;996.36;50.571;23.033016;72.535965;-3.63;NaN;;3.99;9.677419;115.99;18 / 21;219537;2018-06-12 12:12:07:179
-0.0934;11.4734;3.783;-0.1366;9.667;1.6435;0.0432;1.8064;2.1395;-0.0695;-0.041;0.2645;1888.0;-34.8;-26.52;7.32;112.6;-80.32;4.75;8.0;996.36;50.943;23.033016;72.535965;-3.63;NaN;;3.99;9.677419;115.99;18 / 21;220037;2018-06-12 12:12:07:679
0.1365;11.6074;2.1261;-0.2174;9.5482;2.2259;0.0282;1.7671;-0.3942;-0.0506;-0.1088;-0.0709;2343.0;-36.42;-26.52;4.32;110.77;-76.82;5.58;8.0;996.37;49.648;23.033016;72.535965;-3.63;NaN;;3.99;9.677419;115.99;20 / 23;220538;2018-06-12 12:12:08:180
1.1301;6.8811;-1.0966;-0.1244;9.6034;1.9824;1.2545;-2.7222;-3.0789;0.1308;-0.1625;0.1637;2396.0;-35.4;-26.7;9.36;115.53;-78.31;3.59;8.0;996.37;50.674;23.033016;72.535965;-3.63;NaN;;3.99;9.677419;115.99;20 / 23;221037;2018-06-12 12:12:08:679
0.4765;7.3241;-0.1939;-0.2343;9.6158;1.9111;0.4307;-2.9381;-1.4849;0.2811;0.0604;0.0067;2429.0;-35.52;-25.98;8.28;116.31;-78.68;6.99;8.0;996.38;49.889;23.033016;72.535965;-3.63;NaN;;3.99;9.677419;115.99;18 / 21;221537;2018-06-12 12:12:09:179
-1.257;7.5875;-0.2993;-0.4054;9.7624;0.8368;-0.8516;-2.175;-1.1361;0.1577;0.1111;0.0202;2220.0;-35.46;-26.1;13.32;138.6;-84.56;25.84;8.0;996.34;49.799;23.033016;72.535965;-3.63;NaN;;3.99;9.677419;115.99;18 / 21;222038;2018-06-12 12:12:09:680
-0.6824;8.9402;-2.0423;-0.1918;9.7823;0.6635;-0.4906;-0.8421;-2.7059;0.2151;0.2547;-0.2022;1684.0;-36.48;-25.56;9.3;122.48;-85.96;16.12;8.0;996.36;49.934;23.033016;72.535965;-3.63;NaN;;3.99;9.677419;115.99;19 / 22;222538;2018-06-12 12:12:10:180
-0.0982;8.9091;2.6217;-0.1273;9.7427;1.1104;0.0291;-0.8336;1.5113;0.0771;-0.6396;0.2162;1956.0;-35.7;-25.74;9.78;116.02;-83.46;6.54;8.0;996.37;51.066;23.033016;72.535965;-3.63;NaN;;3.99;9.677419;115.99;19 / 22;223038;2018-06-12 12:12:10:680
-0.8739;11.5739;3.8835;0.4948;9.7781;0.5606;1.8061;1.7887;-0.8934;-0.0762;-0.449;0.0776;1585.0;-37.14;-24.6;12.48;69.23;-85.63;-41.43;8.0;996.39;51.044;23.033016;72.535965;-3.63;NaN;;3.99;9.677419;115.99;18 / 21;223538;2018-06-12 12:12:11:180
-0.3663;12.9554;-0.6704;0.1952;9.7981;0.3586;-0.5615;3.1573;-1.029;0.4222;-0.1356;-0.248;1602.0;-37.26;-24.48;13.62;83.61;-87.61;-28.56;8.0;996.4;49.973;23.033016;72.535965;-3.63;NaN;;3.99;9.677419;115.99;18 / 21;224038;2018-06-12 12:12:11:680
1.1205;11.799;0.3879;0.2199;9.8032;0.1392;0.4434;2.7332;0.6557;-0.0726;0.0971;-0.0049;1676.0;-36.18;-24.24;14.82;69.12;-88.24;-44.52;8.0;996.38;49.911;23.033016;72.535965;-3.63;NaN;;3.99;9.677419;115.99;18 / 21;224538;2018-06-12 12:12:12:180
-0.5004;10.5468;1.6113;0.2158;9.7611;0.9186;-0.7162;0.7857;0.6927;-0.2112;0.2889;0.1173;1752.0;-36.6;-25.98;12.18;98.37;-84.48;-13.22;8.0;996.37;51.104;23.033016;72.535965;-3.63;NaN;;3.99;9.677419;115.99;18 / 21;225039;2018-06-12 12:12:12:681
0.3687;8.5763;-0.3879;0.1722;9.7789;0.716;-0.1411;-2.0526;-0.4622;-0.0323;0.1344;0.0177;1573.0;-35.94;-26.28;14.22;100.55;-85.69;-13.52;8.0;996.38;49.753;23.032993;72.53606;-4.48;NaN;;3.3;6.451613;123.51;17 / 20;225537;2018-06-12 12:12:13:179
0.9817;6.2969;-0.498;-0.0345;9.74;1.1406;-0.26;-3.1677;-0.7001;-0.3346;-0.0269;0.3433;2072.0;-36.54;-25.08;8.76;109.44;-83.32;1.73;8.0;996.38;50.484;23.032993;72.53606;-4.48;NaN;;3.3;6.451613;123.51;17 / 20;226038;2018-06-12 12:12:13:680
-0.7159;8.1908;2.162;0.1663;9.6933;1.4772;-0.6691;-2.0628;-0.122;0.0398;0.1221;-0.2248;1775.0;-37.32;-25.14;9.36;92.35;-81.6;-16.85;8.0;996.37;50.615;23.032993;72.53606;-4.48;NaN;;3.3;6.451613;123.51;19 / 22;226537;2018-06-12 12:12:14:179
-0.0718;8.6888;-0.771;0.1515;9.7501;1.0403;0.2698;-0.7237;-3.765;0.1632;-0.0196;0.16;2415.0;-36.6;-25.44;10.26;100.74;-83.85;-8.29;8.0;996.36;52.06;23.032993;72.53606;-4.48;NaN;;3.3;6.451613;123.51;19 / 22;227038;2018-06-12 12:12:14:680
1.5084;9.024;2.411;0.1157;9.7056;1.399;-0.4605;0.3336;3.6936;-0.3297;-0.7801;0.5058;2293.0;-37.5;-25.26;8.1;102.69;-81.77;-4.73;8.0;996.36;50.445;23.032993;72.53606;-4.48;NaN;;3.3;6.451613;123.51;18 / 21;227538;2018-06-12 12:12:15:180
1.6497;12.1366;0.5962;0.1926;9.7273;1.23;1.0716;2.1986;0.0701;-0.0921;-0.1992;0.1197;1748.0;-36.18;-25.02;9.24;99.93;-82.71;-8.9;8.0;996.35;51.044;23.032993;72.53606;-4.48;NaN;;3.3;6.451613;123.51;18 / 21;228038;2018-06-12 12:12:15:680
0.4238;11.4614;2.2841;0.0373;9.6933;1.4859;0.1566;2.539;-0.339;0.6794;-0.0373;-0.4288;1880.0;-36.36;-25.44;7.68;104.95;-80.88;-3.43;8.0;996.37;50.126;23.032993;72.53606;-4.48;NaN;;3.3;6.451613;123.51;18 / 21;228537;2018-06-12 12:12:16:179
0.9314;11.4686;0.9912;-0.1929;9.6916;1.4851;0.2432;0.9653;-0.3861;-0.0775;0.0678;0.306;2285.0;-33.36;-27.48;11.1;121.39;-81.22;7.4;8.0;996.38;50.748;23.032993;72.53606;-4.48;NaN;;3.3;6.451613;123.51;18 / 21;229038;2018-06-12 12:12:16:680
-0.3974;9.7064;0.1317;-0.033;9.7232;1.2761;-0.3644;-0.0168;-1.1445;-0.1172;0.0775;-0.0232;1813.0;-34.86;-25.86;10.32;112.23;-82.52;1.48;8.0;996.35;50.015;23.032993;72.53606;-4.48;NaN;;3.3;6.451613;123.51;19 / 23;229537;2018-06-12 12:12:17:179
-0.577;7.3959;-0.158;-0.1671;9.785;0.6296;-0.9391;-2.4034;-1.0965;0.1406;0.3304;0.1423;2281.0;-34.02;-25.02;12.0;126.37;-86.19;14.86;8.0;996.35;50.539;23.032993;72.53606;-4.48;NaN;;3.3;6.451613;123.51;19 / 23;230038;2018-06-12 12:12:17:680
-0.4597;7.5994;1.1109;0.0582;9.7788;0.7363;-1.7055;-0.5704;2.3452;-0.6529;0.3689;0.2401;1975.0;-37.5;-24.66;7.02;99.01;-85.68;-4.52;8.0;996.36;51.946;23.032993;72.53606;-4.48;NaN;;3.3;6.451613;123.51;19 / 22;230538;2018-06-12 12:12:18:180
0.7111;9.5603;3.3185;0.1227;9.7211;1.2865;0.5884;-0.1608;2.032;0.22;0.1973;-0.4685;2512.0;-36.54;-24.36;7.38;96.19;-83.41;-8.67;8.0;996.35;51.016;23.032993;72.53606;-4.48;NaN;;3.3;6.451613;123.51;19 / 22;231038;2018-06-12 12:12:18:680
-0.9338;10.1326;-0.9457;0.108;9.7289;1.2272;-1.7721;0.7771;0.456;0.9567;0.1454;-0.1967;1947.0;-36.06;-25.38;7.92;102.21;-82.78;-5.03;8.0;996.35;51.102;23.032993;72.53606;-4.48;NaN;;3.3;6.451613;123.51;20 / 23;231538;2018-06-12 12:12:19:180
1.1469;10.1493;5.7127;0.1467;9.6553;1.71;-0.082;3.2498;0.7897;-1.0194;-0.7795;0.4276;2168.0;-36.72;-24.96;6.84;102.24;-79.92;-4.9;8.0;996.35;51.387;23.032993;72.53606;-4.48;NaN;;3.3;6.451613;123.51;20 / 23;232038;2018-06-12 12:12:19:680
0.5411;11.9618;2.9785;0.2824;9.6746;1.5789;-0.0932;2.8283;1.4595;-0.4037;0.408;0.1772;2289.0;-36.36;-24.54;6.9;97.2;-80.59;-10.14;8.0;996.36;50.735;23.032993;72.53606;-4.48;NaN;;3.3;6.451613;123.51;18 / 21;232539;2018-06-12 12:12:20:181
1.6999;10.7431;0.5603;0.3052;9.6954;1.4409;1.3947;1.0477;-0.8806;0.041;-0.3794;0.1112;2194.0;-38.04;-22.8;3.3;87.84;-81.36;-11.96;8.0;996.36;51.453;23.032993;72.53606;-4.48;NaN;;3.3;6.451613;123.51;18 / 21;233037;2018-06-12 12:12:20:679
0.771;9.3784;-0.6488;0.291;9.7117;1.3299;0.4009;0.7537;-0.7409;-0.0671;0.1661;-0.0385;2030.0;-36.36;-24.96;8.52;96.5;-81.63;-13.12;8.0;996.37;49.756;23.032993;72.53606;-4.48;NaN;;3.3;6.451613;123.51;19 / 23;233538;2018-06-12 12:12:21:180
0.6967;8.7487;-0.1724;0.3088;9.7104;1.3352;0.388;-0.9617;-1.5075;-0.3078;0.2205;-0.0959;2053.0;-37.8;-23.52;6.42;90.99;-81.97;-13.02;8.0;996.34;50.536;23.032993;72.53606;-4.48;NaN;;3.3;6.451613;123.51;19 / 23;234039;2018-06-12 12:12:21:681
-0.0168;6.953;-1.0655;0.5173;9.698;1.3605;-1.0847;-1.6533;0.4568;0.738;-0.234;-0.1167;1999.0;-37.08;-24.72;10.08;89.93;-81.46;-20.82;8.0;996.35;50.561;23.032948;72.53617;-5.08;171.87263740035402;;3.97;9.677419;122.43;19 / 22;234538;2018-06-12 12:12:22:180
-0.2059;6.4191;3.0575;0.4515;9.7136;1.2701;-0.7676;-1.2713;0.7267;-1.0335;0.2113;0.2682;1502.0;-36.66;-24.54;8.16;87.91;-82.1;-19.57;8.0;996.36;50.756;23.032948;72.53617;-5.08;171.87263740035402;;3.97;9.677419;122.43;19 / 22;235038;2018-06-12 12:12:22:680
0.3304;10.4055;-0.2155;-0.0409;9.7421;1.1228;0.3713;0.6635;-1.3383;0.0997;0.2901;-0.391;1473.0;-35.22;-26.04;11.16;113.68;-83.42;2.08;8.0;996.37;49.99;23.032948;72.53617;-5.08;171.87263740035402;;3.97;9.677419;122.43;19 / 22;235538;2018-06-12 12:12:23:180
-0.431;10.7862;5.2147;0.2816;9.6627;1.65;-0.7126;1.1235;3.5648;-0.1856;0.3311;-0.2205;1110.0;-37.08;-24.84;7.26;97.46;-80.17;-9.68;8.0;996.37;49.961;23.032948;72.53617;-5.08;171.87263740035402;;3.97;9.677419;122.43;19 / 22;236037;2018-06-12 12:12:23:679
-0.9697;12.9554;2.775;0.0271;9.6889;1.515;-0.2761;3.5132;0.0724;0.2182;-0.0092;-0.2016;1187.0;-36.78;-24.9;6.54;105.25;-81.11;-1.03;8.0;996.37;50.796;23.032948;72.53617;-5.08;171.87263740035402;;3.97;9.677419;122.43;18 / 22;236537;2018-06-12 12:12:24:179
0.2993;12.0312;3.0766;0.1848;9.7172;1.3083;0.2486;2.326;1.3326;0.0887;0.3207;0.0935;1102.0;-35.82;-25.38;9.24;101.05;-82.26;-8.04;8.0;996.37;50.422;23.032948;72.53617;-5.08;171.87263740035402;;3.97;9.677419;122.43;18 / 22;237037;2018-06-12 12:12:24:679
0.5938;10.3289;1.3432;0.2315;9.6781;1.5654;0.7813;0.8711;0.0411;0.0569;-0.4179;0.3005;1304.0;-37.02;-25.32;11.1;111.6;-80.61;-0.4;8.0;996.37;50.376;23.032948;72.53617;-5.08;171.87263740035402;;3.97;9.677419;122.43;18 / 21;237537;2018-06-12 12:12:25:179
1.0511;7.937;-1.8125;0.0981;9.7031;1.4177;0.8548;-0.648;-2.713;-0.0634;0.3017;-0.0397;1345.0;-36.3;-25.92;11.52;110.67;-81.53;-3.02;8.0;996.38;50.327;23.032948;72.53617;-5.08;171.87263740035402;;3.97;9.677419;122.43;18 / 21;238038;2018-06-12 12:12:25:680
0.9745;7.3361;0.2538;0.6107;9.6422;1.6809;0.3638;-2.3061;-1.4271;0.5395;0.4025;-0.2395;1313.0;-39.06;-22.86;7.56;87.81;-79.49;-19.97;8.0;996.37;50.899;23.032948;72.53617;-5.08;171.87263740035402;;3.97;9.677419;122.43;19 / 22;238537;2018-06-12 12:12:26:179
-1.0056;7.2906;0.6848;0.2119;9.7514;1.0173;-1.3252;-2.8798;0.855;0.0771;0.3085;-0.077;1291.0;-35.58;-25.08;11.1;99.18;-83.92;-11.77;8.0;996.37;50.386;23.032948;72.53617;-5.08;171.87263740035402;;3.97;9.677419;122.43;19 / 22;239037;2018-06-12 12:12:26:679
-1.0032;6.9027;2.2578;0.2049;9.7108;1.3519;-0.4707;0.1248;-1.2345;-0.0952;0.8173;-0.1228;1417.0;-37.74;-24.54;5.04;94.09;-81.99;-8.62;8.0;996.34;50.975;23.032948;72.53617;-5.08;171.87263740035402;;3.97;9.677419;122.43;18 / 21;239537;2018-06-12 12:12:27:179
2.3248;8.7966;-0.1101;0.3283;9.7355;1.1327;0.809;-0.5295;-0.0218;-0.4;-0.0929;-0.4997;1579.0;-38.28;-24.36;7.74;88.9;-83.9;-16.78;8.0;996.38;50.994;23.032948;72.53617;-5.08;171.87263740035402;;3.97;9.677419;122.43;18 / 21;240037;2018-06-12 12:12:27:679
-2.1046;11.3991;0.8069;-0.0464;9.7096;1.3756;-2.7453;2.4366;1.6676;0.5572;0.2578;-0.2162;2351.0;-36.48;-27.54;6.96;108.64;-81.93;1.93;8.0;996.36;50.81;23.032948;72.53617;-5.08;171.87263740035402;;3.97;9.677419;122.43;18 / 21;240537;2018-06-12 12:12:28:179
-1.858;12.9842;5.2099;-0.0564;9.7454;1.0928;-1.0737;4.0815;1.2416;-0.425;-0.0129;-0.0929;2644.0;-38.04;-25.32;7.44;107.26;-83.59;2.95;8.0;996.36;51.384;23.032948;72.53617;-5.08;171.87263740035402;;3.97;9.677419;122.43;18 / 21;241037;2018-06-12 12:12:28:679
1.6161;12.3233;1.9585;0.0986;9.7352;1.1776;0.9788;2.7342;1.0371;-0.3517;-0.0092;0.3891;2464.0;-37.2;-25.8;8.04;102.01;-83.08;-4.79;8.0;996.38;50.732;23.032948;72.53617;-5.08;171.87263740035402;;3.97;9.677419;122.43;20 / 23;241537;2018-06-12 12:12:29:179
0.6608;12.0719;2.1141;-0.2801;9.6954;1.4458;0.3831;2.6327;-0.0045;-0.0549;-0.2676;0.3726;3239.0;-35.7;-26.76;6.48;115.96;-81.36;10.96;8.0;996.38;50.869;23.032948;72.53617;-5.08;171.87263740035402;;3.97;9.677419;122.43;20 / 23;242037;2018-06-12 12:12:29:679
0.2825;11.799;0.759;-0.1203;9.7233;1.2702;0.6015;0.4213;-1.0188;-0.0671;0.5027;-0.069;3037.0;-34.68;-26.82;8.1;113.3;-82.52;5.41;8.0;996.38;49.149;23.032948;72.53617;-5.08;171.87263740035402;;3.97;9.677419;122.43;19 / 22;242537;2018-06-12 12:12:30:179
-0.3041;9.4574;0.3472;-0.0723;9.6748;1.6011;-0.2317;-0.2174;-1.254;0.0019;0.1301;-0.1161;3990.0;-36.0;-25.56;6.12;108.24;-80.59;2.59;8.0;996.39;50.784;23.032948;72.53617;-5.08;171.87263740035402;;3.97;9.677419;122.43;19 / 22;243038;2018-06-12 12:12:30:680
-0.8955;5.7223;1.6951;-0.1052;9.6843;1.5408;-0.9004;-3.9691;-0.5232;-0.0475;-0.0556;0.0562;3550.0;-33.36;-27.24;11.94;119.68;-80.94;3.91;8.0;996.38;50.482;23.03291;72.53627;-5.64;171.87263740035402;;3.54;9.677419;97.68;19 / 22;243538;2018-06-12 12:12:31:180
0.5938;5.8325;-1.1421;0.0174;9.6921;1.4944;-0.0102;-4.5875;-1.8105;0.049;-0.19;0.3812;4042.0;-34.62;-25.26;10.62;112.12;-81.23;-0.67;8.0;996.42;51.148;23.03291;72.53627;-5.64;171.87263740035402;;3.54;9.677419;97.68;19 / 22;244037;2018-06-12 12:12:31:679
0.2825;7.2403;2.4589;0.1556;9.6639;1.6595;0.9123;-1.4564;0.9766;-0.1758;0.1527;-0.2926;4212.0;-35.94;-26.46;8.88;105.16;-80.21;-5.36;8.0;996.41;50.689;23.03291;72.53627;-5.64;171.87263740035402;;3.54;9.677419;97.68;19 / 22;244537;2018-06-12 12:12:32:179
0.6273;9.7088;-1.2307;0.0371;9.7427;1.1177;0.5902;-0.0339;-2.3483;-0.5674;0.5632;0.2236;3932.0;-34.2;-26.7;10.32;114.0;-83.31;3.08;8.0;996.38;50.647;23.03291;72.53627;-5.64;171.87263740035402;;3.54;9.677419;97.68;19 / 22;245037;2018-06-12 12:12:32:679
3.4837;8.3057;-0.905;0.4959;9.6586;1.6235;0.6749;-0.625;1.7716;0.1107;-1.2706;0.1973;4295.0;-34.86;-25.86;11.94;98.81;-80.03;-16.98;8.0;996.38;51.585;23.03291;72.53627;-5.64;171.87263740035402;;3.54;9.677419;97.68;18 / 21;245538;2018-06-12 12:12:33:180
