ACCELEROMETER X (m/s²),ACCELEROMETER Y (m/s²),ACCELEROMETER Z (m/s²),MAGNETIC FIELD X (μT),MAGNETIC FIELD Y (μT),MAGNETIC FIELD Z (μT),ORIENTATION Z (azimuth °),ORIENTATION X (pitch °),ORIENTATION Y (roll °),Time since start in ms ,YYYY-MO-DD HH-MI-SS_SSS
-0.6704,1.6664,9.2512,-59.22,-12.54,-22.26,99.26,-8.32,11.43,18,2018-07-07 14:53:41:495
-0.6704,1.6664,9.2512,-59.22,-12.54,-22.26,99.26,-8.32,11.43,41,2018-07-07 14:53:41:518
-0.6704,1.6664,9.2512,-57.84,-14.64,-21.6,101.07,-10.18,4.14,65,2018-07-07 14:53:41:542
-0.1149,2.4421,8.7245,-57.84,-14.64,-21.6,101.07,-10.18,4.14,89,2018-07-07 14:53:41:566
-0.1149,2.4421,8.7245,-57.84,-14.64,-21.6,101.07,-10.18,4.14,114,2018-07-07 14:53:41:591
-0.1149,2.4421,8.7245,-57.84,-14.64,-21.6,101.07,-10.18,4.14,138,2018-07-07 14:53:41:615
-0.1149,2.4421,8.7245,-57.84,-14.64,-21.6,101.07,-10.18,4.14,162,2018-07-07 14:53:41:639
-0.6704,2.9975,8.9735,-57.84,-14.64,-21.6,101.07,-10.18,4.14,186,2018-07-07 14:53:41:663
-0.6704,2.9975,8.9735,-57.84,-14.64,-21.6,101.07,-10.18,4.14,210,2018-07-07 14:53:41:687
-0.6704,2.9975,8.9735,-57.84,-14.64,-21.6,101.07,-10.18,4.14,234,2018-07-07 14:53:41:711
-0.6704,2.9975,8.9735,-55.86,-15.84,-20.52,99.76,-18.42,4.27,257,2018-07-07 14:53:41:734
-0.6704,2.9975,8.9735,-55.86,-15.84,-20.52,99.76,-18.42,4.27,282,2018-07-07 14:53:41:759
-0.2873,3.2561,9.2895,-55.86,-15.84,-20.52,99.76,-18.42,4.27,305,2018-07-07 14:53:41:782
-0.2873,3.2561,9.2895,-55.86,-15.84,-20.52,99.76,-18.42,4.27,329,2018-07-07 14:53:41:806
-0.2873,3.2561,9.2895,-55.86,-15.84,-20.52,99.76,-18.42,4.27,353,2018-07-07 14:53:41:830
-0.2873,3.2561,9.2895,-55.86,-15.84,-20.52,99.76,-18.42,4.27,377,2018-07-07 14:53:41:854
-0.2873,3.2561,9.2895,-55.86,-15.84,-20.52,99.76,-18.42,4.27,401,2018-07-07 14:53:41:878
-0.1437,3.2178,9.7971,-55.86,-15.84,-20.52,99.76,-18.42,4.27,426,2018-07-07 14:53:41:903
-0.1437,3.2178,9.7971,-55.5,-16.56,-18.0,101.05,-18.18,0.84,449,2018-07-07 14:53:41:926
-0.1437,3.2178,9.7971,-55.5,-16.56,-18.0,101.05,-18.18,0.84,474,2018-07-07 14:53:41:951
-0.1437,3.2178,9.7971,-55.5,-16.56,-18.0,101.05,-18.18,0.84,498,2018-07-07 14:53:41:975
-0.1437,3.2178,9.7971,-55.5,-16.56,-18.0,101.05,-18.18,0.84,522,2018-07-07 14:53:41:999
-0.1053,1.9154,9.1363,-55.5,-16.56,-18.0,101.05,-18.18,0.84,546,2018-07-07 14:53:42:023
-0.1053,1.9154,9.1363,-55.5,-16.56,-18.0,101.05,-18.18,0.84,569,2018-07-07 14:53:42:046
-0.1053,1.9154,9.1363,-55.5,-16.56,-18.0,101.05,-18.18,0.84,593,2018-07-07 14:53:42:070
-0.1053,1.9154,9.1363,-55.5,-16.56,-18.0,101.05,-18.18,0.84,618,2018-07-07 14:53:42:095
-0.1053,1.9154,9.1363,-55.5,-16.56,-18.0,101.05,-18.18,0.84,642,2018-07-07 14:53:42:119
1.245,2.1739,9.6917,-55.68,-17.16,-16.26,103.5,-11.84,0.66,665,2018-07-07 14:53:42:142
1.245,2.1739,9.6917,-55.68,-17.16,-16.26,103.5,-11.84,0.66,689,2018-07-07 14:53:42:166
1.245,2.1739,9.6917,-55.68,-17.16,-16.26,103.5,-11.84,0.66,713,2018-07-07 14:53:42:190
1.245,2.1739,9.6917,-55.68,-17.16,-16.26,103.5,-11.84,0.66,737,2018-07-07 14:53:42:214
1.245,2.1739,9.6917,-55.68,-17.16,-16.26,103.5,-11.84,0.66,762,2018-07-07 14:53:42:239
-0.0958,2.4229,8.169,-55.68,-17.16,-16.26,103.5,-11.84,0.66,786,2018-07-07 14:53:42:263
-0.0958,2.4229,8.169,-55.68,-17.16,-16.26,103.5,-11.84,0.66,809,2018-07-07 14:53:42:286
-0.0958,2.4229,8.169,-55.68,-17.16,-16.26,103.5,-11.84,0.66,833,2018-07-07 14:53:42:310
-0.0958,2.4229,8.169,-55.44,-18.78,-15.3,104.37,-16.52,0.67,857,2018-07-07 14:53:42:334
-0.0958,2.4229,8.169,-55.44,-18.78,-15.3,104.37,-16.52,0.67,882,2018-07-07 14:53:42:359
0.6704,2.9975,9.2895,-55.44,-18.78,-15.3,104.37,-16.52,0.67,906,2018-07-07 14:53:42:383
0.6704,2.9975,9.2895,-55.44,-18.78,-15.3,104.37,-16.52,0.67,929,2018-07-07 14:53:42:406
0.6704,2.9975,9.2895,-55.44,-18.78,-15.3,104.37,-16.52,0.67,954,2018-07-07 14:53:42:431
0.6704,2.9975,9.2895,-55.44,-18.78,-15.3,104.37,-16.52,0.67,977,2018-07-07 14:53:42:454
0.6704,2.9975,9.2895,-55.44,-18.78,-15.3,104.37,-16.52,0.67,1002,2018-07-07 14:53:42:479
0.4788,3.4955,8.9639,-55.44,-18.78,-15.3,104.37,-16.52,0.67,1025,2018-07-07 14:53:42:502
0.4788,3.4955,8.9639,-54.78,-20.4,-14.76,102.64,-21.28,-3.06,1050,2018-07-07 14:53:42:527
0.4788,3.4955,8.9639,-54.78,-20.4,-14.76,102.64,-21.28,-3.06,1073,2018-07-07 14:53:42:550
0.4788,3.4955,8.9639,-54.78,-20.4,-14.76,102.64,-21.28,-3.06,1097,2018-07-07 14:53:42:574
0.4788,3.4955,8.9639,-54.78,-20.4,-14.76,102.64,-21.28,-3.06,1121,2018-07-07 14:53:42:598
0.1532,3.7445,10.3525,-54.78,-20.4,-14.76,102.64,-21.28,-3.06,1145,2018-07-07 14:53:42:622
0.1532,3.7445,10.3525,-54.78,-20.4,-14.76,102.64,-21.28,-3.06,1170,2018-07-07 14:53:42:647
0.1532,3.7445,10.3525,-54.78,-20.4,-14.76,102.64,-21.28,-3.06,1193,2018-07-07 14:53:42:670
0.1532,3.7445,10.3525,-54.78,-20.4,-14.76,102.64,-21.28,-3.06,1218,2018-07-07 14:53:42:695
-0.3543,3.2178,10.7643,-54.78,-20.4,-14.76,102.64,-21.28,-3.06,1241,2018-07-07 14:53:42:718
-0.3543,3.2178,10.7643,-52.02,-21.84,-14.16,108.52,-16.63,1.89,1266,2018-07-07 14:53:42:743
-0.3543,3.2178,10.7643,-52.02,-21.84,-14.16,108.52,-16.63,1.89,1289,2018-07-07 14:53:42:766
-0.3543,3.2178,10.7643,-52.02,-21.84,-14.16,108.52,-16.63,1.89,1314,2018-07-07 14:53:42:791
-0.3543,3.2178,10.7643,-52.02,-21.84,-14.16,108.52,-16.63,1.89,1337,2018-07-07 14:53:42:814
-1.0151,2.2889,7.1826,-52.02,-21.84,-14.16,108.52,-16.63,1.89,1361,2018-07-07 14:53:42:838
-1.0151,2.2889,7.1826,-52.02,-21.84,-14.16,108.52,-16.63,1.89,1385,2018-07-07 14:53:42:862
-1.0151,2.2889,7.1826,-52.02,-21.84,-14.16,108.52,-16.63,1.89,1409,2018-07-07 14:53:42:886
-1.0151,2.2889,7.1826,-52.02,-21.84,-14.16,108.52,-16.63,1.89,1434,2018-07-07 14:53:42:911
-1.0151,2.2889,7.1826,-50.34,-23.52,-14.22,112.03,-17.51,8.04,1457,2018-07-07 14:53:42:934
-0.2203,2.5379,10.5441,-50.34,-23.52,-14.22,112.03,-17.51,8.04,1482,2018-07-07 14:53:42:959
-0.2203,2.5379,10.5441,-50.34,-23.52,-14.22,112.03,-17.51,8.04,1505,2018-07-07 14:53:42:982
-0.2203,2.5379,10.5441,-50.34,-23.52,-14.22,112.03,-17.51,8.04,1529,2018-07-07 14:53:43:006
-0.2203,2.5379,10.5441,-50.34,-23.52,-14.22,112.03,-17.51,8.04,1553,2018-07-07 14:53:43:030
-0.2203,2.5379,10.5441,-50.34,-23.52,-14.22,112.03,-17.51,8.04,1577,2018-07-07 14:53:43:054
0.0192,2.8156,7.9871,-50.34,-23.52,-14.22,112.03,-17.51,8.04,1602,2018-07-07 14:53:43:079
0.0192,2.8156,7.9871,-50.34,-23.52,-14.22,112.03,-17.51,8.04,1625,2018-07-07 14:53:43:102
0.0192,2.8156,7.9871,-48.42,-23.52,-13.98,110.51,-19.42,-0.14,1650,2018-07-07 14:53:43:127
0.0192,2.8156,7.9871,-48.42,-23.52,-13.98,110.51,-19.42,-0.14,1673,2018-07-07 14:53:43:150
0.0096,3.3806,8.7819,-48.42,-23.52,-13.98,110.51,-19.42,-0.14,1698,2018-07-07 14:53:43:175
0.0096,3.3806,8.7819,-48.42,-23.52,-13.98,110.51,-19.42,-0.14,1721,2018-07-07 14:53:43:198
0.0096,3.3806,8.7819,-48.42,-23.52,-13.98,110.51,-19.42,-0.14,1746,2018-07-07 14:53:43:223
0.0096,3.3806,8.7819,-48.42,-23.52,-13.98,110.51,-19.42,-0.14,1770,2018-07-07 14:53:43:247
0.2203,3.9361,8.7819,-48.42,-23.52,-13.98,110.51,-19.42,-0.14,1794,2018-07-07 14:53:43:271
0.2203,3.9361,8.7819,-48.42,-23.52,-13.98,110.51,-19.42,-0.14,1817,2018-07-07 14:53:43:294
0.2203,3.9361,8.7819,-48.42,-23.52,-13.98,110.51,-19.42,-0.14,1842,2018-07-07 14:53:43:319
0.2203,3.9361,8.7819,-47.34,-22.56,-13.38,108.04,-24.14,-1.44,1865,2018-07-07 14:53:43:342
0.4693,3.9456,10.4291,-47.34,-22.56,-13.38,108.04,-24.14,-1.44,1889,2018-07-07 14:53:43:366
0.4693,3.9456,10.4291,-47.34,-22.56,-13.38,108.04,-24.14,-1.44,1914,2018-07-07 14:53:43:391
0.4693,3.9456,10.4291,-47.34,-22.56,-13.38,108.04,-24.14,-1.44,1937,2018-07-07 14:53:43:414
0.4693,3.9456,10.4291,-46.8,-21.3,-13.38,108.04,-24.14,-1.44,1962,2018-07-07 14:53:43:439
0.4693,3.9456,10.4291,-46.8,-21.3,-13.38,108.04,-24.14,-1.44,1986,2018-07-07 14:53:43:463
0.996,2.5857,10.3908,-46.8,-21.3,-13.38,108.04,-24.14,-1.44,2009,2018-07-07 14:53:43:486
0.996,2.5857,10.3908,-46.8,-21.3,-13.38,108.04,-24.14,-1.44,2034,2018-07-07 14:53:43:511
0.996,2.5857,10.3908,-46.8,-21.3,-13.38,108.04,-24.14,-1.44,2058,2018-07-07 14:53:43:535
0.996,2.5857,10.3908,-46.8,-21.3,-13.38,108.04,-24.14,-1.44,2081,2018-07-07 14:53:43:558
0.7374,2.241,9.1267,-46.8,-21.3,-13.38,108.04,-24.14,-1.44,2106,2018-07-07 14:53:43:583
0.7374,2.241,9.1267,-46.8,-21.3,-13.38,108.04,-24.14,-1.44,2129,2018-07-07 14:53:43:606
0.7374,2.241,9.1267,-47.04,-19.62,-13.74,108.4,-13.75,-4.62,2153,2018-07-07 14:53:43:630
0.7374,2.241,9.1267,-47.04,-19.62,-13.74,108.4,-13.75,-4.62,2178,2018-07-07 14:53:43:655
0.7374,2.241,9.1267,-47.04,-19.62,-13.74,108.4,-13.75,-4.62,2201,2018-07-07 14:53:43:678
0.4501,2.6432,8.849,-47.04,-19.62,-13.74,108.4,-13.75,-4.62,2226,2018-07-07 14:53:43:703
0.4501,2.6432,8.849,-47.04,-19.62,-13.74,108.4,-13.75,-4.62,2249,2018-07-07 14:53:43:726
0.4501,2.6432,8.849,-46.56,-18.6,-13.44,108.4,-13.75,-4.62,2274,2018-07-07 14:53:43:751
0.4501,2.6432,8.849,-46.56,-18.6,-13.44,108.4,-13.75,-4.62,2297,2018-07-07 14:53:43:774
0.4501,2.6432,8.849,-46.56,-18.6,-13.44,108.4,-13.75,-4.62,2322,2018-07-07 14:53:43:799
0.1628,3.3902,8.4276,-46.56,-18.6,-13.44,108.4,-13.75,-4.62,2345,2018-07-07 14:53:43:822
0.1628,3.3902,8.4276,-46.56,-18.6,-13.44,108.4,-13.75,-4.62,2369,2018-07-07 14:53:43:846
0.1628,3.3902,8.4276,-46.56,-18.6,-13.44,108.4,-13.75,-4.62,2394,2018-07-07 14:53:43:871
0.1628,3.3902,8.4276,-45.12,-18.24,-13.56,104.0,-21.91,-1.11,2451,2018-07-07 14:53:43:928
0.1628,3.3902,8.4276,-45.12,-18.24,-13.56,104.0,-21.91,-1.11,2452,2018-07-07 14:53:43:929
0.0479,4.2234,8.3031,-45.12,-18.24,-13.56,104.0,-21.91,-1.11,2466,2018-07-07 14:53:43:943
0.0479,4.2234,8.3031,-45.12,-18.24,-13.56,104.0,-21.91,-1.11,2489,2018-07-07 14:53:43:966
0.0479,4.2234,8.3031,-45.12,-18.24,-13.56,104.0,-21.91,-1.11,2513,2018-07-07 14:53:43:990
0.0479,4.2234,8.3031,-45.12,-18.24,-13.56,104.0,-21.91,-1.11,2538,2018-07-07 14:53:44:015
0.0479,4.2234,8.3031,-45.12,-18.24,-13.56,104.0,-21.91,-1.11,2561,2018-07-07 14:53:44:038
0.3256,4.2329,10.9176,-45.12,-18.24,-13.56,104.0,-21.91,-1.11,2586,2018-07-07 14:53:44:063
0.3256,4.2329,10.9176,-45.12,-18.24,-13.56,104.0,-21.91,-1.11,2610,2018-07-07 14:53:44:087
0.3256,4.2329,10.9176,-45.12,-18.24,-13.56,104.0,-21.91,-1.11,2633,2018-07-07 14:53:44:110
0.3256,4.2329,10.9176,-43.26,-18.36,-13.44,105.27,-21.18,-1.71,2657,2018-07-07 14:53:44:134
0.3256,4.2329,10.9176,-43.26,-18.36,-13.44,105.27,-21.18,-1.71,2681,2018-07-07 14:53:44:158
-0.1149,3.486,9.8258,-43.26,-18.36,-13.44,105.27,-21.18,-1.71,2705,2018-07-07 14:53:44:182
-0.1149,3.486,9.8258,-43.26,-18.36,-13.44,105.27,-21.18,-1.71,2729,2018-07-07 14:53:44:206
-0.1149,3.486,9.8258,-43.26,-18.36,-13.44,105.27,-21.18,-1.71,2753,2018-07-07 14:53:44:230
-0.1149,3.486,9.8258,-43.26,-18.36,-13.44,105.27,-21.18,-1.71,2777,2018-07-07 14:53:44:254
-0.1149,3.486,9.8258,-43.26,-18.36,-13.44,105.27,-21.18,-1.71,2801,2018-07-07 14:53:44:278
-1.1396,2.49,7.4603,-43.26,-18.36,-13.44,105.27,-21.18,-1.71,2826,2018-07-07 14:53:44:303
-1.1396,2.49,7.4603,-41.7,-18.9,-12.84,110.21,-18.26,8.69,2849,2018-07-07 14:53:44:326
-1.1396,2.49,7.4603,-41.7,-18.9,-12.84,110.21,-18.26,8.69,2873,2018-07-07 14:53:44:350
-1.1396,2.49,7.4603,-41.7,-18.9,-12.84,110.21,-18.26,8.69,2897,2018-07-07 14:53:44:374
-1.1396,2.49,7.4603,-41.7,-18.9,-12.84,110.21,-18.26,8.69,2922,2018-07-07 14:53:44:399
-0.249,2.5762,9.1842,-41.7,-18.9,-12.84,110.21,-18.26,8.69,2945,2018-07-07 14:53:44:422
-0.249,2.5762,9.1842,-40.44,-18.54,-12.42,110.21,-18.26,8.69,2970,2018-07-07 14:53:44:447
-0.249,2.5762,9.1842,-40.44,-18.54,-12.42,110.21,-18.26,8.69,2993,2018-07-07 14:53:44:470
-0.249,2.5762,9.1842,-40.44,-18.54,-12.42,110.21,-18.26,8.69,3018,2018-07-07 14:53:44:495
-0.249,2.5762,9.1842,-40.44,-18.54,-12.42,110.21,-18.26,8.69,3043,2018-07-07 14:53:44:520
0.1628,3.2848,7.8147,-40.44,-18.54,-12.42,110.21,-18.26,8.69,3066,2018-07-07 14:53:44:543
0.1628,3.2848,7.8147,-40.44,-18.54,-12.42,110.21,-18.26,8.69,3089,2018-07-07 14:53:44:566
0.1628,3.2848,7.8147,-40.44,-18.54,-12.42,110.21,-18.26,8.69,3114,2018-07-07 14:53:44:591
0.1628,3.2848,7.8147,-40.44,-18.54,-12.42,110.21,-18.26,8.69,3138,2018-07-07 14:53:44:615
0.1628,3.2848,7.8147,-39.84,-17.34,-11.64,105.07,-22.79,-1.19,3162,2018-07-07 14:53:44:639
0.1149,3.869,8.6383,-39.84,-17.34,-11.64,105.07,-22.79,-1.19,3185,2018-07-07 14:53:44:662
0.1149,3.869,8.6383,-39.84,-17.34,-11.64,105.07,-22.79,-1.19,3210,2018-07-07 14:53:44:687
0.1149,3.869,8.6383,-39.84,-17.34,-11.64,105.07,-22.79,-1.19,3233,2018-07-07 14:53:44:710
0.1149,3.869,8.6383,-39.84,-17.34,-11.64,105.07,-22.79,-1.19,3258,2018-07-07 14:53:44:735
0.1149,3.869,8.6383,-39.84,-17.34,-11.64,105.07,-22.79,-1.19,3281,2018-07-07 14:53:44:758
0.0192,3.9744,9.6247,-39.84,-17.34,-11.64,105.07,-22.79,-1.19,3305,2018-07-07 14:53:44:782
0.0192,3.9744,9.6247,-39.84,-17.34,-11.64,105.07,-22.79,-1.19,3329,2018-07-07 14:53:44:806
0.0192,3.9744,9.6247,-40.62,-16.26,-11.16,104.45,-22.44,-0.11,3354,2018-07-07 14:53:44:831
0.3926,3.5721,10.0652,-40.62,-16.26,-11.16,104.45,-22.44,-0.11,3378,2018-07-07 14:53:44:855
0.3926,3.5721,10.0652,-40.62,-16.26,-11.16,104.45,-22.44,-0.11,3402,2018-07-07 14:53:44:879
0.3926,3.5721,10.0652,-40.62,-16.26,-11.16,104.45,-22.44,-0.11,3425,2018-07-07 14:53:44:902
0.3926,3.5721,10.0652,-40.62,-16.26,-11.16,104.45,-22.44,-0.11,3449,2018-07-07 14:53:44:926
0.3926,3.5721,10.0652,-40.62,-16.26,-11.16,104.45,-22.44,-0.11,3473,2018-07-07 14:53:44:950
0.3735,2.2984,8.5042,-40.62,-16.26,-11.16,104.45,-22.44,-0.11,3498,2018-07-07 14:53:44:975
0.3735,2.2984,8.5042,-40.62,-16.26,-11.16,104.45,-22.44,-0.11,3521,2018-07-07 14:53:44:998
0.3735,2.2984,8.5042,-40.62,-16.26,-11.16,104.45,-22.44,-0.11,3545,2018-07-07 14:53:45:022
0.3735,2.2984,8.5042,-39.9,-15.48,-10.74,105.78,-15.11,-2.51,3572,2018-07-07 14:53:45:049
0.3735,2.2984,8.5042,-39.9,-15.48,-10.74,105.78,-15.11,-2.51,3594,2018-07-07 14:53:45:071
1.1301,2.2027,9.8354,-39.9,-15.48,-10.74,105.78,-15.11,-2.51,3618,2018-07-07 14:53:45:095
1.1301,2.2027,9.8354,-39.9,-15.48,-10.74,105.78,-15.11,-2.51,3641,2018-07-07 14:53:45:118
1.1301,2.2027,9.8354,-39.9,-15.48,-10.74,105.78,-15.11,-2.51,3665,2018-07-07 14:53:45:142
1.1301,2.2027,9.8354,-39.9,-15.48,-10.74,105.78,-15.11,-2.51,3690,2018-07-07 14:53:45:167
1.1301,2.2027,9.8354,-39.9,-15.48,-10.74,105.78,-15.11,-2.51,3713,2018-07-07 14:53:45:190
0.1532,3.3902,7.5369,-39.9,-15.48,-10.74,105.78,-15.11,-2.51,3738,2018-07-07 14:53:45:215
0.1532,3.3902,7.5369,-40.26,-15.72,-10.5,104.32,-24.21,-1.16,3761,2018-07-07 14:53:45:238
0.1532,3.3902,7.5369,-40.26,-15.72,-10.5,104.32,-24.21,-1.16,3785,2018-07-07 14:53:45:262
0.1532,3.3902,7.5369,-40.26,-15.72,-10.5,104.32,-24.21,-1.16,3809,2018-07-07 14:53:45:286
0.1532,3.3902,7.5369,-40.26,-15.72,-10.5,104.32,-24.21,-1.16,3833,2018-07-07 14:53:45:310
0.5555,3.8882,9.2895,-40.26,-15.72,-10.5,104.32,-24.21,-1.16,3857,2018-07-07 14:53:45:334
0.5555,3.8882,9.2895,-40.26,-15.72,-10.5,104.32,-24.21,-1.16,3882,2018-07-07 14:53:45:359
0.5555,3.8882,9.2895,-40.26,-15.72,-10.5,104.32,-24.21,-1.16,3905,2018-07-07 14:53:45:382
0.5555,3.8882,9.2895,-40.26,-15.72,-10.5,104.32,-24.21,-1.16,3929,2018-07-07 14:53:45:406
0.5555,3.8882,9.2895,-39.66,-16.8,-10.5,105.51,-22.68,-3.42,3953,2018-07-07 14:53:45:430
0.4501,3.8499,10.5632,-39.66,-16.8,-10.5,105.51,-22.68,-3.42,3977,2018-07-07 14:53:45:454
0.4501,3.8499,10.5632,-39.66,-16.8,-10.5,105.51,-22.68,-3.42,4002,2018-07-07 14:53:45:479
0.4501,3.8499,10.5632,-39.66,-16.8,-10.5,105.51,-22.68,-3.42,4025,2018-07-07 14:53:45:502
0.4501,3.8499,10.5632,-39.66,-16.8,-10.5,105.51,-22.68,-3.42,4049,2018-07-07 14:53:45:526
0.5076,2.7773,11.9327,-39.66,-16.8,-10.5,105.51,-22.68,-3.42,4073,2018-07-07 14:53:45:550
0.5076,2.7773,11.9327,-39.66,-16.8,-10.5,105.51,-22.68,-3.42,4097,2018-07-07 14:53:45:574
0.5076,2.7773,11.9327,-39.66,-16.8,-10.5,105.51,-22.68,-3.42,4121,2018-07-07 14:53:45:598
0.5076,2.7773,11.9327,-39.66,-16.8,-10.5,105.51,-22.68,-3.42,4145,2018-07-07 14:53:45:622
0.5076,2.7773,11.9327,-38.46,-17.52,-9.96,111.65,-13.09,-2.44,4169,2018-07-07 14:53:45:646
0.0287,2.2218,8.6479,-38.46,-17.52,-9.96,111.65,-13.09,-2.44,4194,2018-07-07 14:53:45:671
0.0287,2.2218,8.6479,-38.46,-17.52,-9.96,111.65,-13.09,-2.44,4218,2018-07-07 14:53:45:695
0.0287,2.2218,8.6479,-38.46,-17.52,-9.96,111.65,-13.09,-2.44,4242,2018-07-07 14:53:45:719
0.0287,2.2218,8.6479,-38.46,-17.52,-9.96,111.65,-13.09,-2.44,4266,2018-07-07 14:53:45:743
0.0287,2.2218,8.6479,-38.46,-17.52,-9.96,111.65,-13.09,-2.44,4289,2018-07-07 14:53:45:766
0.0192,2.4421,8.8777,-38.46,-17.52,-9.96,111.65,-13.09,-2.44,4314,2018-07-07 14:53:45:791
0.0192,2.4421,8.8777,-38.46,-17.52,-9.96,111.65,-13.09,-2.44,4338,2018-07-07 14:53:45:815
0.0192,2.4421,8.8777,-37.86,-17.82,-9.84,111.14,-15.38,-0.12,4361,2018-07-07 14:53:45:838
0.0192,2.4421,8.8777,-37.86,-17.82,-9.84,111.14,-15.38,-0.12,4385,2018-07-07 14:53:45:862
0.0192,2.4421,8.8777,-37.86,-17.82,-9.84,111.14,-15.38,-0.12,4409,2018-07-07 14:53:45:886
0.4214,3.0454,8.4946,-37.86,-17.82,-9.84,111.14,-15.38,-0.12,4433,2018-07-07 14:53:45:910
0.4214,3.0454,8.4946,-37.86,-17.82,-9.84,111.14,-15.38,-0.12,4458,2018-07-07 14:53:45:935
0.4214,3.0454,8.4946,-37.86,-17.82,-9.84,111.14,-15.38,-0.12,4482,2018-07-07 14:53:45:959
0.4214,3.0454,8.4946,-37.86,-17.82,-9.84,111.14,-15.38,-0.12,4505,2018-07-07 14:53:45:982
0.4214,3.0454,8.4946,-37.86,-17.82,-9.84,111.14,-15.38,-0.12,4529,2018-07-07 14:53:46:006
0.4597,3.5147,8.5617,-37.86,-17.82,-9.84,111.14,-15.38,-0.12,4553,2018-07-07 14:53:46:030
0.4597,3.5147,8.5617,-37.2,-16.8,-9.54,107.08,-22.29,-3.07,4578,2018-07-07 14:53:46:055
0.4597,3.5147,8.5617,-37.2,-16.8,-9.54,107.08,-22.29,-3.07,4602,2018-07-07 14:53:46:079
0.4597,3.5147,8.5617,-37.2,-16.8,-9.54,107.08,-22.29,-3.07,4625,2018-07-07 14:53:46:102
0.4597,3.5147,8.5617,-37.2,-16.8,-9.54,107.08,-22.29,-3.07,4649,2018-07-07 14:53:46:126
0.498,3.6966,9.9599,-37.2,-16.8,-9.54,107.08,-22.29,-3.07,4673,2018-07-07 14:53:46:150
0.498,3.6966,9.9599,-37.2,-16.8,-9.54,107.08,-22.29,-3.07,4697,2018-07-07 14:53:46:174
0.498,3.6966,9.9599,-37.2,-16.8,-9.54,107.08,-22.29,-3.07,4721,2018-07-07 14:53:46:198
0.498,3.6966,9.9599,-37.2,-16.8,-9.54,107.08,-22.29,-3.07,4745,2018-07-07 14:53:46:222
0.498,3.6966,9.9599,-37.02,-15.18,-8.88,105.75,-20.34,-2.86,4770,2018-07-07 14:53:46:247
1.5036,2.8922,11.5592,-37.02,-15.18,-8.88,105.75,-20.34,-2.86,4793,2018-07-07 14:53:46:270
1.5036,2.8922,11.5592,-37.02,-15.18,-8.88,105.75,-20.34,-2.86,4849,2018-07-07 14:53:46:326
1.5036,2.8922,11.5592,-37.02,-15.18,-8.88,105.75,-20.34,-2.86,4850,2018-07-07 14:53:46:327
1.5036,2.8922,11.5592,-37.02,-15.18,-8.88,105.75,-20.34,-2.86,4865,2018-07-07 14:53:46:342
1.5036,2.8922,11.5592,-37.02,-15.18,-8.88,105.75,-20.34,-2.86,4889,2018-07-07 14:53:46:366
1.743,2.2218,9.979,-37.02,-15.18,-8.88,105.75,-20.34,-2.86,4914,2018-07-07 14:53:46:391
1.743,2.2218,9.979,-37.02,-15.18,-8.88,105.75,-20.34,-2.86,4938,2018-07-07 14:53:46:415
1.743,2.2218,9.979,-36.42,-13.92,-8.58,107.12,-12.37,-9.91,4961,2018-07-07 14:53:46:438
1.743,2.2218,9.979,-36.42,-13.92,-8.58,107.12,-12.37,-9.91,4986,2018-07-07 14:53:46:463
1.743,2.2218,9.979,-36.42,-13.92,-8.58,107.12,-12.37,-9.91,5010,2018-07-07 14:53:46:487
1.0439,2.5953,7.3933,-36.42,-13.92,-8.58,107.12,-12.37,-9.91,5034,2018-07-07 14:53:46:511
1.0439,2.5953,7.3933,-36.42,-13.92,-8.58,107.12,-12.37,-9.91,5057,2018-07-07 14:53:46:534
1.0439,2.5953,7.3933,-36.42,-13.92,-8.58,107.12,-12.37,-9.91,5081,2018-07-07 14:53:46:558
1.0439,2.5953,7.3933,-36.42,-13.92,-8.58,107.12,-12.37,-9.91,5105,2018-07-07 14:53:46:582
0.8045,2.988,9.347,-36.42,-13.92,-8.58,107.12,-12.37,-9.91,5130,2018-07-07 14:53:46:607
0.8045,2.988,9.347,-36.12,-12.48,-8.28,102.93,-17.67,-4.92,5153,2018-07-07 14:53:46:630
0.8045,2.988,9.347,-36.12,-12.48,-8.28,102.93,-17.67,-4.92,5177,2018-07-07 14:53:46:654
0.8045,2.988,9.347,-36.12,-12.48,-8.28,102.93,-17.67,-4.92,5202,2018-07-07 14:53:46:679
0.8045,2.988,9.347,-36.12,-12.48,-8.28,102.93,-17.67,-4.92,5226,2018-07-07 14:53:46:703
0.7278,3.6583,8.7628,-36.12,-12.48,-8.28,102.93,-17.67,-4.92,5250,2018-07-07 14:53:46:727
0.7278,3.6583,8.7628,-36.12,-12.48,-8.28,102.93,-17.67,-4.92,5274,2018-07-07 14:53:46:751
0.7278,3.6583,8.7628,-36.12,-12.48,-8.28,102.93,-17.67,-4.92,5297,2018-07-07 14:53:46:774
0.7278,3.6583,8.7628,-36.12,-12.48,-8.28,102.93,-17.67,-4.92,5321,2018-07-07 14:53:46:798
0.7278,3.6583,8.7628,-36.12,-12.48,-8.28,102.93,-17.67,-4.92,5346,2018-07-07 14:53:46:823
0.7278,3.6583,8.7628,-35.1,-12.66,-8.22,102.88,-22.59,-4.75,5370,2018-07-07 14:53:46:847
0.6225,3.8211,11.2432,-35.1,-12.66,-8.22,102.88,-22.59,-4.75,5393,2018-07-07 14:53:46:870
0.6225,3.8211,11.2432,-35.1,-12.66,-8.22,102.88,-22.59,-4.75,5418,2018-07-07 14:53:46:895
0.6225,3.8211,11.2432,-35.1,-12.66,-8.22,102.88,-22.59,-4.75,5442,2018-07-07 14:53:46:919
0.6225,3.8211,11.2432,-35.1,-12.66,-8.22,102.88,-22.59,-4.75,5466,2018-07-07 14:53:46:943
-0.1724,2.4517,11.1282,-35.1,-12.66,-8.22,102.88,-22.59,-4.75,5489,2018-07-07 14:53:46:966
-0.1724,2.4517,11.1282,-35.1,-12.66,-8.22,102.88,-22.59,-4.75,5514,2018-07-07 14:53:46:991
-0.1724,2.4517,11.1282,-35.1,-12.66,-8.22,102.88,-22.59,-4.75,5538,2018-07-07 14:53:47:015
-0.1724,2.4517,11.1282,-34.26,-13.38,-8.4,108.0,-12.42,0.89,5562,2018-07-07 14:53:47:039
0.3639,2.0686,7.4124,-34.26,-13.38,-8.4,108.0,-12.42,0.89,5586,2018-07-07 14:53:47:063
0.3639,2.0686,7.4124,-34.26,-13.38,-8.4,108.0,-12.42,0.89,5609,2018-07-07 14:53:47:086
0.3639,2.0686,7.4124,-34.26,-13.38,-8.4,108.0,-12.42,0.89,5633,2018-07-07 14:53:47:110
0.3639,2.0686,7.4124,-34.26,-13.38,-8.4,108.0,-12.42,0.89,5657,2018-07-07 14:53:47:134
0.7661,1.8962,10.7643,-34.26,-13.38,-8.4,108.0,-12.42,0.89,5681,2018-07-07 14:53:47:158
0.7661,1.8962,10.7643,-34.26,-13.38,-8.4,108.0,-12.42,0.89,5705,2018-07-07 14:53:47:182
0.7661,1.8962,10.7643,-34.26,-13.38,-8.4,108.0,-12.42,0.89,5730,2018-07-07 14:53:47:207
0.7661,1.8962,10.7643,-33.72,-13.5,-8.46,108.26,-9.97,-4.07,5753,2018-07-07 14:53:47:230
0.7661,1.8962,10.7643,-33.72,-13.5,-8.46,108.26,-9.97,-4.07,5777,2018-07-07 14:53:47:254
1.3408,2.0973,8.4276,-33.72,-13.5,-8.46,108.26,-9.97,-4.07,5802,2018-07-07 14:53:47:279
1.3408,2.0973,8.4276,-33.72,-13.5,-8.46,108.26,-9.97,-4.07,5825,2018-07-07 14:53:47:302
1.3408,2.0973,8.4276,-33.72,-13.5,-8.46,108.26,-9.97,-4.07,5849,2018-07-07 14:53:47:326
1.3408,2.0973,8.4276,-33.72,-13.5,-8.46,108.26,-9.97,-4.07,5873,2018-07-07 14:53:47:350
1.3408,2.0973,8.4276,-33.72,-13.5,-8.46,108.26,-9.97,-4.07,5898,2018-07-07 14:53:47:375
0.2107,2.7007,9.0788,-33.72,-13.5,-8.46,108.26,-9.97,-4.07,5921,2018-07-07 14:53:47:398
0.2107,2.7007,9.0788,-33.72,-13.5,-8.46,108.26,-9.97,-4.07,5945,2018-07-07 14:53:47:422
0.2107,2.7007,9.0788,-32.76,-13.56,-7.86,108.41,-16.56,-1.33,5969,2018-07-07 14:53:47:446
0.2107,2.7007,9.0788,-32.76,-13.56,-7.86,108.41,-16.56,-1.33,5993,2018-07-07 14:53:47:470
0.2107,2.7007,9.0788,-32.76,-13.56,-7.86,108.41,-16.56,-1.33,6018,2018-07-07 14:53:47:495
0.9098,2.7964,9.3853,-32.76,-13.56,-7.86,108.41,-16.56,-1.33,6041,2018-07-07 14:53:47:518
0.9098,2.7964,9.3853,-32.76,-13.56,-7.86,108.41,-16.56,-1.33,6066,2018-07-07 14:53:47:543
0.9098,2.7964,9.3853,-32.76,-13.56,-7.86,108.41,-16.56,-1.33,6089,2018-07-07 14:53:47:566
0.9098,2.7964,9.3853,-32.76,-13.56,-7.86,108.41,-16.56,-1.33,6114,2018-07-07 14:53:47:591
0.9098,2.7964,9.3853,-32.76,-13.56,-7.86,108.41,-16.56,-1.33,6138,2018-07-07 14:53:47:615
0.8045,2.5187,10.343,-32.04,-14.46,-7.14,108.72,-16.52,-5.54,6161,2018-07-07 14:53:47:638
0.8045,2.5187,10.343,-32.04,-14.46,-7.14,108.72,-16.52,-5.54,6185,2018-07-07 14:53:47:662
0.8045,2.5187,10.343,-32.04,-14.46,-7.14,108.72,-16.52,-5.54,6210,2018-07-07 14:53:47:687
0.8045,2.5187,10.343,-32.04,-14.46,-7.14,108.72,-16.52,-5.54,6233,2018-07-07 14:53:47:710
0.8045,2.5187,10.343,-32.04,-14.46,-7.14,108.72,-16.52,-5.54,6257,2018-07-07 14:53:47:734
0.9194,1.494,9.4236,-32.04,-14.46,-7.14,108.72,-16.52,-5.54,6281,2018-07-07 14:53:47:758
0.9194,1.494,9.4236,-32.04,-14.46,-7.14,108.72,-16.52,-5.54,6305,2018-07-07 14:53:47:782
0.9194,1.494,9.4236,-32.04,-14.46,-7.14,108.72,-16.52,-5.54,6329,2018-07-07 14:53:47:806
0.9194,1.494,9.4236,-29.16,-17.1,-6.06,118.61,-8.97,-5.57,6353,2018-07-07 14:53:47:830
0.9194,1.494,9.4236,-29.16,-17.1,-6.06,118.61,-8.97,-5.57,6378,2018-07-07 14:53:47:855
1.9249,1.3791,10.1323,-29.16,-17.1,-6.06,118.61,-8.97,-5.57,6401,2018-07-07 14:53:47:878
1.9249,1.3791,10.1323,-29.16,-17.1,-6.06,118.61,-8.97,-5.57,6426,2018-07-07 14:53:47:903
1.9249,1.3791,10.1323,-29.16,-17.1,-6.06,118.61,-8.97,-5.57,6449,2018-07-07 14:53:47:926
1.9249,1.3791,10.1323,-29.16,-17.1,-6.06,118.61,-8.97,-5.57,6473,2018-07-07 14:53:47:950
1.9249,1.3791,10.1323,-29.16,-17.1,-6.06,118.61,-8.97,-5.57,6498,2018-07-07 14:53:47:975
0.8906,1.5036,9.6822,-29.16,-17.1,-6.06,118.61,-8.97,-5.57,6522,2018-07-07 14:53:47:999
0.8906,1.5036,9.6822,-29.16,-17.1,-6.06,118.61,-8.97,-5.57,6545,2018-07-07 14:53:48:022
0.8906,1.5036,9.6822,-24.96,-21.36,-4.8,128.79,-8.79,-5.26,6570,2018-07-07 14:53:48:047
0.8906,1.5036,9.6822,-24.96,-21.36,-4.8,128.79,-8.79,-5.26,6593,2018-07-07 14:53:48:070
0.8906,1.5036,9.6822,-24.96,-21.36,-4.8,128.79,-8.79,-5.26,6618,2018-07-07 14:53:48:095
0.4597,1.9345,9.2799,-24.96,-21.36,-4.8,128.79,-8.79,-5.26,6642,2018-07-07 14:53:48:119
0.4597,1.9345,9.2799,-24.96,-21.36,-4.8,128.79,-8.79,-5.26,6666,2018-07-07 14:53:48:143
0.4597,1.9345,9.2799,-24.96,-21.36,-4.8,128.79,-8.79,-5.26,6690,2018-07-07 14:53:48:167
0.4597,1.9345,9.2799,-24.96,-21.36,-4.8,128.79,-8.79,-5.26,6713,2018-07-07 14:53:48:190
0.4597,1.9345,9.2799,-24.96,-21.36,-4.8,128.79,-8.79,-5.26,6737,2018-07-07 14:53:48:214
0.0766,2.4804,8.916,-17.52,-26.04,-3.18,143.4,-15.55,-0.49,6762,2018-07-07 14:53:48:239
0.0766,2.4804,8.916,-17.52,-26.04,-3.18,143.4,-15.55,-0.49,6786,2018-07-07 14:53:48:263
0.0766,2.4804,8.916,-17.52,-26.04,-3.18,143.4,-15.55,-0.49,6810,2018-07-07 14:53:48:287
0.0766,2.4804,8.916,-17.52,-26.04,-3.18,143.4,-15.55,-0.49,6834,2018-07-07 14:53:48:311
0.2203,3.1412,9.0405,-17.52,-26.04,-3.18,143.4,-15.55,-0.49,6858,2018-07-07 14:53:48:335
0.2203,3.1412,9.0405,-17.52,-26.04,-3.18,143.4,-15.55,-0.49,6882,2018-07-07 14:53:48:359
0.2203,3.1412,9.0405,-17.52,-26.04,-3.18,143.4,-15.55,-0.49,6905,2018-07-07 14:53:48:382
0.2203,3.1412,9.0405,-17.52,-26.04,-3.18,143.4,-15.55,-0.49,6930,2018-07-07 14:53:48:407
0.2203,3.1412,9.0405,-7.74,-28.56,-2.46,163.41,-19.15,-1.4,6953,2018-07-07 14:53:48:430
-0.2011,3.6679,8.3318,-7.74,-28.56,-2.46,163.41,-19.15,-1.4,6978,2018-07-07 14:53:48:455
-0.2011,3.6679,8.3318,-7.74,-28.56,-2.46,163.41,-19.15,-1.4,7002,2018-07-07 14:53:48:479
-0.2011,3.6679,8.3318,-7.74,-28.56,-2.46,163.41,-19.15,-1.4,7026,2018-07-07 14:53:48:503
-0.2011,3.6679,8.3318,-7.74,-28.56,-2.46,163.41,-19.15,-1.4,7049,2018-07-07 14:53:48:526
-0.2011,3.6679,8.3318,-7.74,-28.56,-2.46,163.41,-19.15,-1.4,7073,2018-07-07 14:53:48:550
-0.8045,2.9401,8.9447,-7.74,-28.56,-2.46,163.41,-19.15,-1.4,7097,2018-07-07 14:53:48:574
-0.8045,2.9401,8.9447,-7.74,-28.56,-2.46,163.41,-19.15,-1.4,7121,2018-07-07 14:53:48:598
-0.8045,2.9401,8.9447,-7.74,-28.56,-2.46,163.41,-19.15,-1.4,7145,2018-07-07 14:53:48:622
-0.8045,2.9401,8.9447,2.1,-28.2,-1.86,184.0,-18.13,5.14,7170,2018-07-07 14:53:48:647
-0.8045,2.9401,8.9447,2.1,-28.2,-1.86,184.0,-18.13,5.14,7194,2018-07-07 14:53:48:671
-0.1341,3.0071,8.9639,2.1,-28.2,-1.86,184.0,-18.13,5.14,7240,2018-07-07 14:53:48:717
-0.1341,3.0071,8.9639,2.1,-28.2,-1.86,184.0,-18.13,5.14,7241,2018-07-07 14:53:48:718
-0.1341,3.0071,8.9639,2.1,-28.2,-1.86,184.0,-18.13,5.14,7265,2018-07-07 14:53:48:742
-0.1341,3.0071,8.9639,2.1,-28.2,-1.86,184.0,-18.13,5.14,7289,2018-07-07 14:53:48:766
-0.1341,3.0071,8.9639,2.1,-28.2,-1.86,184.0,-18.13,5.14,7314,2018-07-07 14:53:48:791
-0.3256,2.6624,7.8434,2.1,-28.2,-1.86,184.0,-18.13,5.14,7337,2018-07-07 14:53:48:814
-0.3256,2.6624,7.8434,10.56,-26.04,-1.92,204.59,-18.73,2.38,7361,2018-07-07 14:53:48:838
-0.3256,2.6624,7.8434,10.56,-26.04,-1.92,204.59,-18.73,2.38,7386,2018-07-07 14:53:48:863
-0.3256,2.6624,7.8434,10.56,-26.04,-1.92,204.59,-18.73,2.38,7410,2018-07-07 14:53:48:887
-0.3256,2.6624,7.8434,10.56,-26.04,-1.92,204.59,-18.73,2.38,7434,2018-07-07 14:53:48:911
-0.7949,3.2848,8.3318,10.56,-26.04,-1.92,204.59,-18.73,2.38,7457,2018-07-07 14:53:48:934
-0.7949,3.2848,8.3318,10.56,-26.04,-1.92,204.59,-18.73,2.38,7481,2018-07-07 14:53:48:958
-0.7949,3.2848,8.3318,10.56,-26.04,-1.92,204.59,-18.73,2.38,7505,2018-07-07 14:53:48:982
-0.7949,3.2848,8.3318,10.56,-26.04,-1.92,204.59,-18.73,2.38,7529,2018-07-07 14:53:49:006
-0.7949,3.2848,8.3318,16.44,-22.8,-3.48,218.36,-21.43,5.45,7554,2018-07-07 14:53:49:031
-1.2163,3.3423,8.983,16.44,-22.8,-3.48,218.36,-21.43,5.45,7577,2018-07-07 14:53:49:054
-1.2163,3.3423,8.983,16.44,-22.8,-3.48,218.36,-21.43,5.45,7601,2018-07-07 14:53:49:078
-1.2163,3.3423,8.983,16.44,-22.8,-3.48,218.36,-21.43,5.45,7626,2018-07-07 14:53:49:103
-1.2163,3.3423,8.983,16.44,-22.8,-3.48,218.36,-21.43,5.45,7649,2018-07-07 14:53:49:126
-1.2163,3.3423,8.983,16.44,-22.8,-3.48,218.36,-21.43,5.45,7674,2018-07-07 14:53:49:151
-0.8715,3.9648,8.4563,16.44,-22.8,-3.48,218.36,-21.43,5.45,7697,2018-07-07 14:53:49:174
-0.8715,3.9648,8.4563,16.44,-22.8,-3.48,218.36,-21.43,5.45,7722,2018-07-07 14:53:49:199
-0.8715,3.9648,8.4563,16.44,-22.8,-3.48,218.36,-21.43,5.45,7745,2018-07-07 14:53:49:222
-0.8715,3.9648,8.4563,20.4,-19.14,-4.62,233.68,-25.0,5.88,7770,2018-07-07 14:53:49:247
-0.8715,3.9648,8.4563,20.4,-19.14,-4.62,233.68,-25.0,5.88,7793,2018-07-07 14:53:49:270
-0.5171,4.3479,9.0309,20.4,-19.14,-4.62,233.68,-25.0,5.88,7818,2018-07-07 14:53:49:295
-0.5171,4.3479,9.0309,20.4,-19.14,-4.62,233.68,-25.0,5.88,7842,2018-07-07 14:53:49:319
-0.5171,4.3479,9.0309,20.4,-19.14,-4.62,233.68,-25.0,5.88,7866,2018-07-07 14:53:49:343
-0.5171,4.3479,9.0309,20.4,-19.14,-4.62,233.68,-25.0,5.88,7890,2018-07-07 14:53:49:367
-0.5171,4.3479,9.0309,20.4,-19.14,-4.62,233.68,-25.0,5.88,7914,2018-07-07 14:53:49:391
0.8523,3.371,9.9216,20.4,-19.14,-4.62,233.68,-25.0,5.88,7938,2018-07-07 14:53:49:415
0.8523,3.371,9.9216,22.38,-15.72,-6.72,239.01,-18.7,-4.91,7961,2018-07-07 14:53:49:438
0.8523,3.371,9.9216,22.38,-15.72,-6.72,239.01,-18.7,-4.91,7985,2018-07-07 14:53:49:462
0.8523,3.371,9.9216,22.38,-15.72,-6.72,239.01,-18.7,-4.91,8010,2018-07-07 14:53:49:487
0.8523,3.371,9.9216,22.38,-15.72,-6.72,239.01,-18.7,-4.91,8033,2018-07-07 14:53:49:510
0.0766,2.2889,8.1403,23.4,-13.92,-7.98,239.01,-18.7,-4.91,8057,2018-07-07 14:53:49:534
0.0766,2.2889,8.1403,23.4,-13.92,-7.98,239.01,-18.7,-4.91,8081,2018-07-07 14:53:49:558
0.0766,2.2889,8.1403,23.4,-13.92,-7.98,239.01,-18.7,-4.91,8106,2018-07-07 14:53:49:583
0.0766,2.2889,8.1403,23.4,-13.92,-7.98,239.01,-18.7,-4.91,8130,2018-07-07 14:53:49:607
0.5842,2.4708,9.3087,23.4,-13.92,-7.98,239.01,-18.7,-4.91,8154,2018-07-07 14:53:49:631
0.5842,2.4708,9.3087,23.4,-13.92,-7.98,239.01,-18.7,-4.91,8177,2018-07-07 14:53:49:654
0.5842,2.4708,9.3087,23.4,-13.92,-7.98,239.01,-18.7,-4.91,8202,2018-07-07 14:53:49:679
0.5842,2.4708,9.3087,23.4,-13.92,-7.98,239.01,-18.7,-4.91,8226,2018-07-07 14:53:49:703
0.5842,2.4708,9.3087,25.02,-10.5,-9.96,253.63,-14.84,-3.59,8249,2018-07-07 14:53:49:726
0.1628,2.9592,7.8626,25.02,-10.5,-9.96,253.63,-14.84,-3.59,8273,2018-07-07 14:53:49:750
0.1628,2.9592,7.8626,25.02,-10.5,-9.96,253.63,-14.84,-3.59,8299,2018-07-07 14:53:49:776
0.1628,2.9592,7.8626,25.02,-10.5,-9.96,253.63,-14.84,-3.59,8322,2018-07-07 14:53:49:799
0.1628,2.9592,7.8626,25.02,-10.5,-9.96,253.63,-14.84,-3.59,8346,2018-07-07 14:53:49:823
0.1628,2.9592,7.8626,25.02,-10.5,-9.96,253.63,-14.84,-3.59,8370,2018-07-07 14:53:49:847
0.3639,3.3423,8.9064,25.02,-10.5,-9.96,253.63,-14.84,-3.59,8394,2018-07-07 14:53:49:871
0.3639,3.3423,8.9064,25.02,-10.5,-9.96,253.63,-14.84,-3.59,8417,2018-07-07 14:53:49:894
0.3639,3.3423,8.9064,25.02,-10.5,-9.96,253.63,-14.84,-3.59,8442,2018-07-07 14:53:49:919
0.3639,3.3423,8.9064,25.2,-7.32,-11.88,263.94,-20.55,-2.34,8465,2018-07-07 14:53:49:942
0.3639,3.3423,8.9064,25.2,-7.32,-11.88,263.94,-20.55,-2.34,8490,2018-07-07 14:53:49:967
0.4118,3.8499,9.5002,25.2,-7.32,-11.88,263.94,-20.55,-2.34,8514,2018-07-07 14:53:49:991
0.4118,3.8499,9.5002,25.2,-7.32,-11.88,263.94,-20.55,-2.34,8538,2018-07-07 14:53:50:015
0.4118,3.8499,9.5002,25.2,-7.32,-11.88,263.94,-20.55,-2.34,8562,2018-07-07 14:53:50:039
0.4118,3.8499,9.5002,25.2,-7.32,-11.88,263.94,-20.55,-2.34,8586,2018-07-07 14:53:50:063
0.4118,3.8499,9.5002,25.2,-7.32,-11.88,263.94,-20.55,-2.34,8610,2018-07-07 14:53:50:087
0.4597,3.8211,10.3238,25.2,-7.32,-11.88,263.94,-20.55,-2.34,8633,2018-07-07 14:53:50:110
0.4597,3.8211,10.3238,25.38,-4.68,-13.62,269.5,-20.29,-2.55,8657,2018-07-07 14:53:50:134
0.4597,3.8211,10.3238,25.38,-4.68,-13.62,269.5,-20.29,-2.55,8682,2018-07-07 14:53:50:159
0.4597,3.8211,10.3238,25.38,-4.68,-13.62,269.5,-20.29,-2.55,8705,2018-07-07 14:53:50:182
0.4597,3.8211,10.3238,25.38,-4.68,-13.62,269.5,-20.29,-2.55,8729,2018-07-07 14:53:50:206
-0.4884,2.0877,10.4291,25.38,-4.68,-13.62,269.5,-20.29,-2.55,8753,2018-07-07 14:53:50:230
-0.4884,2.0877,10.4291,25.38,-4.68,-13.62,269.5,-20.29,-2.55,8777,2018-07-07 14:53:50:254
-0.4884,2.0877,10.4291,25.38,-4.68,-13.62,269.5,-20.29,-2.55,8801,2018-07-07 14:53:50:278
-0.4884,2.0877,10.4291,25.38,-4.68,-13.62,269.5,-20.29,-2.55,8825,2018-07-07 14:53:50:302
-0.4884,2.0877,10.4291,25.38,-4.68,-13.62,269.5,-20.29,2.68,8849,2018-07-07 14:53:50:326
-0.067,2.1261,9.5193,26.1,-2.46,-14.52,272.75,-11.31,2.68,8873,2018-07-07 14:53:50:350
-0.067,2.1261,9.5193,26.1,-2.46,-14.52,272.75,-11.31,2.68,8897,2018-07-07 14:53:50:374
-0.067,2.1261,9.5193,26.1,-2.46,-14.52,272.75,-11.31,2.68,8922,2018-07-07 14:53:50:399
-0.067,2.1261,9.5193,26.1,-2.46,-14.52,272.75,-11.31,2.68,8945,2018-07-07 14:53:50:422
-0.067,2.1261,9.5193,26.1,-2.46,-14.52,272.75,-11.31,2.68,8969,2018-07-07 14:53:50:446
-0.1053,2.5091,8.0732,26.1,-2.46,-14.52,272.75,-11.31,2.68,8993,2018-07-07 14:53:50:470
-0.1053,2.5091,8.0732,26.1,-2.46,-14.52,272.75,-11.31,2.68,9018,2018-07-07 14:53:50:495
-0.1053,2.5091,8.0732,26.1,-2.46,-14.52,272.75,-11.31,2.68,9041,2018-07-07 14:53:50:518
-0.1053,2.5091,8.0732,26.52,-1.68,-15.06,275.64,-17.26,0.75,9066,2018-07-07 14:53:50:543
-0.1053,2.5091,8.0732,26.52,-1.68,-15.06,275.64,-17.26,0.75,9090,2018-07-07 14:53:50:567
-0.0096,3.1891,8.6095,26.52,-1.68,-15.06,275.64,-17.26,0.75,9114,2018-07-07 14:53:50:591
-0.0096,3.1891,8.6095,26.52,-1.68,-15.06,275.64,-17.26,0.75,9138,2018-07-07 14:53:50:615
-0.0096,3.1891,8.6095,26.52,-1.68,-15.06,275.64,-17.26,0.75,9161,2018-07-07 14:53:50:638
-0.0096,3.1891,8.6095,26.52,-1.68,-15.06,275.64,-17.26,0.75,9185,2018-07-07 14:53:50:662
-0.0096,3.1891,8.6095,26.52,-1.68,-15.06,275.64,-17.26,0.75,9210,2018-07-07 14:53:50:687
0.2777,3.6775,8.9639,26.52,-1.68,-15.06,275.64,-17.26,0.75,9233,2018-07-07 14:53:50:710
0.2777,3.6775,8.9639,27.18,-2.82,-15.66,276.18,-22.3,-1.77,9257,2018-07-07 14:53:50:734
0.2777,3.6775,8.9639,27.18,-2.82,-15.66,276.18,-22.3,-1.77,9282,2018-07-07 14:53:50:759
0.2777,3.6775,8.9639,27.18,-2.82,-15.66,276.18,-22.3,-1.77,9305,2018-07-07 14:53:50:782
0.2777,3.6775,8.9639,27.18,-2.82,-15.66,276.18,-22.3,-1.77,9330,2018-07-07 14:53:50:807
0.2969,3.5051,9.8545,27.18,-2.82,-15.66,276.18,-22.3,-1.77,9357,2018-07-07 14:53:50:834
0.2969,3.5051,9.8545,27.18,-2.82,-15.66,276.18,-22.3,-1.77,9377,2018-07-07 14:53:50:854
0.2969,3.5051,9.8545,27.18,-2.82,-15.66,276.18,-22.3,-1.77,9402,2018-07-07 14:53:50:879
0.2969,3.5051,9.8545,27.18,-2.82,-15.66,276.18,-22.3,-1.77,9425,2018-07-07 14:53:50:902
0.2969,3.5051,9.8545,27.18,-4.08,-15.54,272.52,-19.57,-1.73,9450,2018-07-07 14:53:50:927
0.3831,2.2697,10.9846,28.86,-4.08,-15.54,272.52,-19.57,-1.73,9473,2018-07-07 14:53:50:950
0.3831,2.2697,10.9846,28.86,-4.08,-15.54,272.52,-19.57,-1.73,9498,2018-07-07 14:53:50:975
0.3831,2.2697,10.9846,28.86,-4.08,-15.54,272.52,-19.57,-1.73,9521,2018-07-07 14:53:50:998
0.3831,2.2697,10.9846,28.86,-4.08,-15.54,272.52,-19.57,-1.73,9546,2018-07-07 14:53:51:023
1.9249,2.0303,9.6151,28.86,-4.08,-15.54,272.52,-19.57,-1.73,9569,2018-07-07 14:53:51:046
1.9249,2.0303,9.6151,28.86,-4.08,-15.54,272.52,-19.57,-1.73,9594,2018-07-07 14:53:51:071
1.9249,2.0303,9.6151,29.46,-5.52,-15.72,263.05,-11.7,-11.32,9651,2018-07-07 14:53:51:128
1.9249,2.0303,9.6151,29.46,-5.52,-15.72,263.05,-11.7,-11.32,9654,2018-07-07 14:53:51:131
1.9249,2.0303,9.6151,29.46,-5.52,-15.72,263.05,-11.7,-11.32,9665,2018-07-07 14:53:51:142
0.4022,2.4134,8.418,29.46,-5.52,-15.72,263.05,-11.7,-11.32,9689,2018-07-07 14:53:51:166
0.4022,2.4134,8.418,29.46,-5.52,-15.72,263.05,-11.7,-11.32,9714,2018-07-07 14:53:51:191
0.4022,2.4134,8.418,29.46,-5.52,-15.72,263.05,-11.7,-11.32,9737,2018-07-07 14:53:51:214
0.4022,2.4134,8.418,29.46,-5.52,-15.72,263.05,-11.7,-11.32,9761,2018-07-07 14:53:51:238
0.4022,2.4134,8.418,29.46,-5.52,-15.72,263.05,-11.7,-11.32,9786,2018-07-07 14:53:51:263
0.8619,3.055,9.0692,29.46,-5.52,-15.72,263.05,-11.7,-11.32,9809,2018-07-07 14:53:51:286
0.8619,3.055,9.0692,29.46,-5.52,-15.72,263.05,-11.7,-11.32,9833,2018-07-07 14:53:51:310
0.8619,3.055,9.0692,30.42,-5.52,-15.66,267.21,-18.54,-5.43,9857,2018-07-07 14:53:51:334
0.8619,3.055,9.0692,30.42,-5.52,-15.66,267.21,-18.54,-5.43,9881,2018-07-07 14:53:51:358
0.8619,3.055,9.0692,30.42,-5.52,-15.66,267.21,-18.54,-5.43,9905,2018-07-07 14:53:51:382
0.6704,3.7158,9.0788,30.42,-5.52,-15.66,267.21,-18.54,-5.43,9930,2018-07-07 14:53:51:407
0.6704,3.7158,9.0788,30.42,-5.52,-15.66,267.21,-18.54,-5.43,9953,2018-07-07 14:53:51:430
0.6704,3.7158,9.0788,30.96,-5.16,-15.66,267.21,-18.54,-5.43,9978,2018-07-07 14:53:51:455
0.6704,3.7158,9.0788,30.96,-5.16,-15.66,267.21,-18.54,-5.43,10001,2018-07-07 14:53:51:478
0.6704,3.7158,9.0788,30.96,-5.16,-15.66,267.21,-18.54,-5.43,10026,2018-07-07 14:53:51:503
1.063,3.7445,10.659,30.96,-5.16,-15.66,267.21,-18.54,-5.43,10049,2018-07-07 14:53:51:526
1.063,3.7445,10.659,30.96,-5.16,-15.66,267.21,-18.54,-5.43,10073,2018-07-07 14:53:51:550
1.063,3.7445,10.659,30.96,-5.16,-15.66,267.21,-18.54,-5.43,10098,2018-07-07 14:53:51:575
1.063,3.7445,10.659,30.96,-5.16,-15.66,267.21,-18.54,-5.43,10121,2018-07-07 14:53:51:598
1.063,3.7445,10.659,30.96,-5.16,-15.66,267.21,-18.54,-5.43,10146,2018-07-07 14:53:51:623
0.5171,3.2178,10.7356,32.22,-4.62,-14.88,268.55,-19.27,-5.7,10170,2018-07-07 14:53:51:647
0.5171,3.2178,10.7356,32.22,-4.62,-14.88,268.55,-19.27,-5.7,10193,2018-07-07 14:53:51:670
0.5171,3.2178,10.7356,32.22,-4.62,-14.88,268.55,-19.27,-5.7,10217,2018-07-07 14:53:51:694
0.5171,3.2178,10.7356,32.22,-4.62,-14.88,268.55,-19.27,-5.7,10241,2018-07-07 14:53:51:718
0.5171,3.2178,10.7356,32.22,-4.62,-14.88,268.55,-19.27,-5.7,10265,2018-07-07 14:53:51:742
-0.2394,2.2505,7.1347,32.22,-4.62,-14.88,268.55,-19.27,-5.7,10289,2018-07-07 14:53:51:766
-0.2394,2.2505,7.1347,32.22,-4.62,-14.88,268.55,-19.27,-5.7,10314,2018-07-07 14:53:51:791
-0.2394,2.2505,7.1347,32.22,-4.62,-14.88,268.55,-19.27,-5.7,10337,2018-07-07 14:53:51:814
-0.2394,2.2505,7.1347,32.34,-3.84,-15.36,271.85,-17.5,1.92,10361,2018-07-07 14:53:51:838
-0.2394,2.2505,7.1347,32.34,-3.84,-15.36,271.85,-17.5,1.92,10386,2018-07-07 14:53:51:863
-0.2203,2.739,10.2185,32.34,-3.84,-15.36,271.85,-17.5,1.92,10410,2018-07-07 14:53:51:887
-0.2203,2.739,10.2185,32.34,-3.84,-15.36,271.85,-17.5,1.92,10433,2018-07-07 14:53:51:910
-0.2203,2.739,10.2185,32.34,-3.84,-15.36,271.85,-17.5,1.92,10457,2018-07-07 14:53:51:934
-0.2203,2.739,10.2185,32.34,-3.84,-15.36,271.85,-17.5,1.92,10481,2018-07-07 14:53:51:958
-0.2203,2.739,10.2185,32.34,-3.84,-15.36,271.85,-17.5,1.92,10505,2018-07-07 14:53:51:982
0.3448,3.3136,7.9104,32.34,-3.84,-15.36,271.85,-17.5,1.92,10529,2018-07-07 14:53:52:006
0.3448,3.3136,7.9104,32.04,-3.9,-16.08,273.4,-22.71,-2.5,10554,2018-07-07 14:53:52:031
0.3448,3.3136,7.9104,32.04,-3.9,-16.08,273.4,-22.71,-2.5,10577,2018-07-07 14:53:52:054
0.3448,3.3136,7.9104,32.04,-3.9,-16.08,273.4,-22.71,-2.5,10602,2018-07-07 14:53:52:079
0.3448,3.3136,7.9104,32.04,-3.9,-16.08,273.4,-22.71,-2.5,10625,2018-07-07 14:53:52:102
0.3926,3.62,8.0445,32.04,-3.9,-16.08,273.4,-22.71,-2.5,10650,2018-07-07 14:53:52:127
0.3926,3.62,8.0445,32.04,-3.9,-16.08,273.4,-22.71,-2.5,10674,2018-07-07 14:53:52:151
0.3926,3.62,8.0445,32.04,-3.9,-16.08,273.4,-22.71,-2.5,10697,2018-07-07 14:53:52:174
0.3926,3.62,8.0445,32.04,-3.9,-16.08,273.4,-22.71,-2.5,10721,2018-07-07 14:53:52:198
0.3926,3.62,8.0445,32.04,-3.9,-16.08,273.4,-22.71,-2.5,10746,2018-07-07 14:53:52:223
0.316,3.869,10.4483,32.76,-4.08,-16.14,272.49,-20.31,-1.73,10770,2018-07-07 14:53:52:247
0.316,3.869,10.4483,32.76,-4.08,-16.14,272.49,-20.31,-1.73,10793,2018-07-07 14:53:52:270
0.316,3.869,10.4483,32.76,-4.08,-16.14,272.49,-20.31,-1.73,10817,2018-07-07 14:53:52:294
0.316,3.869,10.4483,32.76,-4.08,-16.14,272.49,-20.31,-1.73,10842,2018-07-07 14:53:52:319
0.8811,2.6432,11.904,32.76,-4.08,-16.14,272.49,-20.31,-1.73,10865,2018-07-07 14:53:52:342
0.8811,2.6432,11.904,32.76,-4.08,-16.14,272.49,-20.31,-1.73,10890,2018-07-07 14:53:52:367
0.8811,2.6432,11.904,32.76,-4.08,-16.14,272.49,-20.31,-1.73,10914,2018-07-07 14:53:52:391
0.8811,2.6432,11.904,32.76,-4.08,-16.14,272.49,-20.31,-1.73,10937,2018-07-07 14:53:52:414
0.8811,2.6432,11.904,32.22,-4.26,-17.58,269.08,-12.49,-4.23,10962,2018-07-07 14:53:52:439
0.8523,2.2984,7.4891,32.22,-4.26,-17.58,269.08,-12.49,-4.23,10985,2018-07-07 14:53:52:462
0.8523,2.2984,7.4891,32.22,-4.26,-17.58,269.08,-12.49,-4.23,11009,2018-07-07 14:53:52:486
0.8523,2.2984,7.4891,32.22,-4.26,-17.58,269.08,-12.49,-4.23,11034,2018-07-07 14:53:52:511
0.8523,2.2984,7.4891,32.22,-4.26,-17.58,269.08,-12.49,-4.23,11057,2018-07-07 14:53:52:534
0.8523,2.2984,7.4891,32.22,-4.26,-17.58,269.08,-12.49,-4.23,11082,2018-07-07 14:53:52:559
0.5171,2.4038,9.1363,32.22,-4.26,-17.58,269.08,-12.49,-4.23,11105,2018-07-07 14:53:52:582
0.5171,2.4038,9.1363,32.22,-4.26,-17.58,269.08,-12.49,-4.23,11130,2018-07-07 14:53:52:607
0.5171,2.4038,9.1363,32.22,-4.62,-18.36,268.73,-14.72,-3.24,11153,2018-07-07 14:53:52:630
0.5171,2.4038,9.1363,32.22,-4.62,-18.36,268.73,-14.72,-3.24,11178,2018-07-07 14:53:52:655
0.5171,2.4038,9.1363,32.22,-4.62,-18.36,268.73,-14.72,-3.24,11201,2018-07-07 14:53:52:678
0.7374,2.9784,8.5234,32.22,-4.62,-18.36,268.73,-14.72,-3.24,11225,2018-07-07 14:53:52:702
0.7374,2.9784,8.5234,32.22,-4.62,-18.36,268.73,-14.72,-3.24,11249,2018-07-07 14:53:52:726
0.7374,2.9784,8.5234,32.22,-4.62,-18.36,268.73,-14.72,-3.24,11274,2018-07-07 14:53:52:751
0.7374,2.9784,8.5234,32.22,-4.62,-18.36,268.73,-14.72,-3.24,11297,2018-07-07 14:53:52:774
0.7374,2.9784,8.5234,32.22,-4.62,-18.36,268.73,-14.72,-3.24,11321,2018-07-07 14:53:52:798
0.4788,3.5913,8.849,32.22,-4.62,-18.36,268.73,-14.72,-3.24,11345,2018-07-07 14:53:52:822
0.4788,3.5913,8.849,32.94,-3.36,-18.66,276.17,-22.06,-3.1,11370,2018-07-07 14:53:52:847
0.4788,3.5913,8.849,32.94,-3.36,-18.66,276.17,-22.06,-3.1,11394,2018-07-07 14:53:52:871
0.4788,3.5913,8.849,32.94,-3.36,-18.66,276.17,-22.06,-3.1,11417,2018-07-07 14:53:52:894
0.4788,3.5913,8.849,32.94,-3.36,-18.66,276.17,-22.06,-3.1,11441,2018-07-07 14:53:52:918
0.6895,3.984,9.9407,32.94,-3.36,-18.66,276.17,-22.06,-3.1,11466,2018-07-07 14:53:52:943
0.6895,3.984,9.9407,32.94,-3.36,-18.66,276.17,-22.06,-3.1,11489,2018-07-07 14:53:52:966
0.6895,3.984,9.9407,32.94,-3.36,-18.66,276.17,-22.06,-3.1,11514,2018-07-07 14:53:52:991
0.6895,3.984,9.9407,32.94,-3.36,-18.66,276.17,-22.06,-3.1,11537,2018-07-07 14:53:53:014
0.6895,3.984,9.9407,33.42,-2.58,-19.56,276.28,-21.79,-3.97,11561,2018-07-07 14:53:53:038
0.2873,3.553,9.4715,33.42,-2.58,-19.56,276.28,-21.79,-3.97,11586,2018-07-07 14:53:53:063
0.2873,3.553,9.4715,33.42,-2.58,-19.56,276.28,-21.79,-3.97,11609,2018-07-07 14:53:53:086
0.2873,3.553,9.4715,33.42,-2.58,-19.56,276.28,-21.79,-3.97,11634,2018-07-07 14:53:53:111
0.2873,3.553,9.4715,33.42,-2.58,-19.56,276.28,-21.79,-3.97,11658,2018-07-07 14:53:53:135
0.2873,3.553,9.4715,33.42,-2.58,-19.56,276.28,-21.79,-3.97,11681,2018-07-07 14:53:53:158
-0.814,2.1835,7.1251,33.42,-2.58,-19.56,276.28,-21.79,-3.97,11705,2018-07-07 14:53:53:182
-0.814,2.1835,7.1251,33.42,-2.58,-19.56,276.28,-21.79,-3.97,11730,2018-07-07 14:53:53:207
-0.814,2.1835,7.1251,34.5,-0.78,-19.56,280.44,-16.93,6.52,11753,2018-07-07 14:53:53:230
-0.814,2.1835,7.1251,34.5,-0.78,-19.56,280.44,-16.93,6.52,11777,2018-07-07 14:53:53:254
-0.814,2.1835,7.1251,34.5,-0.78,-19.56,280.44,-16.93,6.52,11801,2018-07-07 14:53:53:278
0.3256,2.7677,10.8409,34.5,-0.78,-19.56,280.44,-16.93,6.52,11826,2018-07-07 14:53:53:303
0.3256,2.7677,10.8409,34.5,-0.78,-19.56,280.44,-16.93,6.52,11849,2018-07-07 14:53:53:326
0.3256,2.7677,10.8409,34.5,-0.78,-19.56,280.44,-16.93,6.52,11873,2018-07-07 14:53:53:350
0.3256,2.7677,10.8409,34.5,-0.78,-19.56,280.44,-16.93,6.52,11897,2018-07-07 14:53:53:374
0.3256,2.7677,10.8409,34.5,-0.78,-19.56,280.44,-16.93,6.52,11921,2018-07-07 14:53:53:398
0.8428,3.1029,7.5369,34.5,-0.78,-19.56,280.44,-16.93,6.52,11946,2018-07-07 14:53:53:423
0.8428,3.1029,7.5369,35.76,-0.24,-19.92,278.99,-22.25,-6.38,11969,2018-07-07 14:53:53:446
0.8428,3.1029,7.5369,35.76,-0.24,-19.92,278.99,-22.25,-6.38,11993,2018-07-07 14:53:53:470
0.249,3.5338,8.5425,36.18,-0.42,-20.1,278.99,-22.25,-6.38,12055,2018-07-07 14:53:53:532
0.249,3.5338,8.5425,36.18,-0.42,-20.1,278.99,-22.25,-6.38,12056,2018-07-07 14:53:53:533
0.249,3.5338,8.5425,36.18,-0.42,-20.1,278.99,-22.25,-6.38,12066,2018-07-07 14:53:53:543
0.249,3.5338,8.5425,36.18,-0.42,-20.1,278.99,-22.25,-6.38,12089,2018-07-07 14:53:53:566
0.249,3.5338,8.5425,36.18,-0.42,-20.1,278.99,-22.25,-6.38,12113,2018-07-07 14:53:53:590
0.249,3.5338,8.5425,36.18,-0.42,-20.1,278.99,-22.25,-6.38,12137,2018-07-07 14:53:53:614
0.249,3.5338,8.5425,36.18,-0.42,-20.1,278.99,-22.25,-6.38,12161,2018-07-07 14:53:53:638
0.4693,3.9744,10.0365,36.18,-0.42,-20.1,278.99,-22.25,-6.38,12186,2018-07-07 14:53:53:663
0.4693,3.9744,10.0365,36.18,-0.42,-20.1,278.99,-22.25,-6.38,12209,2018-07-07 14:53:53:686
0.4693,3.9744,10.0365,36.18,-0.42,-20.1,278.99,-22.25,-6.38,12233,2018-07-07 14:53:53:710
0.4693,3.9744,10.0365,37.26,-0.84,-19.8,278.68,-21.58,-2.68,12257,2018-07-07 14:53:53:734
0.4693,3.9744,10.0365,37.26,-0.84,-19.8,278.68,-21.58,-2.68,12281,2018-07-07 14:53:53:758
1.6089,3.1508,12.3254,37.26,-0.84,-19.8,278.68,-21.58,-2.68,12305,2018-07-07 14:53:53:782
1.6089,3.1508,12.3254,37.26,-0.84,-19.8,278.68,-21.58,-2.68,12329,2018-07-07 14:53:53:806
1.6089,3.1508,12.3254,37.26,-0.84,-19.8,278.68,-21.58,-2.68,12353,2018-07-07 14:53:53:830
1.6089,3.1508,12.3254,37.26,-0.84,-19.8,278.68,-21.58,-2.68,12377,2018-07-07 14:53:53:854
0.814,2.1644,7.0294,37.26,-0.84,-19.8,278.68,-21.58,-2.68,12401,2018-07-07 14:53:53:878
0.814,2.1644,7.0294,37.26,-0.84,-19.8,278.68,-21.58,-2.68,12426,2018-07-07 14:53:53:903
0.814,2.1644,7.0294,37.26,-0.84,-19.8,278.68,-21.58,-2.68,12449,2018-07-07 14:53:53:926
0.814,2.1644,7.0294,37.98,-1.5,-19.98,275.1,-17.01,-6.61,12473,2018-07-07 14:53:53:950
0.814,2.1644,7.0294,37.98,-1.5,-19.98,275.1,-17.01,-6.61,12498,2018-07-07 14:53:53:975
1.1396,2.4229,10.1131,37.98,-1.5,-19.98,275.1,-17.01,-6.61,12521,2018-07-07 14:53:53:998
1.1396,2.4229,10.1131,37.98,-1.5,-19.98,275.1,-17.01,-6.61,12545,2018-07-07 14:53:54:022
1.1396,2.4229,10.1131,37.98,-1.5,-19.98,275.1,-17.01,-6.61,12569,2018-07-07 14:53:54:046
1.1396,2.4229,10.1131,37.98,-1.5,-19.98,275.1,-17.01,-6.61,12593,2018-07-07 14:53:54:070
1.1396,2.4229,10.1131,37.98,-1.5,-19.98,275.1,-17.01,-6.61,12617,2018-07-07 14:53:54:094
0.7757,3.2274,7.7189,37.98,-1.5,-19.98,275.1,-17.01,-6.61,12641,2018-07-07 14:53:54:118
0.7757,3.2274,7.7189,38.7,-1.74,-20.1,276.01,-22.59,-5.74,12666,2018-07-07 14:53:54:143
0.7757,3.2274,7.7189,38.7,-1.74,-20.1,276.01,-22.59,-5.74,12689,2018-07-07 14:53:54:166
0.7757,3.2274,7.7189,38.7,-1.74,-20.1,276.01,-22.59,-5.74,12713,2018-07-07 14:53:54:190
0.7757,3.2274,7.7189,38.7,-1.74,-20.1,276.01,-22.59,-5.74,12737,2018-07-07 14:53:54:214
0.7183,3.7062,9.0309,38.7,-1.74,-20.1,276.01,-22.59,-5.74,12761,2018-07-07 14:53:54:238
0.7183,3.7062,9.0309,38.7,-1.74,-20.1,276.01,-22.59,-5.74,12786,2018-07-07 14:53:54:263
0.7183,3.7062,9.0309,38.7,-1.74,-20.1,276.01,-22.59,-5.74,12810,2018-07-07 14:53:54:287
0.7183,3.7062,9.0309,38.7,-1.74,-20.1,276.01,-22.59,-5.74,12833,2018-07-07 14:53:54:310
0.7183,3.7062,9.0309,39.24,-0.12,-19.92,278.96,-22.25,-4.55,12858,2018-07-07 14:53:54:335
0.2873,3.4764,11.1953,39.24,-0.12,-19.92,278.96,-22.25,-4.55,12881,2018-07-07 14:53:54:358
0.2873,3.4764,11.1953,39.24,-0.12,-19.92,278.96,-22.25,-4.55,12905,2018-07-07 14:53:54:382
0.2873,3.4764,11.1953,39.24,-0.12,-19.92,278.96,-22.25,-4.55,12930,2018-07-07 14:53:54:407
0.2873,3.4764,11.1953,39.24,-0.12,-19.92,278.96,-22.25,-4.55,12953,2018-07-07 14:53:54:430
0.2873,3.4764,11.1953,39.24,-0.12,-19.92,278.96,-22.25,-4.55,12977,2018-07-07 14:53:54:454
0.3831,2.059,12.9383,39.24,-0.12,-19.92,278.96,-22.25,-4.55,13001,2018-07-07 14:53:54:478
0.3831,2.059,12.9383,39.24,-0.12,-19.92,278.96,-22.25,-4.55,13026,2018-07-07 14:53:54:503
0.3831,2.059,12.9383,39.24,-0.12,-19.92,278.96,-22.25,-4.55,13049,2018-07-07 14:53:54:526
0.3831,2.059,12.9383,39.24,0.96,-20.94,275.92,-9.04,-1.7,13073,2018-07-07 14:53:54:550
0.3831,2.059,12.9383,39.24,0.96,-20.94,275.92,-9.04,-1.7,13097,2018-07-07 14:53:54:574
-0.4693,1.7334,8.6095,39.24,0.96,-20.94,275.92,-9.04,-1.7,13121,2018-07-07 14:53:54:598
-0.4693,1.7334,8.6095,39.24,0.96,-20.94,275.92,-9.04,-1.7,13146,2018-07-07 14:53:54:623
-0.4693,1.7334,8.6095,39.24,0.96,-20.94,275.92,-9.04,-1.7,13170,2018-07-07 14:53:54:647
-0.4693,1.7334,8.6095,39.24,0.96,-20.94,275.92,-9.04,-1.7,13194,2018-07-07 14:53:54:671
-0.4693,1.7334,8.6095,39.24,0.96,-20.94,275.92,-9.04,-1.7,13218,2018-07-07 14:53:54:695
0.4405,2.3559,8.849,39.24,0.96,-20.94,275.92,-9.04,-1.7,13242,2018-07-07 14:53:54:719
0.4405,2.3559,8.849,39.6,1.32,-21.12,278.11,-14.89,-2.85,13266,2018-07-07 14:53:54:743
0.4405,2.3559,8.849,39.6,1.32,-21.12,278.11,-14.89,-2.85,13289,2018-07-07 14:53:54:766
0.4405,2.3559,8.849,39.6,1.32,-21.12,278.11,-14.89,-2.85,13313,2018-07-07 14:53:54:790
0.4405,2.3559,8.849,39.6,1.32,-21.12,278.11,-14.89,-2.85,13337,2018-07-07 14:53:54:814
0.6129,2.988,8.3414,39.6,1.32,-21.12,278.11,-14.89,-2.85,13361,2018-07-07 14:53:54:838
0.6129,2.988,8.3414,39.6,1.32,-21.12,278.11,-14.89,-2.85,13386,2018-07-07 14:53:54:863
0.6129,2.988,8.3414,39.6,1.32,-21.12,278.11,-14.89,-2.85,13409,2018-07-07 14:53:54:886
0.6129,2.988,8.3414,39.6,1.32,-21.12,278.11,-14.89,-2.85,13433,2018-07-07 14:53:54:910
0.6129,2.988,8.3414,39.6,-0.06,-21.06,278.32,-19.66,-4.2,13457,2018-07-07 14:53:54:934
0.1915,3.5913,8.3414,39.6,-0.06,-21.06,278.32,-19.66,-4.2,13482,2018-07-07 14:53:54:959
0.1915,3.5913,8.3414,39.6,-0.06,-21.06,278.32,-19.66,-4.2,13506,2018-07-07 14:53:54:983
0.1915,3.5913,8.3414,39.6,-0.06,-21.06,278.32,-19.66,-4.2,13530,2018-07-07 14:53:55:007
0.1915,3.5913,8.3414,39.6,-0.06,-21.06,278.32,-19.66,-4.2,13554,2018-07-07 14:53:55:031
0.4884,3.7637,10.2089,39.6,-0.06,-21.06,278.32,-19.66,-4.2,13577,2018-07-07 14:53:55:054
0.4884,3.7637,10.2089,39.6,-0.06,-21.06,278.32,-19.66,-4.2,13602,2018-07-07 14:53:55:079
0.4884,3.7637,10.2089,39.6,-0.06,-21.06,278.32,-19.66,-4.2,13625,2018-07-07 14:53:55:102
0.4884,3.7637,10.2089,39.6,-0.06,-21.06,278.32,-19.66,-4.2,13650,2018-07-07 14:53:55:127
0.4884,3.7637,10.2089,39.54,-2.64,-20.94,275.26,-20.22,-2.74,13673,2018-07-07 14:53:55:150
0.6225,2.2122,11.0325,39.54,-2.64,-20.94,275.26,-20.22,-2.74,13697,2018-07-07 14:53:55:174
0.6225,2.2122,11.0325,39.54,-2.64,-20.94,275.26,-20.22,-2.74,13721,2018-07-07 14:53:55:198
0.6225,2.2122,11.0325,39.54,-2.64,-20.94,275.26,-20.22,-2.74,13746,2018-07-07 14:53:55:223
0.6225,2.2122,11.0325,39.54,-2.64,-20.94,275.26,-20.22,-2.74,13769,2018-07-07 14:53:55:246
0.6225,2.2122,11.0325,39.54,-2.64,-20.94,275.26,-20.22,-2.74,13794,2018-07-07 14:53:55:271
1.7526,2.059,10.1035,39.54,-2.64,-20.94,275.26,-20.22,-2.74,13817,2018-07-07 14:53:55:294
1.7526,2.059,10.1035,39.54,-2.64,-20.94,275.26,-20.22,-2.74,13841,2018-07-07 14:53:55:318
1.7526,2.059,10.1035,39.18,-4.26,-20.58,268.42,-11.35,-9.84,13865,2018-07-07 14:53:55:342
1.7526,2.059,10.1035,39.18,-4.26,-20.58,268.42,-11.35,-9.84,13889,2018-07-07 14:53:55:366
1.7526,2.059,10.1035,39.18,-4.26,-20.58,268.42,-11.35,-9.84,13914,2018-07-07 14:53:55:391
0.4118,2.5283,7.8817,39.18,-4.26,-20.58,268.42,-11.35,-9.84,13937,2018-07-07 14:53:55:414
0.4118,2.5283,7.8817,39.18,-4.26,-20.58,268.42,-11.35,-9.84,13962,2018-07-07 14:53:55:439
0.4118,2.5283,7.8817,39.18,-4.26,-20.58,268.42,-11.35,-9.84,13985,2018-07-07 14:53:55:462
0.4118,2.5283,7.8817,39.18,-4.26,-20.58,268.42,-11.35,-9.84,14009,2018-07-07 14:53:55:486
0.4118,2.5283,7.8817,39.18,-4.26,-20.58,268.42,-11.35,-9.84,14034,2018-07-07 14:53:55:511
0.9864,3.2561,9.7779,38.1,-4.92,-20.46,270.45,-18.33,-5.76,14058,2018-07-07 14:53:55:535
0.9864,3.2561,9.7779,38.1,-4.92,-20.46,270.45,-18.33,-5.76,14081,2018-07-07 14:53:55:558
0.9864,3.2561,9.7779,38.1,-4.92,-20.46,270.45,-18.33,-5.76,14106,2018-07-07 14:53:55:583
0.9864,3.2561,9.7779,38.1,-4.92,-20.46,270.45,-18.33,-5.76,14130,2018-07-07 14:53:55:607
0.9864,3.2561,9.7779,38.1,-4.92,-20.46,270.45,-18.33,-5.76,14154,2018-07-07 14:53:55:631
1.0918,3.6105,9.3565,38.1,-4.92,-20.46,270.45,-18.33,-5.76,14177,2018-07-07 14:53:55:654
1.0918,3.6105,9.3565,38.1,-4.92,-20.46,270.45,-18.33,-5.76,14201,2018-07-07 14:53:55:678
1.0918,3.6105,9.3565,38.1,-4.92,-20.46,270.45,-18.33,-5.76,14226,2018-07-07 14:53:55:703
1.0918,3.6105,9.3565,38.1,-4.92,-20.46,270.45,-18.33,-5.76,14249,2018-07-07 14:53:55:726
1.0918,3.6105,9.3565,37.08,-4.2,-20.52,273.21,-20.97,-6.66,14273,2018-07-07 14:53:55:750
1.063,3.6679,10.7835,37.08,-4.2,-20.52,273.21,-20.97,-6.66,14297,2018-07-07 14:53:55:774
1.063,3.6679,10.7835,37.08,-4.2,-20.52,273.21,-20.97,-6.66,14321,2018-07-07 14:53:55:798
1.063,3.6679,10.7835,37.08,-4.2,-20.52,273.21,-20.97,-6.66,14346,2018-07-07 14:53:55:823
1.063,3.6679,10.7835,37.08,-4.2,-20.52,273.21,-20.97,-6.66,14369,2018-07-07 14:53:55:846
1.063,3.6679,10.7835,37.08,-4.2,-20.52,273.21,-20.97,-6.66,14393,2018-07-07 14:53:55:870
-0.1341,1.6855,7.9487,36.18,-3.12,-20.76,272.48,-11.97,0.97,14453,2018-07-07 14:53:55:930
-0.1341,1.6855,7.9487,36.18,-3.12,-20.76,272.48,-11.97,0.97,14457,2018-07-07 14:53:55:934
-0.1341,1.6855,7.9487,36.18,-3.12,-20.76,272.48,-11.97,0.97,14465,2018-07-07 14:53:55:942
-0.1341,1.6855,7.9487,36.18,-3.12,-20.76,272.48,-11.97,0.97,14489,2018-07-07 14:53:55:966
-0.1341,1.6855,7.9487,36.18,-3.12,-20.76,272.48,-11.97,0.97,14514,2018-07-07 14:53:55:991
0.4214,2.0016,10.0748,36.18,-3.12,-20.76,272.48,-11.97,0.97,14537,2018-07-07 14:53:56:014
0.4214,2.0016,10.0748,36.18,-3.12,-20.76,272.48,-11.97,0.97,14562,2018-07-07 14:53:56:039
0.4214,2.0016,10.0748,36.18,-3.12,-20.76,272.48,-11.97,0.97,14586,2018-07-07 14:53:56:063
0.4214,2.0016,10.0748,36.18,-3.12,-20.76,272.48,-11.97,0.97,14609,2018-07-07 14:53:56:086
0.4214,2.0016,10.0748,36.18,-3.12,-20.76,272.48,-11.97,0.97,14633,2018-07-07 14:53:56:110
0.8045,2.5857,7.9775,36.18,-3.12,-20.76,272.48,-11.97,0.97,14658,2018-07-07 14:53:56:135
0.8045,2.5857,7.9775,35.94,-3.0,-20.28,273.24,-17.87,-5.76,14682,2018-07-07 14:53:56:159
0.8045,2.5857,7.9775,35.94,-3.0,-20.28,273.24,-17.87,-5.76,14706,2018-07-07 14:53:56:183
0.8045,2.5857,7.9775,35.94,-3.0,-20.28,273.24,-17.87,-5.76,14729,2018-07-07 14:53:56:206
0.8045,2.5857,7.9775,35.94,-3.0,-20.28,273.24,-17.87,-5.76,14754,2018-07-07 14:53:56:231
0.4501,3.3232,8.5234,35.94,-3.0,-20.28,273.24,-17.87,-5.76,14777,2018-07-07 14:53:56:254
0.4501,3.3232,8.5234,35.94,-3.0,-20.28,273.24,-17.87,-5.76,14801,2018-07-07 14:53:56:278
0.4501,3.3232,8.5234,35.94,-3.0,-20.28,273.24,-17.87,-5.76,14825,2018-07-07 14:53:56:302
0.4501,3.3232,8.5234,35.94,-3.0,-20.28,273.24,-17.87,-5.76,14849,2018-07-07 14:53:56:326
0.4501,3.3232,8.5234,35.28,-4.2,-19.92,274.52,-21.27,-3.02,14873,2018-07-07 14:53:56:350
0.929,3.8786,9.7683,35.28,-4.2,-19.92,274.52,-21.27,-3.02,14898,2018-07-07 14:53:56:375
0.929,3.8786,9.7683,35.28,-4.2,-19.92,274.52,-21.27,-3.02,14921,2018-07-07 14:53:56:398
0.929,3.8786,9.7683,35.28,-4.2,-19.92,274.52,-21.27,-3.02,14945,2018-07-07 14:53:56:422
0.929,3.8786,9.7683,35.28,-4.2,-19.92,274.52,-21.27,-3.02,14969,2018-07-07 14:53:56:446
0.996,3.2561,10.3908,35.28,-4.2,-19.92,274.52,-21.27,-3.02,14993,2018-07-07 14:53:56:470
0.996,3.2561,10.3908,35.28,-4.2,-19.92,274.52,-21.27,-3.02,15017,2018-07-07 14:53:56:494
0.996,3.2561,10.3908,35.28,-4.2,-19.92,274.52,-21.27,-3.02,15042,2018-07-07 14:53:56:519
0.996,3.2561,10.3908,34.38,-5.52,-19.32,268.29,-17.32,-5.48,15066,2018-07-07 14:53:56:543
0.8715,2.3272,10.5153,34.38,-5.52,-19.32,268.29,-17.32,-5.48,15089,2018-07-07 14:53:56:566
0.8715,2.3272,10.5153,34.38,-5.52,-19.32,268.29,-17.32,-5.48,15113,2018-07-07 14:53:56:590
0.8715,2.3272,10.5153,34.38,-5.52,-19.32,268.29,-17.32,-5.48,15137,2018-07-07 14:53:56:614
0.8715,2.3272,10.5153,34.38,-5.52,-19.32,268.29,-17.32,-5.48,15161,2018-07-07 14:53:56:638
0.8715,2.3272,10.5153,34.38,-5.52,-19.32,268.29,-17.32,-5.48,15186,2018-07-07 14:53:56:663
1.8292,2.2697,10.4675,34.38,-5.52,-19.32,268.29,-17.32,-5.48,15210,2018-07-07 14:53:56:687
1.8292,2.2697,10.4675,34.38,-5.52,-19.32,268.29,-17.32,-5.48,15233,2018-07-07 14:53:56:710
1.8292,2.2697,10.4675,33.12,-6.6,-19.14,263.43,-12.06,-9.91,15257,2018-07-07 14:53:56:734
1.0056,2.6815,7.7668,33.12,-6.6,-19.14,263.43,-12.06,-9.91,15282,2018-07-07 14:53:56:759
1.0056,2.6815,7.7668,33.12,-6.6,-19.14,263.43,-12.06,-9.91,15305,2018-07-07 14:53:56:782
1.0056,2.6815,7.7668,33.12,-6.6,-19.14,263.43,-12.06,-9.91,15330,2018-07-07 14:53:56:807
1.0056,2.6815,7.7668,33.12,-6.6,-19.14,263.43,-12.06,-9.91,15353,2018-07-07 14:53:56:830
1.0056,2.6815,7.7668,33.12,-6.6,-19.14,263.43,-12.06,-9.91,15377,2018-07-07 14:53:56:854
0.7374,3.3519,9.2033,33.12,-6.6,-19.14,263.43,-12.06,-9.91,15401,2018-07-07 14:53:56:878
0.7374,3.3519,9.2033,33.12,-6.6,-19.14,263.43,-12.06,-9.91,15425,2018-07-07 14:53:56:902
0.7374,3.3519,9.2033,33.12,-6.6,-19.14,263.43,-12.06,-9.91,15449,2018-07-07 14:53:56:926
0.7374,3.3519,9.2033,31.62,-6.6,-19.2,268.3,-19.95,-4.58,15473,2018-07-07 14:53:56:950
0.9098,3.62,8.7436,31.62,-6.6,-19.2,268.3,-19.95,-4.58,15497,2018-07-07 14:53:56:974
0.9098,3.62,8.7436,31.62,-6.6,-19.2,268.3,-19.95,-4.58,15521,2018-07-07 14:53:56:998
0.9098,3.62,8.7436,31.62,-6.6,-19.2,268.3,-19.95,-4.58,15546,2018-07-07 14:53:57:023
0.9098,3.62,8.7436,31.62,-6.6,-19.2,268.3,-19.95,-4.58,15569,2018-07-07 14:53:57:046
0.8428,3.6583,10.2376,31.62,-6.6,-19.2,268.3,-19.95,-4.58,15594,2018-07-07 14:53:57:071
0.8428,3.6583,10.2376,31.62,-6.6,-19.2,268.3,-19.95,-4.58,15618,2018-07-07 14:53:57:095
0.8428,3.6583,10.2376,31.62,-6.6,-19.2,268.3,-19.95,-4.58,15641,2018-07-07 14:53:57:118
0.8428,3.6583,10.2376,30.72,-5.7,-19.38,269.73,-19.6,-4.71,15665,2018-07-07 14:53:57:142
0.8428,3.6583,10.2376,30.72,-5.7,-19.38,269.73,-19.6,-4.71,15689,2018-07-07 14:53:57:166
0.8715,3.5721,10.5153,30.72,-5.7,-19.38,269.73,-19.6,-4.71,15714,2018-07-07 14:53:57:191
0.8715,3.5721,10.5153,30.72,-5.7,-19.38,269.73,-19.6,-4.71,15737,2018-07-07 14:53:57:214
0.8715,3.5721,10.5153,30.72,-5.7,-19.38,269.73,-19.6,-4.71,15762,2018-07-07 14:53:57:239
0.8715,3.5721,10.5153,30.72,-5.7,-19.38,269.73,-19.6,-4.71,15785,2018-07-07 14:53:57:262
0.8715,3.5721,10.5153,30.72,-5.7,-19.38,269.73,-19.6,-4.71,15810,2018-07-07 14:53:57:287
-0.2203,2.2889,6.8091,30.72,-5.7,-19.38,269.73,-19.6,-4.71,15833,2018-07-07 14:53:57:310
-0.2203,2.2889,6.8091,30.0,-4.62,-19.92,273.77,-18.57,1.85,15858,2018-07-07 14:53:57:335
-0.2203,2.2889,6.8091,30.0,-4.62,-19.92,273.77,-18.57,1.85,15881,2018-07-07 14:53:57:358
-0.2203,2.2889,6.8091,30.0,-4.62,-19.92,273.77,-18.57,1.85,15906,2018-07-07 14:53:57:383
-0.2203,2.2889,6.8091,30.0,-4.62,-19.92,273.77,-18.57,1.85,15930,2018-07-07 14:53:57:407
0.6416,2.4421,10.2472,30.0,-4.62,-19.92,273.77,-18.57,1.85,15957,2018-07-07 14:53:57:434
0.6416,2.4421,10.2472,29.64,-4.38,-20.28,273.77,-18.57,1.85,15977,2018-07-07 14:53:57:454
0.6416,2.4421,10.2472,29.64,-4.38,-20.28,273.77,-18.57,1.85,16001,2018-07-07 14:53:57:478
0.6416,2.4421,10.2472,29.64,-4.38,-20.28,273.77,-18.57,1.85,16026,2018-07-07 14:53:57:503
0.6416,2.4421,10.2472,29.64,-4.38,-20.28,273.77,-18.57,1.85,16050,2018-07-07 14:53:57:527
0.8332,2.806,7.6998,29.64,-4.38,-20.28,273.77,-18.57,1.85,16073,2018-07-07 14:53:57:550
0.8332,2.806,7.6998,29.64,-4.38,-20.28,273.77,-18.57,1.85,16097,2018-07-07 14:53:57:574
0.8332,2.806,7.6998,29.64,-4.38,-20.28,273.77,-18.57,1.85,16122,2018-07-07 14:53:57:599
0.8332,2.806,7.6998,29.64,-4.38,-20.28,273.77,-18.57,1.85,16145,2018-07-07 14:53:57:622
0.8332,2.806,7.6998,29.34,-4.92,-20.34,271.87,-19.92,-6.18,16170,2018-07-07 14:53:57:647
0.2873,3.2274,8.7724,29.34,-4.92,-20.34,271.87,-19.92,-6.18,16194,2018-07-07 14:53:57:671
0.2873,3.2274,8.7724,29.34,-4.92,-20.34,271.87,-19.92,-6.18,16217,2018-07-07 14:53:57:694
0.2873,3.2274,8.7724,29.34,-4.92,-20.34,271.87,-19.92,-6.18,16242,2018-07-07 14:53:57:719
0.2873,3.2274,8.7724,29.34,-4.92,-20.34,271.87,-19.92,-6.18,16265,2018-07-07 14:53:57:742
0.9577,3.6392,10.1131,29.34,-4.92,-20.34,271.87,-19.92,-6.18,16289,2018-07-07 14:53:57:766
0.9577,3.6392,10.1131,29.34,-4.92,-20.34,271.87,-19.92,-6.18,16314,2018-07-07 14:53:57:791
0.9577,3.6392,10.1131,29.34,-4.92,-20.34,271.87,-19.92,-6.18,16337,2018-07-07 14:53:57:814
0.9577,3.6392,10.1131,29.1,-6.24,-20.1,270.27,-19.71,-5.41,16361,2018-07-07 14:53:57:838
0.9577,3.6392,10.1131,29.1,-6.24,-20.1,270.27,-19.71,-5.41,16386,2018-07-07 14:53:57:863
2.0494,3.3806,10.726,29.1,-6.24,-20.1,270.27,-19.71,-5.41,16410,2018-07-07 14:53:57:887
2.0494,3.3806,10.726,29.1,-6.24,-20.1,270.27,-19.71,-5.41,16433,2018-07-07 14:53:57:910
2.0494,3.3806,10.726,29.1,-6.24,-20.1,270.27,-19.71,-5.41,16457,2018-07-07 14:53:57:934
2.0494,3.3806,10.726,29.1,-6.24,-20.1,270.27,-19.71,-5.41,16481,2018-07-07 14:53:57:958
2.0494,3.3806,10.726,29.1,-6.24,-20.1,270.27,-19.71,-5.41,16505,2018-07-07 14:53:57:982
1.4557,2.2314,8.418,29.1,-6.24,-20.1,270.27,-19.71,-5.41,16530,2018-07-07 14:53:58:007
1.4557,2.2314,8.418,28.2,-7.5,-20.34,264.48,-14.64,-9.81,16553,2018-07-07 14:53:58:030
1.4557,2.2314,8.418,28.2,-7.5,-20.34,264.48,-14.64,-9.81,16577,2018-07-07 14:53:58:054
1.4557,2.2314,8.418,28.2,-7.5,-20.34,264.48,-14.64,-9.81,16601,2018-07-07 14:53:58:078
1.4557,2.2314,8.418,28.2,-7.5,-20.34,264.48,-14.64,-9.81,16625,2018-07-07 14:53:58:102
1.245,2.49,9.3757,28.2,-7.5,-20.34,264.48,-14.64,-9.81,16649,2018-07-07 14:53:58:126
1.245,2.49,9.3757,28.2,-7.5,-20.34,264.48,-14.64,-9.81,16673,2018-07-07 14:53:58:150
1.245,2.49,9.3757,28.2,-7.5,-20.34,264.48,-14.64,-9.81,16697,2018-07-07 14:53:58:174
1.245,2.49,9.3757,28.2,-7.5,-20.34,264.48,-14.64,-9.81,16722,2018-07-07 14:53:58:199
1.245,2.49,9.3757,28.2,-7.5,-20.34,264.48,-14.64,-9.81,16745,2018-07-07 14:53:58:222
0.6321,3.3519,7.9392,27.84,-8.16,-19.8,263.19,-14.75,-7.56,16770,2018-07-07 14:53:58:247
0.6321,3.3519,7.9392,27.84,-8.16,-19.8,263.19,-14.75,-7.56,16793,2018-07-07 14:53:58:270
0.6321,3.3519,7.9392,27.84,-8.16,-19.8,263.19,-14.75,-7.56,16851,2018-07-07 14:53:58:328
0.6321,3.3519,7.9392,27.84,-8.16,-19.8,263.19,-14.75,-7.56,16852,2018-07-07 14:53:58:329
0.6321,3.3519,7.9392,27.84,-8.16,-19.8,263.19,-14.75,-7.56,16865,2018-07-07 14:53:58:342
0.814,3.7828,8.8107,27.84,-8.16,-19.8,263.19,-14.75,-7.56,16890,2018-07-07 14:53:58:367
0.814,3.7828,8.8107,27.84,-8.16,-19.8,263.19,-14.75,-7.56,16913,2018-07-07 14:53:58:390
0.814,3.7828,8.8107,27.84,-8.16,-19.8,263.19,-14.75,-7.56,16938,2018-07-07 14:53:58:415
0.814,3.7828,8.8107,27.48,-7.02,-19.32,270.05,-23.15,-5.28,16961,2018-07-07 14:53:58:438
0.814,3.7828,8.8107,27.48,-7.02,-19.32,270.05,-23.15,-5.28,16986,2018-07-07 14:53:58:463
1.2737,4.3383,9.7492,27.48,-7.02,-19.32,270.05,-23.15,-5.28,17010,2018-07-07 14:53:58:487
1.2737,4.3383,9.7492,27.48,-7.02,-19.32,270.05,-23.15,-5.28,17033,2018-07-07 14:53:58:510
1.2737,4.3383,9.7492,27.48,-7.02,-19.32,270.05,-23.15,-5.28,17057,2018-07-07 14:53:58:534
1.2737,4.3383,9.7492,27.48,-7.02,-19.32,270.05,-23.15,-5.28,17081,2018-07-07 14:53:58:558
1.2737,4.3383,9.7492,27.48,-7.02,-19.32,270.05,-23.15,-5.28,17105,2018-07-07 14:53:58:582
0.9002,4.051,9.9311,27.48,-7.02,-19.32,270.05,-23.15,-5.28,17130,2018-07-07 14:53:58:607
0.9002,4.051,9.9311,27.06,-5.88,-19.02,271.29,-22.11,-5.18,17154,2018-07-07 14:53:58:631
0.9002,4.051,9.9311,27.06,-5.88,-19.02,271.29,-22.11,-5.18,17178,2018-07-07 14:53:58:655
0.9002,4.051,9.9311,27.06,-5.88,-19.02,271.29,-22.11,-5.18,17201,2018-07-07 14:53:58:678
0.9002,4.051,9.9311,27.06,-5.88,-19.02,271.29,-22.11,-5.18,17226,2018-07-07 14:53:58:703
-0.3543,2.7964,7.9296,27.06,-5.88,-19.02,271.29,-22.11,-5.18,17250,2018-07-07 14:53:58:727
-0.3543,2.7964,7.9296,27.3,-4.98,-19.02,274.36,-19.41,2.56,17273,2018-07-07 14:53:58:750
-0.3543,2.7964,7.9296,27.3,-4.98,-19.02,274.36,-19.41,2.56,17298,2018-07-07 14:53:58:775
-0.3543,2.7964,7.9296,27.3,-4.98,-19.02,274.36,-19.41,2.56,17322,2018-07-07 14:53:58:799
-0.3543,2.7964,7.9296,27.3,-4.98,-19.02,274.36,-19.41,2.56,17346,2018-07-07 14:53:58:823
0.1915,2.9018,9.7683,27.3,-4.98,-19.02,274.36,-19.41,2.56,17369,2018-07-07 14:53:58:846
0.1915,2.9018,9.7683,27.3,-4.98,-19.02,274.36,-19.41,2.56,17394,2018-07-07 14:53:58:871
0.1915,2.9018,9.7683,27.3,-4.98,-19.02,274.36,-19.41,2.56,17417,2018-07-07 14:53:58:894
0.1915,2.9018,9.7683,27.3,-4.98,-19.02,274.36,-19.41,2.56,17441,2018-07-07 14:53:58:918
0.1915,2.9018,9.7683,27.24,-4.08,-18.78,272.98,-16.54,-1.12,17466,2018-07-07 14:53:58:943
0.2682,3.371,7.6519,27.24,-4.08,-18.78,272.98,-16.54,-1.12,17489,2018-07-07 14:53:58:966
0.2682,3.371,7.6519,27.24,-4.08,-18.78,272.98,-16.54,-1.12,17514,2018-07-07 14:53:58:991
0.2682,3.371,7.6519,27.24,-4.08,-18.78,272.98,-16.54,-1.12,17537,2018-07-07 14:53:59:014
0.2682,3.371,7.6519,27.24,-4.08,-18.78,272.98,-16.54,-1.12,17562,2018-07-07 14:53:59:039
0.2682,3.371,7.6519,27.24,-4.08,-18.78,272.98,-16.54,-1.12,17585,2018-07-07 14:53:59:062
0.7087,3.8499,8.4946,27.24,-4.08,-18.78,272.98,-16.54,-1.12,17609,2018-07-07 14:53:59:086
0.7087,3.8499,8.4946,27.24,-4.08,-18.78,272.98,-16.54,-1.12,17634,2018-07-07 14:53:59:111
0.7087,3.8499,8.4946,27.24,-4.08,-18.54,276.46,-24.31,-4.77,17658,2018-07-07 14:53:59:135
0.7087,3.8499,8.4946,27.24,-4.08,-18.54,276.46,-24.31,-4.77,17681,2018-07-07 14:53:59:158
0.8236,3.9552,10.1035,27.24,-4.08,-18.54,276.46,-24.31,-4.77,17706,2018-07-07 14:53:59:183
0.8236,3.9552,10.1035,27.24,-4.08,-18.54,276.46,-24.31,-4.77,17730,2018-07-07 14:53:59:207
0.8236,3.9552,10.1035,27.24,-4.08,-18.54,276.46,-24.31,-4.77,17754,2018-07-07 14:53:59:231
0.8236,3.9552,10.1035,27.24,-4.08,-18.54,276.46,-24.31,-4.77,17778,2018-07-07 14:53:59:255
0.8236,3.9552,10.1035,27.24,-4.08,-18.54,276.46,-24.31,-4.77,17802,2018-07-07 14:53:59:279
1.743,3.0933,11.4251,27.24,-4.08,-18.54,276.46,-24.31,-4.77,17826,2018-07-07 14:53:59:303
1.743,3.0933,11.4251,27.24,-4.08,-18.54,276.46,-24.31,-4.77,17849,2018-07-07 14:53:59:326
1.743,3.0933,11.4251,26.16,-4.8,-19.32,268.02,-14.98,-8.67,17873,2018-07-07 14:53:59:350
1.743,3.0933,11.4251,26.16,-4.8,-19.32,268.02,-14.98,-8.67,17897,2018-07-07 14:53:59:374
1.743,3.0933,11.4251,26.16,-4.8,-19.32,268.02,-14.98,-8.67,17922,2018-07-07 14:53:59:399
1.3886,2.1931,8.8969,26.16,-4.8,-19.32,268.02,-14.98,-8.67,17946,2018-07-07 14:53:59:423
1.3886,2.1931,8.8969,25.98,-4.62,-19.56,268.02,-14.98,-8.67,17969,2018-07-07 14:53:59:446
1.3886,2.1931,8.8969,25.98,-4.62,-19.56,268.02,-14.98,-8.67,17993,2018-07-07 14:53:59:470
1.3886,2.1931,8.8969,25.98,-4.62,-19.56,268.02,-14.98,-8.67,18017,2018-07-07 14:53:59:494
1.3886,2.1931,8.8969,25.98,-4.62,-19.56,268.02,-14.98,-8.67,18042,2018-07-07 14:53:59:519
0.8715,2.7485,7.6806,25.98,-4.62,-19.56,268.02,-14.98,-8.67,18065,2018-07-07 14:53:59:542
0.8715,2.7485,7.6806,25.98,-4.62,-19.56,268.02,-14.98,-8.67,18089,2018-07-07 14:53:59:566
0.8715,2.7485,7.6806,25.98,-4.62,-19.56,268.02,-14.98,-8.67,18114,2018-07-07 14:53:59:591
0.8715,2.7485,7.6806,25.98,-4.62,-19.56,268.02,-14.98,-8.67,18138,2018-07-07 14:53:59:615
0.8715,2.7485,7.6806,25.44,-4.74,-19.74,272.12,-19.57,-6.47,18162,2018-07-07 14:53:59:639
0.9673,3.4189,9.3278,25.44,-4.74,-19.74,272.12,-19.57,-6.47,18185,2018-07-07 14:53:59:662
0.9673,3.4189,9.3278,25.44,-4.74,-19.74,272.12,-19.57,-6.47,18210,2018-07-07 14:53:59:687
0.9673,3.4189,9.3278,25.44,-4.74,-19.74,272.12,-19.57,-6.47,18233,2018-07-07 14:53:59:710
0.9673,3.4189,9.3278,25.44,-4.74,-19.74,272.12,-19.57,-6.47,18258,2018-07-07 14:53:59:735
0.9673,3.4189,9.3278,25.44,-4.74,-19.74,272.12,-19.57,-6.47,18281,2018-07-07 14:53:59:758
1.0439,4.0318,9.4523,25.44,-4.74,-19.74,272.12,-19.57,-6.47,18306,2018-07-07 14:53:59:783
1.0439,4.0318,9.4523,25.44,-4.74,-19.74,272.12,-19.57,-6.47,18330,2018-07-07 14:53:59:807
1.0439,4.0318,9.4523,24.72,-3.48,-20.28,278.26,-22.98,-6.3,18353,2018-07-07 14:53:59:830
1.0439,4.0318,9.4523,24.72,-3.48,-20.28,278.26,-22.98,-6.3,18378,2018-07-07 14:53:59:855
1.0439,4.0318,9.4523,24.72,-3.48,-20.28,278.26,-22.98,-6.3,18402,2018-07-07 14:53:59:879
0.9673,4.0127,10.5153,24.72,-3.48,-20.28,278.26,-22.98,-6.3,18425,2018-07-07 14:53:59:902
0.9673,4.0127,10.5153,24.72,-3.48,-20.28,278.26,-22.98,-6.3,18449,2018-07-07 14:53:59:926
0.9673,4.0127,10.5153,24.72,-3.48,-20.28,278.26,-22.98,-6.3,18474,2018-07-07 14:53:59:951
0.9673,4.0127,10.5153,24.72,-3.48,-20.28,278.26,-22.98,-6.3,18498,2018-07-07 14:53:59:975
0.9673,4.0127,10.5153,24.72,-3.48,-20.28,278.26,-22.98,-6.3,18521,2018-07-07 14:53:59:998
-0.4693,2.1452,7.9966,24.72,-3.48,-20.28,278.26,-22.98,-6.3,18545,2018-07-07 14:54:00:022
-0.4693,2.1452,7.9966,24.36,-2.1,-20.28,278.97,-14.99,3.36,18569,2018-07-07 14:54:00:046
-0.4693,2.1452,7.9966,24.36,-2.1,-20.28,278.97,-14.99,3.36,18593,2018-07-07 14:54:00:070
-0.4693,2.1452,7.9966,24.36,-2.1,-20.28,278.97,-14.99,3.36,18618,2018-07-07 14:54:00:095
-0.4693,2.1452,7.9966,24.36,-2.1,-20.28,278.97,-14.99,3.36,18641,2018-07-07 14:54:00:118
0.4788,2.2697,10.0078,24.36,-2.1,-20.28,278.97,-14.99,3.36,18665,2018-07-07 14:54:00:142
0.4788,2.2697,10.0078,24.36,-2.1,-20.28,278.97,-14.99,3.36,18690,2018-07-07 14:54:00:167
0.4788,2.2697,10.0078,24.36,-2.1,-20.28,278.97,-14.99,3.36,18714,2018-07-07 14:54:00:191
0.4788,2.2697,10.0078,24.36,-2.1,-20.28,278.97,-14.99,3.36,18737,2018-07-07 14:54:00:214
0.4788,2.2697,10.0078,25.14,-1.02,-19.86,276.98,-12.76,-2.74,18762,2018-07-07 14:54:00:239
0.5267,2.9784,7.5657,25.14,-1.02,-19.86,276.98,-12.76,-2.74,18785,2018-07-07 14:54:00:262
0.5267,2.9784,7.5657,25.14,-1.02,-19.86,276.98,-12.76,-2.74,18809,2018-07-07 14:54:00:286
0.5267,2.9784,7.5657,25.14,-1.02,-19.86,276.98,-12.76,-2.74,18833,2018-07-07 14:54:00:310
0.5267,2.9784,7.5657,25.14,-1.02,-19.86,276.98,-12.76,-2.74,18857,2018-07-07 14:54:00:334
0.5267,2.9784,7.5657,25.14,-1.02,-19.86,276.98,-12.76,-2.74,18881,2018-07-07 14:54:00:358
0.2682,3.5721,9.1554,25.14,-1.02,-19.86,276.98,-12.76,-2.74,18905,2018-07-07 14:54:00:382
0.2682,3.5721,9.1554,25.14,-1.02,-19.86,276.98,-12.76,-2.74,18929,2018-07-07 14:54:00:406
0.2682,3.5721,9.1554,25.14,-1.02,-19.5,276.98,-12.76,-1.68,18953,2018-07-07 14:54:00:430
0.2682,3.5721,9.1554,25.32,-0.96,-19.5,282.58,-21.31,-1.68,18977,2018-07-07 14:54:00:454
0.8619,3.8211,10.161,25.32,-0.96,-19.5,282.58,-21.31,-1.68,19002,2018-07-07 14:54:00:479
0.8619,3.8211,10.161,25.32,-0.96,-19.5,282.58,-21.31,-1.68,19025,2018-07-07 14:54:00:502
0.8619,3.8211,10.161,25.32,-0.96,-19.5,282.58,-21.31,-1.68,19050,2018-07-07 14:54:00:527
0.8619,3.8211,10.161,25.32,-0.96,-19.5,282.58,-21.31,-1.68,19074,2018-07-07 14:54:00:551
0.8619,3.8211,10.161,25.32,-0.96,-19.5,282.58,-21.31,-1.68,19097,2018-07-07 14:54:00:574
1.1013,3.371,9.8641,25.32,-0.96,-19.5,282.58,-21.31,-1.68,19121,2018-07-07 14:54:00:598
1.1013,3.371,9.8641,25.32,-0.96,-19.5,282.58,-21.31,-1.68,19146,2018-07-07 14:54:00:623
1.1013,3.371,9.8641,25.44,-2.22,-18.84,276.95,-18.76,-6.37,19169,2018-07-07 14:54:00:646
1.1013,3.371,9.8641,25.44,-2.22,-18.84,276.95,-18.76,-6.37,19194,2018-07-07 14:54:00:671
-0.0096,2.6624,8.3318,25.44,-2.22,-18.84,276.95,-18.76,-6.37,19246,2018-07-07 14:54:00:723
-0.0096,2.6624,8.3318,25.44,-2.22,-18.84,276.95,-18.76,-6.37,19247,2018-07-07 14:54:00:724
-0.0096,2.6624,8.3318,25.44,-2.22,-18.84,276.95,-18.76,-6.37,19266,2018-07-07 14:54:00:743
-0.0096,2.6624,8.3318,25.44,-2.22,-18.84,276.95,-18.76,-6.37,19290,2018-07-07 14:54:00:767
-0.0096,2.6624,8.3318,25.44,-2.22,-18.84,276.95,-18.76,-6.37,19314,2018-07-07 14:54:00:791
-0.0096,2.6624,8.3318,25.44,-2.22,-18.84,276.95,-18.76,-6.37,19338,2018-07-07 14:54:00:815
0.9768,2.8635,8.667,26.52,-2.94,-18.18,273.54,-18.18,-6.43,19362,2018-07-07 14:54:00:839
0.9768,2.8635,8.667,26.52,-2.94,-18.18,273.54,-18.18,-6.43,19385,2018-07-07 14:54:00:862
0.9768,2.8635,8.667,26.52,-2.94,-18.18,273.54,-18.18,-6.43,19409,2018-07-07 14:54:00:886
0.9768,2.8635,8.667,26.52,-2.94,-18.18,273.54,-18.18,-6.43,19433,2018-07-07 14:54:00:910
0.9768,2.8635,8.667,26.52,-2.94,-18.18,273.54,-18.18,-6.43,19458,2018-07-07 14:54:00:935
0.5459,3.5243,8.3318,26.52,-2.94,-18.18,273.54,-18.18,-6.43,19481,2018-07-07 14:54:00:958
0.5459,3.5243,8.3318,26.52,-2.94,-18.18,273.54,-18.18,-6.43,19505,2018-07-07 14:54:00:982
0.5459,3.5243,8.3318,26.52,-2.94,-18.18,273.54,-18.18,-6.43,19530,2018-07-07 14:54:01:007
0.5459,3.5243,8.3318,27.06,-2.76,-17.7,277.16,-22.88,-3.75,19554,2018-07-07 14:54:01:031
0.5459,3.5243,8.3318,27.06,-2.76,-17.7,277.16,-22.88,-3.75,19577,2018-07-07 14:54:01:054
0.9098,4.0127,8.8107,27.06,-2.76,-17.7,277.16,-22.88,-3.75,19601,2018-07-07 14:54:01:078
0.9098,4.0127,8.8107,27.06,-2.76,-17.7,277.16,-22.88,-3.75,19625,2018-07-07 14:54:01:102
0.9098,4.0127,8.8107,27.06,-2.76,-17.7,277.16,-22.88,-3.75,19650,2018-07-07 14:54:01:127
0.9098,4.0127,8.8107,27.06,-2.76,-17.7,277.16,-22.88,-3.75,19673,2018-07-07 14:54:01:150
0.9098,4.0127,8.8107,27.06,-2.76,-17.7,277.16,-22.88,-3.75,19697,2018-07-07 14:54:01:174
0.7757,4.1372,11.2911,27.06,-2.76,-17.7,277.16,-22.88,-3.75,19723,2018-07-07 14:54:01:200
0.7757,4.1372,11.2911,27.06,-2.76,-17.7,277.16,-22.88,-3.75,19745,2018-07-07 14:54:01:222
0.7757,4.1372,11.2911,28.38,-2.1,-16.92,276.44,-20.08,-3.93,19769,2018-07-07 14:54:01:246
0.7757,4.1372,11.2911,28.38,-2.1,-16.92,276.44,-20.08,-3.93,19793,2018-07-07 14:54:01:270
0.7757,4.1372,11.2911,28.38,-2.1,-16.92,276.44,-20.08,-3.93,19817,2018-07-07 14:54:01:294
0.3926,3.2944,10.7069,28.38,-2.1,-16.92,276.44,-20.08,-3.93,19841,2018-07-07 14:54:01:318
0.3926,3.2944,10.7069,29.1,-1.5,-16.5,276.44,-20.08,-3.93,19865,2018-07-07 14:54:01:342
0.3926,3.2944,10.7069,29.1,-1.5,-16.5,276.44,-20.08,-3.93,19889,2018-07-07 14:54:01:366
0.3926,3.2944,10.7069,29.1,-1.5,-16.5,276.44,-20.08,-3.93,19913,2018-07-07 14:54:01:390
0.3926,3.2944,10.7069,29.1,-1.5,-16.5,276.44,-20.08,-3.93,19937,2018-07-07 14:54:01:414
-0.3831,2.3846,8.7053,29.1,-1.5,-16.5,276.44,-20.08,-3.93,19962,2018-07-07 14:54:01:439
-0.3831,2.3846,8.7053,29.1,-1.5,-16.5,276.44,-20.08,-3.93,19985,2018-07-07 14:54:01:462
-0.3831,2.3846,8.7053,29.1,-1.5,-16.5,276.44,-20.08,-3.93,20009,2018-07-07 14:54:01:486
-0.3831,2.3846,8.7053,29.1,-1.5,-16.5,276.44,-20.08,-3.93,20033,2018-07-07 14:54:01:510
-0.3831,2.3846,8.7053,29.1,-0.6,-16.68,277.78,-15.31,2.52,20057,2018-07-07 14:54:01:534
0.6895,2.8635,7.9392,29.1,-0.6,-16.68,277.78,-15.31,2.52,20081,2018-07-07 14:54:01:558
0.6895,2.8635,7.9392,29.1,-0.6,-16.68,277.78,-15.31,2.52,20106,2018-07-07 14:54:01:583
0.6895,2.8635,7.9392,29.1,-0.6,-16.68,277.78,-15.31,2.52,20130,2018-07-07 14:54:01:607
0.6895,2.8635,7.9392,29.1,-0.6,-16.68,277.78,-15.31,2.52,20153,2018-07-07 14:54:01:630
0.6895,2.8635,7.9392,29.1,-0.6,-16.68,277.78,-15.31,2.52,20178,2018-07-07 14:54:01:655
0.7183,3.6105,8.4946,29.1,-0.6,-16.68,277.78,-15.31,2.52,20201,2018-07-07 14:54:01:678
0.7183,3.6105,8.4946,29.1,-0.6,-16.68,277.78,-15.31,2.52,20225,2018-07-07 14:54:01:702
0.7183,3.6105,8.4946,29.1,-0.6,-16.68,277.78,-15.31,2.52,20249,2018-07-07 14:54:01:726
0.7183,3.6105,8.4946,28.32,-2.1,-16.44,276.74,-22.95,-4.83,20273,2018-07-07 14:54:01:750
0.5459,3.7062,8.4755,28.32,-2.1,-16.44,276.74,-22.95,-4.83,20297,2018-07-07 14:54:01:774
0.5459,3.7062,8.4755,28.32,-2.1,-16.44,276.74,-22.95,-4.83,20322,2018-07-07 14:54:01:799
0.5459,3.7062,8.4755,28.32,-2.1,-16.44,276.74,-22.95,-4.83,20346,2018-07-07 14:54:01:823
0.5459,3.7062,8.4755,28.32,-2.1,-16.44,276.74,-22.95,-4.83,20369,2018-07-07 14:54:01:846
0.5459,3.7062,8.4755,28.32,-2.1,-16.44,276.74,-22.95,-4.83,20394,2018-07-07 14:54:01:871
1.1013,3.2753,9.7971,28.32,-2.1,-16.44,276.74,-22.95,-4.83,20418,2018-07-07 14:54:01:895
1.1013,3.2753,9.7971,28.32,-2.1,-16.44,276.74,-22.95,-4.83,20442,2018-07-07 14:54:01:919
1.1013,3.2753,9.7971,26.88,-4.38,-16.62,271.15,-18.38,-6.41,20465,2018-07-07 14:54:01:942
1.1013,3.2753,9.7971,26.88,-4.38,-16.62,271.15,-18.38,-6.41,20489,2018-07-07 14:54:01:966
1.1013,3.2753,9.7971,26.88,-4.38,-16.62,271.15,-18.38,-6.41,20513,2018-07-07 14:54:01:990
1.0726,2.308,9.7779,26.88,-4.38,-16.62,271.15,-18.38,-6.41,20537,2018-07-07 14:54:02:014
1.0726,2.308,9.7779,26.88,-4.38,-16.62,271.15,-18.38,-6.41,20562,2018-07-07 14:54:02:039
1.0726,2.308,9.7779,26.88,-4.38,-16.62,271.15,-18.38,-6.41,20585,2018-07-07 14:54:02:062
1.0726,2.308,9.7779,26.88,-4.38,-16.62,271.15,-18.38,-6.41,20610,2018-07-07 14:54:02:087
1.0726,2.308,9.7779,26.88,-4.38,-16.62,271.15,-18.38,-6.41,20634,2018-07-07 14:54:02:111
1.6472,2.3463,8.2935,25.8,-6.24,-17.22,264.69,-15.51,-11.23,20657,2018-07-07 14:54:02:134
1.6472,2.3463,8.2935,25.8,-6.24,-17.22,264.69,-15.51,-11.23,20681,2018-07-07 14:54:02:158
1.6472,2.3463,8.2935,25.8,-6.24,-17.22,264.69,-15.51,-11.23,20706,2018-07-07 14:54:02:183
1.6472,2.3463,8.2935,25.8,-6.24,-17.22,264.69,-15.51,-11.23,20729,2018-07-07 14:54:02:206
1.6472,2.3463,8.2935,25.8,-6.24,-17.22,264.69,-15.51,-11.23,20754,2018-07-07 14:54:02:231
0.6704,2.8443,8.3127,25.8,-6.24,-17.22,264.69,-15.51,-11.23,20778,2018-07-07 14:54:02:255
0.6704,2.8443,8.3127,25.8,-6.24,-17.22,264.69,-15.51,-11.23,20801,2018-07-07 14:54:02:278
0.6704,2.8443,8.3127,25.8,-6.24,-17.22,264.69,-15.51,-11.23,20825,2018-07-07 14:54:02:302
0.6704,2.8443,8.3127,25.8,-6.24,-17.22,264.69,-15.51,-11.23,20849,2018-07-07 14:54:02:326
0.6704,2.8443,8.3127,25.62,-7.32,-17.04,266.16,-18.83,-4.61,20874,2018-07-07 14:54:02:351
1.2641,3.3806,9.1267,25.62,-7.32,-17.04,266.16,-18.83,-4.61,20897,2018-07-07 14:54:02:374
1.2641,3.3806,9.1267,25.62,-7.32,-17.04,266.16,-18.83,-4.61,20922,2018-07-07 14:54:02:399
1.2641,3.3806,9.1267,25.62,-7.32,-17.04,266.16,-18.83,-4.61,20945,2018-07-07 14:54:02:422
1.2641,3.3806,9.1267,25.62,-7.32,-17.04,266.16,-18.83,-4.61,20969,2018-07-07 14:54:02:446
1.2641,3.3806,9.1267,25.62,-7.32,-17.04,266.16,-18.83,-4.61,20993,2018-07-07 14:54:02:470
0.8332,3.5243,10.908,25.62,-7.32,-17.04,266.16,-18.83,-4.61,21017,2018-07-07 14:54:02:494
0.8332,3.5243,10.908,25.62,-7.32,-17.04,266.16,-18.83,-4.61,21041,2018-07-07 14:54:02:518
0.8332,3.5243,10.908,25.26,-7.02,-17.22,265.53,-17.86,-4.37,21066,2018-07-07 14:54:02:543
0.8332,3.5243,10.908,25.26,-7.02,-17.22,265.53,-17.86,-4.37,21089,2018-07-07 14:54:02:566
0.8332,3.5243,10.908,25.26,-7.02,-17.22,265.53,-17.86,-4.37,21113,2018-07-07 14:54:02:590
0.7374,2.6624,12.8617,25.26,-7.02,-17.22,265.53,-17.86,-4.37,21138,2018-07-07 14:54:02:615
0.7374,2.6624,12.8617,25.26,-7.02,-17.22,265.53,-17.86,-4.37,21162,2018-07-07 14:54:02:639
0.7374,2.6624,12.8617,25.26,-7.02,-17.22,265.53,-17.86,-4.37,21186,2018-07-07 14:54:02:663
0.7374,2.6624,12.8617,25.26,-7.02,-17.22,265.53,-17.86,-4.37,21210,2018-07-07 14:54:02:687
0.7374,2.6624,12.8617,25.26,-7.02,-17.22,265.53,-17.86,-4.37,21233,2018-07-07 14:54:02:710
0.2777,1.9249,9.8067,25.2,-6.0,-17.22,263.83,-11.1,-1.62,21258,2018-07-07 14:54:02:735
0.2777,1.9249,9.8067,25.2,-6.0,-17.22,263.83,-11.1,-1.62,21282,2018-07-07 14:54:02:759
0.2777,1.9249,9.8067,25.2,-6.0,-17.22,263.83,-11.1,-1.62,21306,2018-07-07 14:54:02:783
0.2777,1.9249,9.8067,25.2,-6.0,-17.22,263.83,-11.1,-1.62,21330,2018-07-07 14:54:02:807
0.2777,1.9249,9.8067,25.2,-6.0,-17.22,263.83,-11.1,-1.62,21353,2018-07-07 14:54:02:830
0.0096,2.4612,7.9296,25.2,-6.0,-17.22,263.83,-11.1,-1.62,21377,2018-07-07 14:54:02:854
0.0096,2.4612,7.9296,25.2,-6.0,-17.22,263.83,-11.1,-1.62,21401,2018-07-07 14:54:02:878
0.0096,2.4612,7.9296,25.2,-6.0,-17.22,263.83,-11.1,-1.62,21425,2018-07-07 14:54:02:902
0.0096,2.4612,7.9296,25.2,-6.0,-17.22,263.83,-11.1,-1.62,21450,2018-07-07 14:54:02:927
0.0096,2.4612,7.9296,25.02,-5.82,-16.92,268.4,-17.24,-0.07,21474,2018-07-07 14:54:02:951
0.6512,3.2465,9.3087,25.02,-5.82,-16.92,268.4,-17.24,-0.07,21498,2018-07-07 14:54:02:975
0.6512,3.2465,9.3087,25.02,-5.82,-16.92,268.4,-17.24,-0.07,21521,2018-07-07 14:54:02:998
0.6512,3.2465,9.3087,25.02,-5.82,-16.92,268.4,-17.24,-0.07,21545,2018-07-07 14:54:03:022
0.6512,3.2465,9.3087,25.02,-5.82,-16.92,268.4,-17.24,-0.07,21569,2018-07-07 14:54:03:046
0.8619,3.5626,8.7532,25.02,-5.82,-16.92,268.4,-17.24,-0.07,21597,2018-07-07 14:54:03:074
0.8619,3.5626,8.7532,25.2,-6.54,-16.32,266.91,-22.05,-5.62,21660,2018-07-07 14:54:03:137
0.8619,3.5626,8.7532,25.2,-6.54,-16.32,266.91,-22.05,-5.62,21661,2018-07-07 14:54:03:138
0.8619,3.5626,8.7532,25.2,-6.54,-16.32,266.91,-22.05,-5.62,21665,2018-07-07 14:54:03:142
0.8619,3.5626,8.7532,25.2,-6.54,-16.32,266.91,-22.05,-5.62,21690,2018-07-07 14:54:03:167
0.7278,3.2657,10.8793,25.2,-6.54,-16.32,266.91,-22.05,-5.62,21714,2018-07-07 14:54:03:191
0.7278,3.2657,10.8793,25.2,-6.54,-16.32,266.91,-22.05,-5.62,21737,2018-07-07 14:54:03:214
0.7278,3.2657,10.8793,25.2,-6.54,-16.32,266.91,-22.05,-5.62,21762,2018-07-07 14:54:03:239
0.7278,3.2657,10.8793,25.2,-6.54,-16.32,266.91,-22.05,-5.62,21786,2018-07-07 14:54:03:263
0.7278,3.2657,10.8793,25.2,-6.54,-16.32,266.91,-22.05,-5.62,21810,2018-07-07 14:54:03:287
1.0534,2.1261,9.2703,25.2,-6.54,-16.32,266.91,-22.05,-5.62,21833,2018-07-07 14:54:03:310
1.0534,2.1261,9.2703,26.04,-7.02,-15.9,261.88,-12.84,-6.48,21857,2018-07-07 14:54:03:334
1.0534,2.1261,9.2703,26.04,-7.02,-15.9,261.88,-12.84,-6.48,21882,2018-07-07 14:54:03:359
1.0534,2.1261,9.2703,26.04,-7.02,-15.9,261.88,-12.84,-6.48,21906,2018-07-07 14:54:03:383
1.0534,2.1261,9.2703,26.04,-7.02,-15.9,261.88,-12.84,-6.48,21930,2018-07-07 14:54:03:407
1.992,2.1835,9.9599,26.04,-7.02,-15.9,261.88,-12.84,-6.48,21953,2018-07-07 14:54:03:430
1.992,2.1835,9.9599,26.04,-7.02,-15.9,261.88,-12.84,-6.48,21977,2018-07-07 14:54:03:454
1.992,2.1835,9.9599,26.04,-7.02,-15.9,261.88,-12.84,-6.48,22001,2018-07-07 14:54:03:478
1.992,2.1835,9.9599,26.04,-7.02,-15.9,261.88,-12.84,-6.48,22025,2018-07-07 14:54:03:502
1.992,2.1835,9.9599,26.04,-7.02,-15.9,261.88,-12.84,-6.48,22049,2018-07-07 14:54:03:526
0.6991,2.6528,7.7955,26.16,-7.38,-15.9,260.84,-12.13,-11.31,22074,2018-07-07 14:54:03:551
0.6991,2.6528,7.7955,26.16,-7.38,-15.9,260.84,-12.13,-11.31,22097,2018-07-07 14:54:03:574
0.6991,2.6528,7.7955,26.16,-7.38,-15.9,260.84,-12.13,-11.31,22121,2018-07-07 14:54:03:598
0.6991,2.6528,7.7955,26.16,-7.38,-15.9,260.84,-12.13,-11.31,22145,2018-07-07 14:54:03:622
0.6991,2.6528,7.7955,26.16,-7.38,-15.9,260.84,-12.13,-11.31,22169,2018-07-07 14:54:03:646
1.0534,3.2465,8.9064,26.16,-7.38,-15.9,260.84,-12.13,-11.31,22194,2018-07-07 14:54:03:671
1.0534,3.2465,8.9064,26.16,-7.38,-15.9,260.84,-12.13,-11.31,22217,2018-07-07 14:54:03:694
1.0534,3.2465,8.9064,26.16,-7.38,-15.9,260.84,-12.13,-11.31,22241,2018-07-07 14:54:03:718
1.0534,3.2465,8.9064,26.16,-6.66,-15.54,265.43,-19.9,-6.75,22265,2018-07-07 14:54:03:742
1.0534,3.2465,8.9064,26.16,-6.66,-15.54,265.43,-19.9,-6.75,22289,2018-07-07 14:54:03:766
1.0247,3.8978,9.8258,26.16,-6.66,-15.54,265.43,-19.9,-6.75,22313,2018-07-07 14:54:03:790
1.0247,3.8978,9.8258,26.16,-6.66,-15.54,265.43,-19.9,-6.75,22337,2018-07-07 14:54:03:814
1.0247,3.8978,9.8258,26.16,-6.66,-15.54,265.43,-19.9,-6.75,22361,2018-07-07 14:54:03:838
1.0247,3.8978,9.8258,26.16,-6.66,-15.54,265.43,-19.9,-6.75,22385,2018-07-07 14:54:03:862
1.0247,3.8978,9.8258,26.16,-6.66,-15.54,265.43,-19.9,-6.75,22409,2018-07-07 14:54:03:886
0.9002,3.6296,10.4483,26.16,-6.66,-15.54,265.43,-19.9,-6.75,22434,2018-07-07 14:54:03:911
0.9002,3.6296,10.4483,25.68,-4.98,-15.9,269.49,-19.09,-4.92,22458,2018-07-07 14:54:03:935
0.9002,3.6296,10.4483,25.68,-4.98,-15.9,269.49,-19.09,-4.92,22481,2018-07-07 14:54:03:958
0.9002,3.6296,10.4483,25.68,-4.98,-15.9,269.49,-19.09,-4.92,22505,2018-07-07 14:54:03:982
0.9002,3.6296,10.4483,25.68,-4.98,-15.9,269.49,-19.09,-4.92,22529,2018-07-07 14:54:04:006
-0.431,2.1261,7.5753,25.68,-4.98,-15.9,269.49,-19.09,-4.92,22553,2018-07-07 14:54:04:030
-0.431,2.1261,7.5753,25.02,-4.2,-16.14,269.49,-19.09,-4.92,22577,2018-07-07 14:54:04:054
-0.431,2.1261,7.5753,25.02,-4.2,-16.14,269.49,-19.09,-4.92,22601,2018-07-07 14:54:04:078
-0.431,2.1261,7.5753,25.02,-4.2,-16.14,269.49,-19.09,-4.92,22626,2018-07-07 14:54:04:103
-0.431,2.1261,7.5753,25.02,-4.2,-16.14,269.49,-19.09,-4.92,22649,2018-07-07 14:54:04:126
0.4693,2.0877,9.2703,25.02,-4.2,-16.14,269.49,-19.09,-4.92,22674,2018-07-07 14:54:04:151
0.4693,2.0877,9.2703,25.02,-4.2,-16.14,269.49,-19.09,-4.92,22697,2018-07-07 14:54:04:174
0.4693,2.0877,9.2703,25.02,-4.2,-16.14,269.49,-19.09,-4.92,22721,2018-07-07 14:54:04:198
0.4693,2.0877,9.2703,25.02,-4.2,-16.14,269.49,-19.09,-4.92,22746,2018-07-07 14:54:04:223
0.4693,2.0877,9.2703,25.62,-2.4,-15.66,272.71,-12.68,-2.9,22769,2018-07-07 14:54:04:246
1.1013,2.8347,7.604,25.62,-2.4,-15.66,272.71,-12.68,-2.9,22794,2018-07-07 14:54:04:271
1.1013,2.8347,7.604,25.62,-2.4,-15.66,272.71,-12.68,-2.9,22817,2018-07-07 14:54:04:294
1.1013,2.8347,7.604,25.62,-2.4,-15.66,272.71,-12.68,-2.9,22841,2018-07-07 14:54:04:318
1.1013,2.8347,7.604,25.62,-2.4,-15.66,272.71,-12.68,-2.9,22865,2018-07-07 14:54:04:342
0.9385,3.2944,8.5042,25.62,-2.4,-15.66,272.71,-12.68,-2.9,22890,2018-07-07 14:54:04:367
0.9385,3.2944,8.5042,25.62,-2.4,-15.66,272.71,-12.68,-2.9,22913,2018-07-07 14:54:04:390
0.9385,3.2944,8.5042,25.62,-2.4,-15.66,272.71,-12.68,-2.9,22937,2018-07-07 14:54:04:414
0.9385,3.2944,8.5042,24.9,-2.4,-15.66,276.14,-21.06,-6.3,22962,2018-07-07 14:54:04:439
0.9385,3.2944,8.5042,24.9,-2.4,-15.66,276.14,-21.06,-6.3,22986,2018-07-07 14:54:04:463
1.4557,3.4285,11.0804,24.9,-2.4,-15.66,276.14,-21.06,-6.3,23009,2018-07-07 14:54:04:486
1.4557,3.4285,11.0804,24.9,-2.4,-15.66,276.14,-21.06,-6.3,23033,2018-07-07 14:54:04:510
1.4557,3.4285,11.0804,24.9,-2.4,-15.66,276.14,-21.06,-6.3,23058,2018-07-07 14:54:04:535
1.4557,3.4285,11.0804,24.9,-2.4,-15.66,276.14,-21.06,-6.3,23082,2018-07-07 14:54:04:559
1.4557,3.4285,11.0804,24.9,-2.4,-15.66,276.14,-21.06,-6.3,23106,2018-07-07 14:54:04:583
2.2601,2.3367,11.789,24.9,-2.4,-15.66,276.14,-21.06,-6.3,23129,2018-07-07 14:54:04:606
2.2601,2.3367,11.789,24.9,-2.4,-15.66,276.14,-21.06,-6.3,23153,2018-07-07 14:54:04:630
2.2601,2.3367,11.789,24.06,-3.3,-15.66,268.26,-11.02,-10.85,23178,2018-07-07 14:54:04:655
2.2601,2.3367,11.789,24.06,-3.3,-15.66,268.26,-11.02,-10.85,23201,2018-07-07 14:54:04:678
2.2601,2.3367,11.789,24.06,-3.3,-15.66,268.26,-11.02,-10.85,23225,2018-07-07 14:54:04:702
1.5323,1.8962,9.4715,24.06,-3.3,-15.66,268.26,-11.02,-10.85,23249,2018-07-07 14:54:04:726
1.5323,1.8962,9.4715,24.06,-3.3,-15.66,268.26,-11.02,-10.85,23273,2018-07-07 14:54:04:750
1.5323,1.8962,9.4715,24.06,-3.3,-15.66,268.26,-11.02,-10.85,23298,2018-07-07 14:54:04:775
1.5323,1.8962,9.4715,24.06,-3.3,-15.66,268.26,-11.02,-10.85,23321,2018-07-07 14:54:04:798
1.5323,1.8962,9.4715,24.06,-3.3,-15.66,268.26,-11.02,-10.85,23345,2018-07-07 14:54:04:822
1.1971,2.4421,7.6423,24.18,-4.08,-15.66,266.5,-11.18,-9.19,23369,2018-07-07 14:54:04:846
1.1971,2.4421,7.6423,24.18,-4.08,-15.66,266.5,-11.18,-9.19,23393,2018-07-07 14:54:04:870
1.1971,2.4421,7.6423,24.18,-4.08,-15.66,266.5,-11.18,-9.19,23418,2018-07-07 14:54:04:895
1.1971,2.4421,7.6423,24.18,-4.08,-15.66,266.5,-11.18,-9.19,23441,2018-07-07 14:54:04:918
1.1971,2.4421,7.6423,24.18,-4.08,-15.66,266.5,-11.18,-9.19,23465,2018-07-07 14:54:04:942
1.4844,2.988,8.9064,24.18,-4.08,-15.66,266.5,-11.18,-9.19,23490,2018-07-07 14:54:04:967
1.4844,2.988,8.9064,24.18,-4.08,-15.66,266.5,-11.18,-9.19,23513,2018-07-07 14:54:04:990
1.4844,2.988,8.9064,24.18,-4.08,-15.66,266.5,-11.18,-9.19,23537,2018-07-07 14:54:05:014
1.4844,2.988,8.9064,22.2,-4.98,-16.68,268.56,-18.31,-9.46,23561,2018-07-07 14:54:05:038
1.4844,2.988,8.9064,22.2,-4.98,-16.68,268.56,-18.31,-9.46,23586,2018-07-07 14:54:05:063
1.0439,3.8499,9.2033,22.2,-4.98,-16.68,268.56,-18.31,-9.46,23610,2018-07-07 14:54:05:087
1.0439,3.8499,9.2033,22.2,-4.98,-16.68,268.56,-18.31,-9.46,23634,2018-07-07 14:54:05:111
1.0439,3.8499,9.2033,22.2,-4.98,-16.68,268.56,-18.31,-9.46,23657,2018-07-07 14:54:05:134
1.0439,3.8499,9.2033,22.2,-4.98,-16.68,268.56,-18.31,-9.46,23681,2018-07-07 14:54:05:158
1.0439,3.8499,9.2033,22.2,-4.98,-16.68,268.56,-18.31,-9.46,23705,2018-07-07 14:54:05:182
0.6321,3.9648,10.1706,22.2,-4.98,-16.68,268.56,-18.31,-9.46,23729,2018-07-07 14:54:05:206
0.6321,3.9648,10.1706,22.2,-4.98,-16.68,268.56,-18.31,-9.46,23754,2018-07-07 14:54:05:231
0.6321,3.9648,10.1706,22.5,-4.38,-16.68,274.54,-21.26,-3.56,23778,2018-07-07 14:54:05:255
0.6321,3.9648,10.1706,22.5,-4.38,-16.68,274.54,-21.26,-3.56,23802,2018-07-07 14:54:05:279
0.6321,3.9648,10.1706,22.5,-4.38,-16.68,274.54,-21.26,-3.56,23825,2018-07-07 14:54:05:302
-0.814,1.6759,8.0541,22.5,-4.38,-16.68,274.54,-21.26,-3.56,23850,2018-07-07 14:54:05:327
-0.814,1.6759,8.0541,22.5,-4.38,-16.68,274.54,-21.26,-3.56,23873,2018-07-07 14:54:05:350
-0.814,1.6759,8.0541,22.5,-4.38,-16.68,274.54,-21.26,-3.56,23898,2018-07-07 14:54:05:375
-0.814,1.6759,8.0541,22.5,-4.38,-16.68,274.54,-21.26,-3.56,23921,2018-07-07 14:54:05:398
-0.814,1.6759,8.0541,22.5,-4.38,-16.68,274.54,-21.26,-3.56,23945,2018-07-07 14:54:05:422
1.0247,2.0016,8.9926,22.38,-3.48,-16.44,269.92,-12.47,-6.5,23969,2018-07-07 14:54:05:446
1.0247,2.0016,8.9926,22.38,-3.48,-16.44,269.92,-12.47,-6.5,23994,2018-07-07 14:54:05:471
1.0247,2.0016,8.9926,22.38,-3.48,-16.44,269.92,-12.47,-6.5,24051,2018-07-07 14:54:05:528
1.0247,2.0016,8.9926,22.38,-3.48,-16.44,269.92,-12.47,-6.5,24052,2018-07-07 14:54:05:529
1.0247,2.0016,8.9926,22.38,-3.48,-16.44,269.92,-12.47,-6.5,24065,2018-07-07 14:54:05:542
0.4788,2.7102,8.2648,22.38,-3.48,-16.44,269.92,-12.47,-6.5,24089,2018-07-07 14:54:05:566
0.4788,2.7102,8.2648,22.38,-3.48,-16.44,269.92,-12.47,-6.5,24113,2018-07-07 14:54:05:590
0.4788,2.7102,8.2648,22.38,-3.48,-16.44,269.92,-12.47,-6.5,24137,2018-07-07 14:54:05:614
0.4788,2.7102,8.2648,22.5,-3.9,-15.84,271.81,-18.13,-3.32,24162,2018-07-07 14:54:05:639
0.4788,2.7102,8.2648,22.5,-3.9,-15.84,271.81,-18.13,-3.32,24185,2018-07-07 14:54:05:662
0.6416,3.1699,10.3142,22.5,-3.9,-15.84,271.81,-18.13,-3.32,24209,2018-07-07 14:54:05:686
0.6416,3.1699,10.3142,22.5,-3.9,-15.84,271.81,-18.13,-3.32,24234,2018-07-07 14:54:05:711
0.6416,3.1699,10.3142,22.5,-3.9,-15.84,271.81,-18.13,-3.32,24258,2018-07-07 14:54:05:735
0.6416,3.1699,10.3142,22.5,-3.9,-15.84,271.81,-18.13,-3.32,24281,2018-07-07 14:54:05:758
1.6376,3.4668,9.912,22.5,-3.9,-15.84,271.81,-18.13,-3.32,24306,2018-07-07 14:54:05:783
1.6376,3.4668,9.912,22.5,-3.9,-15.84,271.81,-18.13,-3.32,24329,2018-07-07 14:54:05:806
1.6376,3.4668,9.912,22.5,-3.9,-15.84,271.81,-18.13,-3.32,24353,2018-07-07 14:54:05:830
1.6376,3.4668,9.912,22.38,-4.8,-14.94,267.47,-19.04,-9.38,24378,2018-07-07 14:54:05:855
1.9824,2.9592,10.5536,22.38,-4.8,-14.94,267.47,-19.04,-9.38,24402,2018-07-07 14:54:05:879
1.9824,2.9592,10.5536,22.38,-4.8,-14.94,267.47,-19.04,-9.38,24425,2018-07-07 14:54:05:902
1.9824,2.9592,10.5536,22.38,-4.8,-14.94,267.47,-19.04,-9.38,24449,2018-07-07 14:54:05:926
1.9824,2.9592,10.5536,22.38,-4.8,-14.94,267.47,-19.04,-9.38,24473,2018-07-07 14:54:05:950
1.9824,2.9592,10.5536,22.38,-4.8,-14.94,267.47,-19.04,-9.38,24498,2018-07-07 14:54:05:975
1.3695,1.8483,8.6191,22.38,-4.8,-14.94,267.47,-19.04,-9.38,24521,2018-07-07 14:54:05:998
1.3695,1.8483,8.6191,22.38,-4.8,-14.94,267.47,-19.04,-9.38,24545,2018-07-07 14:54:06:022
1.3695,1.8483,8.6191,21.6,-6.06,-14.4,261.16,-11.96,-9.03,24570,2018-07-07 14:54:06:047
1.7142,1.8675,9.4523,21.6,-6.06,-14.4,261.16,-11.96,-9.03,24593,2018-07-07 14:54:06:070
1.7142,1.8675,9.4523,21.6,-6.06,-14.4,261.16,-11.96,-9.03,24617,2018-07-07 14:54:06:094
1.7142,1.8675,9.4523,21.6,-6.06,-14.4,261.16,-11.96,-9.03,24641,2018-07-07 14:54:06:118
1.7142,1.8675,9.4523,21.6,-6.06,-14.4,261.16,-11.96,-9.03,24665,2018-07-07 14:54:06:142
1.7142,1.8675,9.4523,21.6,-6.06,-14.4,261.16,-11.96,-9.03,24689,2018-07-07 14:54:06:166
1.1109,2.5283,7.6327,21.6,-6.06,-14.4,261.16,-11.96,-9.03,24714,2018-07-07 14:54:06:191
1.1109,2.5283,7.6327,21.6,-6.06,-14.4,261.16,-11.96,-9.03,24737,2018-07-07 14:54:06:214
1.1109,2.5283,7.6327,21.42,-6.96,-13.98,261.82,-18.15,-8.28,24762,2018-07-07 14:54:06:239
1.0343,2.806,8.916,21.42,-6.96,-13.98,261.82,-18.15,-8.28,24785,2018-07-07 14:54:06:262
1.0343,2.806,8.916,21.42,-6.96,-13.98,261.82,-18.15,-8.28,24809,2018-07-07 14:54:06:286
1.0343,2.806,8.916,21.42,-6.96,-13.98,261.82,-18.15,-8.28,24833,2018-07-07 14:54:06:310
1.0343,2.806,8.916,21.42,-6.96,-13.98,261.82,-18.15,-8.28,24857,2018-07-07 14:54:06:334
1.0343,2.806,8.916,21.42,-6.96,-13.98,261.82,-18.15,-8.28,24882,2018-07-07 14:54:06:359
1.1301,3.6296,8.7819,21.42,-6.96,-13.98,261.82,-18.15,-8.28,24905,2018-07-07 14:54:06:382
1.1301,3.6296,8.7819,21.42,-6.96,-13.98,261.82,-18.15,-8.28,24930,2018-07-07 14:54:06:407
1.1301,3.6296,8.7819,21.42,-6.96,-13.98,261.82,-18.15,-8.28,24953,2018-07-07 14:54:06:430
1.1301,3.6296,8.7819,20.4,-6.84,-13.38,263.22,-22.29,-7.33,24977,2018-07-07 14:54:06:454
1.1301,3.6296,8.7819,20.4,-6.84,-13.38,263.22,-22.29,-7.33,25002,2018-07-07 14:54:06:479
1.0918,3.6966,11.3485,20.4,-6.84,-13.38,263.22,-22.29,-7.33,25026,2018-07-07 14:54:06:503
1.0918,3.6966,11.3485,20.4,-6.84,-13.38,263.22,-22.29,-7.33,25050,2018-07-07 14:54:06:527
1.0918,3.6966,11.3485,20.4,-6.84,-13.38,263.22,-22.29,-7.33,25074,2018-07-07 14:54:06:551
1.0918,3.6966,11.3485,20.4,-6.84,-13.38,263.22,-22.29,-7.33,25098,2018-07-07 14:54:06:575
1.0918,3.6966,11.3485,20.4,-6.84,-13.38,263.22,-22.29,-7.33,25122,2018-07-07 14:54:06:599
-0.1053,2.0494,10.3238,20.4,-6.84,-13.38,263.22,-22.29,-7.33,25146,2018-07-07 14:54:06:623
-0.1053,2.0494,10.3238,20.22,-5.82,-12.66,260.53,-11.23,0.58,25169,2018-07-07 14:54:06:646
-0.1053,2.0494,10.3238,20.22,-5.82,-12.66,260.53,-11.23,0.58,25193,2018-07-07 14:54:06:670
-0.1053,2.0494,10.3238,20.22,-5.82,-12.66,260.53,-11.23,0.58,25218,2018-07-07 14:54:06:695
-0.1053,2.0494,10.3238,20.22,-5.82,-12.66,260.53,-11.23,0.58,25242,2018-07-07 14:54:06:719
0.2011,1.9632,10.6973,20.22,-5.82,-12.66,260.53,-11.23,0.58,25266,2018-07-07 14:54:06:743
0.2011,1.9632,10.6973,20.22,-5.82,-12.66,260.53,-11.23,0.58,25289,2018-07-07 14:54:06:766
0.2011,1.9632,10.6973,20.22,-5.82,-12.66,260.53,-11.23,0.58,25313,2018-07-07 14:54:06:790
0.2011,1.9632,10.6973,20.22,-5.82,-12.66,260.53,-11.23,0.58,25337,2018-07-07 14:54:06:814
0.2011,1.9632,10.6973,20.4,-5.1,-12.06,262.06,-10.4,-1.08,25362,2018-07-07 14:54:06:839
0.747,2.4421,7.6614,20.4,-5.1,-12.06,262.06,-10.4,-1.08,25385,2018-07-07 14:54:06:862
0.747,2.4421,7.6614,20.4,-5.1,-12.06,262.06,-10.4,-1.08,25409,2018-07-07 14:54:06:886
0.747,2.4421,7.6614,20.4,-5.1,-12.06,262.06,-10.4,-1.08,25433,2018-07-07 14:54:06:910
0.747,2.4421,7.6614,20.4,-5.1,-12.06,262.06,-10.4,-1.08,25457,2018-07-07 14:54:06:934
0.9577,3.1508,9.1075,20.4,-5.1,-12.06,262.06,-10.4,-1.08,25483,2018-07-07 14:54:06:960
0.9577,3.1508,9.1075,20.4,-5.1,-12.06,262.06,-10.4,-1.08,25505,2018-07-07 14:54:06:982
0.9577,3.1508,9.1075,20.4,-5.1,-12.06,262.06,-10.4,-1.08,25529,2018-07-07 14:54:07:006
0.9577,3.1508,9.1075,20.4,-5.1,-12.06,262.06,-10.4,-1.08,25553,2018-07-07 14:54:07:030
0.8236,3.2848,8.6479,19.62,-5.28,-11.82,265.87,-18.99,-6.0,25577,2018-07-07 14:54:07:054
0.8236,3.2848,8.6479,19.62,-5.28,-11.82,265.87,-18.99,-6.0,25602,2018-07-07 14:54:07:079
0.8236,3.2848,8.6479,19.62,-5.28,-11.82,265.87,-18.99,-6.0,25626,2018-07-07 14:54:07:103
0.8236,3.2848,8.6479,19.62,-5.28,-11.82,265.87,-18.99,-6.0,25649,2018-07-07 14:54:07:126
0.8236,3.2848,8.6479,19.62,-5.28,-11.82,265.87,-18.99,-6.0,25673,2018-07-07 14:54:07:150
1.2258,3.2178,10.3717,19.62,-5.28,-11.82,265.87,-18.99,-6.0,25698,2018-07-07 14:54:07:175
1.2258,3.2178,10.3717,19.62,-5.28,-11.82,265.87,-18.99,-6.0,25722,2018-07-07 14:54:07:199
1.2258,3.2178,10.3717,19.62,-5.28,-11.82,265.87,-18.99,-6.0,25746,2018-07-07 14:54:07:223
1.2258,3.2178,10.3717,19.08,-5.64,-11.34,261.05,-17.12,-6.74,25769,2018-07-07 14:54:07:246
1.2258,3.2178,10.3717,19.08,-5.64,-11.34,261.05,-17.12,-6.74,25793,2018-07-07 14:54:07:270
0.5555,1.8771,10.4004,19.08,-5.64,-11.34,261.05,-17.12,-6.74,25817,2018-07-07 14:54:07:294
0.5555,1.8771,10.4004,19.08,-5.64,-11.34,261.05,-17.12,-6.74,25841,2018-07-07 14:54:07:318
0.5555,1.8771,10.4004,19.08,-5.64,-11.34,261.05,-17.12,-6.74,25865,2018-07-07 14:54:07:342
0.5555,1.8771,10.4004,19.08,-5.64,-11.34,261.05,-17.12,-6.74,25890,2018-07-07 14:54:07:367
1.6759,2.1356,9.8162,19.08,-5.64,-11.34,261.05,-17.12,-6.74,25914,2018-07-07 14:54:07:391
1.6759,2.1356,9.8162,19.08,-5.64,-11.34,261.05,-17.12,-6.74,25937,2018-07-07 14:54:07:414
1.6759,2.1356,9.8162,18.24,-6.12,-10.92,257.82,-12.1,-9.69,25961,2018-07-07 14:54:07:438
1.6759,2.1356,9.8162,18.24,-6.12,-10.92,257.82,-12.1,-9.69,25986,2018-07-07 14:54:07:463
1.6759,2.1356,9.8162,18.24,-6.12,-10.92,257.82,-12.1,-9.69,26010,2018-07-07 14:54:07:487
0.996,2.6911,7.6519,18.24,-6.12,-10.92,257.82,-12.1,-9.69,26034,2018-07-07 14:54:07:511
0.996,2.6911,7.6519,18.24,-6.12,-10.92,257.82,-12.1,-9.69,26057,2018-07-07 14:54:07:534
0.996,2.6911,7.6519,18.24,-6.12,-10.92,257.82,-12.1,-9.69,26082,2018-07-07 14:54:07:559
0.996,2.6911,7.6519,18.24,-6.12,-10.92,257.82,-12.1,-9.69,26105,2018-07-07 14:54:07:582
0.996,2.6911,7.6519,18.24,-6.12,-10.92,257.82,-12.1,-9.69,26130,2018-07-07 14:54:07:607
0.8715,3.1987,9.0597,18.24,-6.12,-10.92,257.82,-12.1,-9.69,26154,2018-07-07 14:54:07:631
0.8715,3.1987,9.0597,17.28,-6.3,-10.56,261.86,-19.36,-5.49,26177,2018-07-07 14:54:07:654
0.8715,3.1987,9.0597,17.28,-6.3,-10.56,261.86,-19.36,-5.49,26201,2018-07-07 14:54:07:678
0.8715,3.1987,9.0597,17.28,-6.3,-10.56,261.86,-19.36,-5.49,26226,2018-07-07 14:54:07:703
0.8715,3.1987,9.0597,17.28,-6.3,-10.56,261.86,-19.36,-5.49,26250,2018-07-07 14:54:07:727
0.814,3.984,10.2855,17.28,-6.3,-10.56,261.86,-19.36,-5.49,26273,2018-07-07 14:54:07:750
0.814,3.984,10.2855,17.28,-6.3,-10.56,261.86,-19.36,-5.49,26298,2018-07-07 14:54:07:775
0.814,3.984,10.2855,17.28,-6.3,-10.56,261.86,-19.36,-5.49,26321,2018-07-07 14:54:07:798
0.814,3.984,10.2855,17.28,-6.3,-10.56,261.86,-19.36,-5.49,26345,2018-07-07 14:54:07:822
0.814,3.984,10.2855,17.1,-5.34,-9.9,264.98,-21.11,-4.53,26370,2018-07-07 14:54:07:847
1.0343,3.4381,11.9135,17.1,-5.34,-9.9,264.98,-21.11,-4.53,26393,2018-07-07 14:54:07:870
1.0343,3.4381,11.9135,17.1,-5.34,-9.9,264.98,-21.11,-4.53,26449,2018-07-07 14:54:07:926
1.0343,3.4381,11.9135,17.1,-5.34,-9.9,264.98,-21.11,-4.53,26451,2018-07-07 14:54:07:928
1.0343,3.4381,11.9135,17.1,-5.34,-9.9,264.98,-21.11,-4.53,26465,2018-07-07 14:54:07:942
1.0343,3.4381,11.9135,17.1,-5.34,-9.9,264.98,-21.11,-4.53,26490,2018-07-07 14:54:07:967
-0.4405,1.9537,8.2935,17.1,-5.34,-9.9,264.98,-21.11,-4.53,26513,2018-07-07 14:54:07:990
-0.4405,1.9537,8.2935,17.1,-5.34,-9.9,264.98,-21.11,-4.53,26538,2018-07-07 14:54:08:015
-0.4405,1.9537,8.2935,16.92,-4.26,-9.72,265.13,-13.24,3.04,26561,2018-07-07 14:54:08:038
-0.4405,1.9537,8.2935,16.92,-4.26,-9.72,265.13,-13.24,3.04,26585,2018-07-07 14:54:08:062
0.7949,2.3559,9.0405,16.92,-4.26,-9.72,265.13,-13.24,3.04,26609,2018-07-07 14:54:08:086
0.7949,2.3559,9.0405,16.92,-4.26,-9.72,265.13,-13.24,3.04,26634,2018-07-07 14:54:08:111
0.7949,2.3559,9.0405,16.92,-4.26,-9.72,265.13,-13.24,3.04,26657,2018-07-07 14:54:08:134
0.7949,2.3559,9.0405,16.92,-4.26,-9.72,265.13,-13.24,3.04,26681,2018-07-07 14:54:08:158
0.3352,3.1508,7.5657,16.92,-4.26,-9.72,265.13,-13.24,3.04,26705,2018-07-07 14:54:08:182
0.3352,3.1508,7.5657,16.92,-4.26,-9.72,265.13,-13.24,3.04,26730,2018-07-07 14:54:08:207
0.3352,3.1508,7.5657,16.92,-4.26,-9.72,265.13,-13.24,3.04,26754,2018-07-07 14:54:08:231
0.3352,3.1508,7.5657,16.74,-3.54,-9.96,269.52,-22.59,-2.54,26778,2018-07-07 14:54:08:255
0.9098,3.4764,8.7053,16.74,-3.54,-9.96,269.52,-22.59,-2.54,26801,2018-07-07 14:54:08:278
0.9098,3.4764,8.7053,16.74,-3.54,-9.96,269.52,-22.59,-2.54,26825,2018-07-07 14:54:08:302
0.9098,3.4764,8.7053,16.74,-3.54,-9.96,269.52,-22.59,-2.54,26849,2018-07-07 14:54:08:326
0.9098,3.4764,8.7053,16.74,-3.54,-9.96,269.52,-22.59,-2.54,26873,2018-07-07 14:54:08:350
0.8523,3.5147,9.3374,16.74,-3.54,-9.96,269.52,-22.59,-2.54,26898,2018-07-07 14:54:08:375
0.8523,3.5147,9.3374,16.74,-3.54,-9.96,269.52,-22.59,-2.54,26921,2018-07-07 14:54:08:398
0.8523,3.5147,9.3374,16.74,-3.54,-9.96,269.52,-22.59,-2.54,26945,2018-07-07 14:54:08:422
0.8523,3.5147,9.3374,16.98,-3.12,-9.9,270.46,-20.55,-5.22,26970,2018-07-07 14:54:08:447
0.8523,3.5147,9.3374,16.98,-3.12,-9.9,270.46,-20.55,-5.22,26993,2018-07-07 14:54:08:470
2.1356,2.7007,10.8601,16.98,-3.12,-9.9,270.46,-20.55,-5.22,27017,2018-07-07 14:54:08:494
2.1356,2.7007,10.8601,16.98,-3.12,-9.9,270.46,-20.55,-5.22,27041,2018-07-07 14:54:08:518
2.1356,2.7007,10.8601,16.98,-3.12,-9.9,270.46,-20.55,-5.22,27065,2018-07-07 14:54:08:542
2.1356,2.7007,10.8601,16.98,-3.12,-9.9,270.46,-20.55,-5.22,27089,2018-07-07 14:54:08:566
2.1356,2.7007,10.8601,16.98,-3.12,-9.9,270.46,-20.55,-5.22,27113,2018-07-07 14:54:08:590
1.1396,1.4748,9.1746,16.98,-3.12,-9.9,270.46,-20.55,-5.22,27137,2018-07-07 14:54:08:614
1.1396,1.4748,9.1746,17.28,-2.82,-10.38,264.54,-9.06,-7.08,27161,2018-07-07 14:54:08:638
1.1396,1.4748,9.1746,17.28,-2.82,-10.38,264.54,-9.06,-7.08,27186,2018-07-07 14:54:08:663
1.1396,1.4748,9.1746,17.28,-2.82,-10.38,264.54,-9.06,-7.08,27209,2018-07-07 14:54:08:686
1.1396,1.4748,9.1746,17.28,-2.82,-10.38,264.54,-9.06,-7.08,27233,2018-07-07 14:54:08:710
1.6472,2.4038,8.1977,17.28,-2.82,-10.38,264.54,-9.06,-7.08,27257,2018-07-07 14:54:08:734
1.6472,2.4038,8.1977,17.28,-2.82,-10.38,264.54,-9.06,-7.08,27282,2018-07-07 14:54:08:759
1.6472,2.4038,8.1977,17.28,-2.82,-10.38,264.54,-9.06,-7.08,27305,2018-07-07 14:54:08:782
1.6472,2.4038,8.1977,17.28,-2.82,-10.38,264.54,-9.06,-7.08,27329,2018-07-07 14:54:08:806
1.6472,2.4038,8.1977,17.28,-2.82,-10.38,264.54,-9.06,-7.08,27353,2018-07-07 14:54:08:830
0.6704,2.739,9.0118,17.64,-2.64,-10.74,267.45,-16.04,-11.36,27378,2018-07-07 14:54:08:855
0.6704,2.739,9.0118,17.64,-2.64,-10.74,267.45,-16.04,-11.36,27402,2018-07-07 14:54:08:879
0.6704,2.739,9.0118,17.64,-2.64,-10.74,267.45,-16.04,-11.36,27426,2018-07-07 14:54:08:903
0.6704,2.739,9.0118,17.64,-2.64,-10.74,267.45,-16.04,-11.36,27449,2018-07-07 14:54:08:926
0.6704,2.739,9.0118,17.64,-2.64,-10.74,267.45,-16.04,-11.36,27473,2018-07-07 14:54:08:950
1.1109,3.5147,8.5904,17.64,-2.64,-10.74,267.45,-16.04,-11.36,27498,2018-07-07 14:54:08:975
1.1109,3.5147,8.5904,17.64,-2.64,-10.74,267.45,-16.04,-11.36,27522,2018-07-07 14:54:08:999
1.1109,3.5147,8.5904,17.64,-2.64,-10.74,267.45,-16.04,-11.36,27546,2018-07-07 14:54:09:023
0.8332,3.802,10.4004,18.06,-2.04,-10.74,274.1,-22.09,-7.37,27570,2018-07-07 14:54:09:047
0.8332,3.802,10.4004,18.06,-2.04,-10.74,274.1,-22.09,-7.37,27593,2018-07-07 14:54:09:070
0.8332,3.802,10.4004,18.06,-2.04,-10.74,274.1,-22.09,-7.37,27617,2018-07-07 14:54:09:094
0.8332,3.802,10.4004,18.06,-2.04,-10.74,274.1,-22.09,-7.37,27641,2018-07-07 14:54:09:118
0.8332,3.802,10.4004,18.06,-2.04,-10.74,274.1,-22.09,-7.37,27666,2018-07-07 14:54:09:143
0.7853,3.055,11.6741,18.06,-2.04,-10.74,274.1,-22.09,-7.37,27692,2018-07-07 14:54:09:169
0.7853,3.055,11.6741,18.06,-2.04,-10.74,274.1,-22.09,-7.37,27714,2018-07-07 14:54:09:191
0.7853,3.055,11.6741,18.06,-2.04,-10.74,274.1,-22.09,-7.37,27738,2018-07-07 14:54:09:215
0.7853,3.055,11.6741,18.18,-0.84,-11.34,274.59,-14.63,-3.85,27761,2018-07-07 14:54:09:238
0.7853,3.055,11.6741,18.18,-0.84,-11.34,274.59,-14.63,-3.85,27785,2018-07-07 14:54:09:262
-1.2546,1.8004,8.7245,18.18,-0.84,-11.34,274.59,-14.63,-3.85,27809,2018-07-07 14:54:09:286
-1.2546,1.8004,8.7245,18.18,-0.84,-11.34,274.59,-14.63,-3.85,27834,2018-07-07 14:54:09:311
-1.2546,1.8004,8.7245,18.18,-0.84,-11.34,274.59,-14.63,-3.85,27858,2018-07-07 14:54:09:335
-1.2546,1.8004,8.7245,18.18,-0.84,-11.34,274.59,-14.63,-3.85,27881,2018-07-07 14:54:09:358
-1.2546,1.8004,8.7245,18.18,-0.84,-11.34,274.59,-14.63,-3.85,27905,2018-07-07 14:54:09:382
0.3352,2.4134,8.0445,18.18,-0.84,-11.34,274.59,-14.63,-3.85,27929,2018-07-07 14:54:09:406
0.3352,2.4134,8.0445,18.18,-0.84,-11.34,274.59,-14.63,-3.85,27953,2018-07-07 14:54:09:430
0.3352,2.4134,8.0445,18.36,-0.3,-12.06,279.9,-16.69,-2.39,27978,2018-07-07 14:54:09:455
0.3352,2.4134,8.0445,18.36,-0.3,-12.06,279.9,-16.69,-2.39,28001,2018-07-07 14:54:09:478
0.3352,2.4134,8.0445,18.36,-0.3,-12.06,279.9,-16.69,-2.39,28026,2018-07-07 14:54:09:503
0.7374,3.1125,8.6095,18.36,-0.3,-12.06,279.9,-16.69,-2.39,28050,2018-07-07 14:54:09:527
0.7374,3.1125,8.6095,18.6,-0.12,-12.6,279.9,-16.69,-2.39,28074,2018-07-07 14:54:09:551
0.7374,3.1125,8.6095,18.6,-0.12,-12.6,279.9,-16.69,-2.39,28097,2018-07-07 14:54:09:574
0.7374,3.1125,8.6095,18.6,-0.12,-12.6,279.9,-16.69,-2.39,28121,2018-07-07 14:54:09:598
0.7374,3.1125,8.6095,18.6,-0.12,-12.6,279.9,-16.69,-2.39,28145,2018-07-07 14:54:09:622
0.6321,3.237,8.0828,18.6,-0.12,-12.6,279.9,-16.69,-2.39,28169,2018-07-07 14:54:09:646
0.6321,3.237,8.0828,18.6,-0.12,-12.6,279.9,-16.69,-2.39,28194,2018-07-07 14:54:09:671
0.6321,3.237,8.0828,18.6,-0.12,-12.6,279.9,-16.69,-2.39,28217,2018-07-07 14:54:09:694
0.6321,3.237,8.0828,18.6,-0.12,-12.6,279.9,-16.69,-2.39,28242,2018-07-07 14:54:09:719
0.6321,3.237,8.0828,18.78,-0.3,-12.84,282.04,-21.76,-4.47,28266,2018-07-07 14:54:09:743
1.245,3.3327,10.477,18.78,-0.3,-12.84,282.04,-21.76,-4.47,28290,2018-07-07 14:54:09:767
1.245,3.3327,10.477,18.78,-0.3,-12.84,282.04,-21.76,-4.47,28313,2018-07-07 14:54:09:790
1.245,3.3327,10.477,18.78,-0.3,-12.84,282.04,-21.76,-4.47,28338,2018-07-07 14:54:09:815
1.245,3.3327,10.477,18.78,-0.3,-12.84,282.04,-21.76,-4.47,28362,2018-07-07 14:54:09:839
1.245,3.3327,10.477,18.78,-0.3,-12.84,282.04,-21.76,-4.47,28385,2018-07-07 14:54:09:862
1.0726,2.1739,11.5017,18.78,-0.3,-12.84,282.04,-21.76,-4.47,28409,2018-07-07 14:54:09:886
1.0726,2.1739,11.5017,18.78,-0.3,-12.84,282.04,-21.76,-4.47,28434,2018-07-07 14:54:09:911
1.0726,2.1739,11.5017,18.6,-0.42,-13.98,276.36,-10.66,-5.33,28458,2018-07-07 14:54:09:935
1.5706,1.7238,8.5329,18.6,-0.42,-13.98,276.36,-10.66,-5.33,28482,2018-07-07 14:54:09:959
1.5706,1.7238,8.5329,18.6,-0.42,-13.98,276.36,-10.66,-5.33,28506,2018-07-07 14:54:09:983
1.5706,1.7238,8.5329,18.6,-0.42,-13.98,276.36,-10.66,-5.33,28530,2018-07-07 14:54:10:007
1.5706,1.7238,8.5329,18.6,-0.42,-13.98,276.36,-10.66,-5.33,28553,2018-07-07 14:54:10:030
1.5706,1.7238,8.5329,18.6,-0.42,-13.98,276.36,-10.66,-5.33,28577,2018-07-07 14:54:10:054
1.1109,2.3272,8.1307,18.6,-0.42,-13.98,276.36,-10.66,-5.33,28601,2018-07-07 14:54:10:078
1.1109,2.3272,8.1307,18.6,-0.42,-13.98,276.36,-10.66,-5.33,28625,2018-07-07 14:54:10:102
1.1109,2.3272,8.1307,18.6,-0.42,-13.98,276.36,-10.66,-5.33,28650,2018-07-07 14:54:10:127
1.1109,2.3272,8.1307,18.54,-1.02,-14.76,276.54,-15.83,-7.78,28673,2018-07-07 14:54:10:150
1.1109,2.3272,8.1307,18.54,-1.02,-14.76,276.54,-15.83,-7.78,28697,2018-07-07 14:54:10:174
0.9768,3.0071,8.667,18.54,-1.02,-14.76,276.54,-15.83,-7.78,28722,2018-07-07 14:54:10:199
0.9768,3.0071,8.667,18.54,-1.02,-14.76,276.54,-15.83,-7.78,28746,2018-07-07 14:54:10:223
0.9768,3.0071,8.667,18.54,-1.02,-14.76,276.54,-15.83,-7.78,28769,2018-07-07 14:54:10:246
0.9768,3.0071,8.667,18.54,-1.02,-14.76,276.54,-15.83,-7.78,28793,2018-07-07 14:54:10:270
1.2929,3.9169,8.734,18.54,-1.02,-14.76,276.54,-15.83,-7.78,28850,2018-07-07 14:54:10:327
1.2929,3.9169,8.734,18.54,-1.02,-14.76,276.54,-15.83,-7.78,28851,2018-07-07 14:54:10:328
1.2929,3.9169,8.734,18.36,-0.42,-15.48,283.9,-23.92,-8.42,28866,2018-07-07 14:54:10:343
1.2929,3.9169,8.734,18.36,-0.42,-15.48,283.9,-23.92,-8.42,28890,2018-07-07 14:54:10:367
1.2929,3.9169,8.734,18.36,-0.42,-15.48,283.9,-23.92,-8.42,28913,2018-07-07 14:54:10:390
1.2929,3.9169,8.734,18.36,-0.42,-15.48,283.9,-23.92,-8.42,28937,2018-07-07 14:54:10:414
1.1684,4.4245,11.3677,18.24,-0.06,-15.9,283.9,-23.92,-8.42,28962,2018-07-07 14:54:10:439
1.1684,4.4245,11.3677,18.24,-0.06,-15.9,283.9,-23.92,-8.42,28986,2018-07-07 14:54:10:463
1.1684,4.4245,11.3677,18.24,-0.06,-15.9,283.9,-23.92,-8.42,29010,2018-07-07 14:54:10:487
1.1684,4.4245,11.3677,18.24,-0.06,-15.9,283.9,-23.92,-8.42,29034,2018-07-07 14:54:10:511
0.5938,2.4134,11.789,18.24,-0.06,-15.9,283.9,-23.92,-8.42,29057,2018-07-07 14:54:10:534
0.5938,2.4134,11.789,18.24,-0.06,-15.9,283.9,-23.92,-8.42,29082,2018-07-07 14:54:10:559
0.5938,2.4134,11.789,18.24,-0.06,-15.9,283.9,-23.92,-8.42,29105,2018-07-07 14:54:10:582
0.5938,2.4134,11.789,18.24,-0.06,-15.9,283.9,-23.92,-8.42,29130,2018-07-07 14:54:10:607
0.5938,2.4134,11.789,18.24,-0.06,-15.9,283.9,-23.92,-8.42,29153,2018-07-07 14:54:10:630
0.6321,1.7717,10.0078,18.54,0.48,-16.62,279.19,-11.56,-2.88,29178,2018-07-07 14:54:10:655
0.6321,1.7717,10.0078,18.54,0.48,-16.62,279.19,-11.56,-2.88,29201,2018-07-07 14:54:10:678
0.6321,1.7717,10.0078,18.54,0.48,-16.62,279.19,-11.56,-2.88,29226,2018-07-07 14:54:10:703
0.6321,1.7717,10.0078,18.54,0.48,-16.62,279.19,-11.56,-2.88,29250,2018-07-07 14:54:10:727
0.6321,1.7717,10.0078,18.54,0.48,-16.62,279.19,-11.56,-2.88,29273,2018-07-07 14:54:10:750
0.2586,2.49,7.4029,18.54,0.48,-16.62,279.19,-11.56,-2.88,29298,2018-07-07 14:54:10:775
0.2586,2.49,7.4029,18.54,0.48,-16.62,279.19,-11.56,-2.88,29322,2018-07-07 14:54:10:799
0.2586,2.49,7.4029,18.54,0.48,-16.62,279.19,-11.56,-2.88,29346,2018-07-07 14:54:10:823
0.2586,2.49,7.4029,18.96,1.02,-16.86,287.44,-18.58,-2.0,29369,2018-07-07 14:54:10:846
0.2586,2.49,7.4029,18.96,1.02,-16.86,287.44,-18.58,-2.0,29393,2018-07-07 14:54:10:870
0.5171,3.4955,9.7013,18.96,1.02,-16.86,287.44,-18.58,-2.0,29418,2018-07-07 14:54:10:895
0.5171,3.4955,9.7013,18.96,1.02,-16.86,287.44,-18.58,-2.0,29441,2018-07-07 14:54:10:918
0.5171,3.4955,9.7013,18.96,1.02,-16.86,287.44,-18.58,-2.0,29466,2018-07-07 14:54:10:943
0.5171,3.4955,9.7013,18.96,1.02,-16.86,287.44,-18.58,-2.0,29490,2018-07-07 14:54:10:967
0.5171,3.4955,9.7013,18.96,1.02,-16.86,287.44,-18.58,-2.0,29513,2018-07-07 14:54:10:990
1.0247,4.0701,9.663,18.96,1.02,-16.86,287.44,-18.58,-2.0,29538,2018-07-07 14:54:11:015
1.0247,4.0701,9.663,20.04,0.3,-17.04,284.77,-22.73,-6.05,29562,2018-07-07 14:54:11:039
1.0247,4.0701,9.663,20.04,0.3,-17.04,284.77,-22.73,-6.05,29586,2018-07-07 14:54:11:063
1.0247,4.0701,9.663,20.04,0.3,-17.04,284.77,-22.73,-6.05,29609,2018-07-07 14:54:11:086
1.0247,4.0701,9.663,20.04,0.3,-17.04,284.77,-22.73,-6.05,29633,2018-07-07 14:54:11:110
0.6321,3.984,11.3772,20.04,0.3,-17.04,284.77,-22.73,-6.05,29657,2018-07-07 14:54:11:134
0.6321,3.984,11.3772,20.04,0.3,-17.04,284.77,-22.73,-6.05,29681,2018-07-07 14:54:11:158
0.6321,3.984,11.3772,20.04,0.3,-17.04,284.77,-22.73,-6.05,29705,2018-07-07 14:54:11:182
0.6321,3.984,11.3772,20.04,0.3,-17.04,284.77,-22.73,-6.05,29730,2018-07-07 14:54:11:207
0.6321,3.984,11.3772,20.04,0.3,-17.04,284.77,-22.73,-6.05,29753,2018-07-07 14:54:11:230
0.316,2.3463,9.6917,20.94,-0.78,-16.92,281.04,-19.27,-3.18,29777,2018-07-07 14:54:11:254
0.316,2.3463,9.6917,20.94,-0.78,-16.92,281.04,-19.27,-3.18,29802,2018-07-07 14:54:11:279
0.316,2.3463,9.6917,20.94,-0.78,-16.92,281.04,-19.27,-3.18,29825,2018-07-07 14:54:11:302
0.316,2.3463,9.6917,20.94,-0.78,-16.92,281.04,-19.27,-3.18,29849,2018-07-07 14:54:11:326
0.316,2.3463,9.6917,20.94,-0.78,-16.92,281.04,-19.27,-3.18,29873,2018-07-07 14:54:11:350
0.9768,2.3655,9.7013,20.94,-0.78,-16.92,281.04,-19.27,-3.18,29897,2018-07-07 14:54:11:374
0.9768,2.3655,9.7013,20.94,-0.78,-16.92,281.04,-19.27,-3.18,29921,2018-07-07 14:54:11:398
0.9768,2.3655,9.7013,20.94,-0.78,-16.92,281.04,-19.27,-3.18,29946,2018-07-07 14:54:11:423
0.9768,2.3655,9.7013,21.42,-0.78,-17.04,276.36,-13.64,-5.75,29969,2018-07-07 14:54:11:446
0.9768,2.3655,9.7013,21.42,-0.78,-17.04,276.36,-13.64,-5.75,29994,2018-07-07 14:54:11:471
0.0958,2.9688,7.3933,21.42,-0.78,-17.04,276.36,-13.64,-5.75,30018,2018-07-07 14:54:11:495
0.0958,2.9688,7.3933,21.42,-0.78,-17.04,276.36,-13.64,-5.75,30041,2018-07-07 14:54:11:518
0.0958,2.9688,7.3933,21.42,-0.78,-17.04,276.36,-13.64,-5.75,30066,2018-07-07 14:54:11:543
0.0958,2.9688,7.3933,21.42,-0.78,-17.04,276.36,-13.64,-5.75,30090,2018-07-07 14:54:11:567
0.0958,2.9688,7.3933,21.42,-0.78,-17.04,276.36,-13.64,-5.75,30113,2018-07-07 14:54:11:590
0.6608,3.7733,8.6095,21.42,-0.78,-17.04,276.36,-13.64,-5.75,30138,2018-07-07 14:54:11:615
0.6608,3.7733,8.6095,22.14,-0.84,-16.92,282.61,-23.6,-4.39,30162,2018-07-07 14:54:11:639
0.6608,3.7733,8.6095,22.14,-0.84,-16.92,282.61,-23.6,-4.39,30185,2018-07-07 14:54:11:662
0.6608,3.7733,8.6095,22.14,-0.84,-16.92,282.61,-23.6,-4.39,30209,2018-07-07 14:54:11:686
0.9577,4.1468,10.0078,22.14,-0.84,-16.92,282.61,-23.6,-4.39,30234,2018-07-07 14:54:11:711
0.9577,4.1468,10.0078,22.14,-0.84,-16.92,282.61,-23.6,-4.39,30258,2018-07-07 14:54:11:735
0.9577,4.1468,10.0078,22.32,-0.3,-16.68,282.61,-23.6,-4.39,30281,2018-07-07 14:54:11:758
0.9577,4.1468,10.0078,22.32,-0.3,-16.68,282.61,-23.6,-4.39,30305,2018-07-07 14:54:11:782
0.9577,4.1468,10.0078,22.32,-0.3,-16.68,282.61,-23.6,-4.39,30330,2018-07-07 14:54:11:807
1.3695,3.9648,9.5768,22.32,-0.3,-16.68,282.61,-23.6,-4.39,30353,2018-07-07 14:54:11:830
1.3695,3.9648,9.5768,22.32,-0.3,-16.68,282.61,-23.6,-4.39,30378,2018-07-07 14:54:11:855
1.3695,3.9648,9.5768,22.32,-0.3,-16.68,282.61,-23.6,-4.39,30401,2018-07-07 14:54:11:878
1.3695,3.9648,9.5768,22.32,-0.3,-16.68,282.61,-23.6,-4.39,30426,2018-07-07 14:54:11:903
1.3695,3.9648,9.5768,22.32,-0.3,-16.68,282.61,-23.6,-4.39,30450,2018-07-07 14:54:11:927
-0.2394,1.9441,7.1539,22.86,-0.3,-16.26,280.79,-22.29,-8.14,30473,2018-07-07 14:54:11:950
-0.2394,1.9441,7.1539,22.86,-0.3,-16.26,280.79,-22.29,-8.14,30497,2018-07-07 14:54:11:974
-0.2394,1.9441,7.1539,22.86,-0.3,-16.26,280.79,-22.29,-8.14,30521,2018-07-07 14:54:11:998
-0.2394,1.9441,7.1539,22.86,-0.3,-16.26,280.79,-22.29,-8.14,30545,2018-07-07 14:54:12:022
-0.2394,1.9441,7.1539,22.86,-0.3,-16.26,280.79,-22.29,-8.14,30569,2018-07-07 14:54:12:046
0.3639,2.3367,11.2527,22.86,-0.3,-16.26,280.79,-22.29,-8.14,30593,2018-07-07 14:54:12:070
0.3639,2.3367,11.2527,22.86,-0.3,-16.26,280.79,-22.29,-8.14,30617,2018-07-07 14:54:12:094
0.3639,2.3367,11.2527,22.86,-0.3,-16.26,280.79,-22.29,-8.14,30642,2018-07-07 14:54:12:119
0.3639,2.3367,11.2527,23.4,-0.66,-16.44,275.15,-11.73,-1.85,30666,2018-07-07 14:54:12:143
0.3639,2.3367,11.2527,23.4,-0.66,-16.44,275.15,-11.73,-1.85,30690,2018-07-07 14:54:12:167
1.1779,2.6624,7.7285,23.4,-0.66,-16.44,275.15,-11.73,-1.85,30714,2018-07-07 14:54:12:191
1.1779,2.6624,7.7285,23.4,-0.66,-16.44,275.15,-11.73,-1.85,30737,2018-07-07 14:54:12:214
1.1779,2.6624,7.7285,23.4,-0.66,-16.44,275.15,-11.73,-1.85,30762,2018-07-07 14:54:12:239
1.1779,2.6624,7.7285,23.4,-0.66,-16.44,275.15,-11.73,-1.85,30786,2018-07-07 14:54:12:263
1.1779,2.6624,7.7285,23.4,-0.66,-16.44,275.15,-11.73,-1.85,30810,2018-07-07 14:54:12:287
0.3926,3.1125,9.7588,23.4,-0.66,-16.44,275.15,-11.73,-1.85,30833,2018-07-07 14:54:12:310
0.3926,3.1125,9.7588,24.3,-2.46,-16.44,276.16,-17.68,-2.3,30857,2018-07-07 14:54:12:334
0.3926,3.1125,9.7588,24.3,-2.46,-16.44,276.16,-17.68,-2.3,30881,2018-07-07 14:54:12:358
0.3926,3.1125,9.7588,24.3,-2.46,-16.44,276.16,-17.68,-2.3,30906,2018-07-07 14:54:12:383
0.3926,3.1125,9.7588,24.3,-2.46,-16.44,276.16,-17.68,-2.3,30929,2018-07-07 14:54:12:406
1.3982,3.6966,9.5002,24.3,-2.46,-16.44,276.16,-17.68,-2.3,30953,2018-07-07 14:54:12:430
1.3982,3.6966,9.5002,24.3,-2.46,-16.44,276.16,-17.68,-2.3,30977,2018-07-07 14:54:12:454
1.3982,3.6966,9.5002,24.3,-2.46,-16.44,276.16,-17.68,-2.3,31002,2018-07-07 14:54:12:479
1.3982,3.6966,9.5002,24.3,-2.46,-16.44,276.16,-17.68,-2.3,31026,2018-07-07 14:54:12:503
1.3982,3.6966,9.5002,24.3,-2.46,-16.44,276.16,-17.68,-2.3,31049,2018-07-07 14:54:12:526
0.5363,3.4381,10.9176,25.62,-4.38,-15.72,271.21,-21.06,-8.37,31073,2018-07-07 14:54:12:550
0.5363,3.4381,10.9176,25.62,-4.38,-15.72,271.21,-21.06,-8.37,31097,2018-07-07 14:54:12:574
0.5363,3.4381,10.9176,25.62,-4.38,-15.72,271.21,-21.06,-8.37,31121,2018-07-07 14:54:12:598
0.5363,3.4381,10.9176,25.62,-4.38,-15.72,271.21,-21.06,-8.37,31145,2018-07-07 14:54:12:622
0.5363,3.4381,10.9176,25.62,-4.38,-15.72,271.21,-21.06,-8.37,31169,2018-07-07 14:54:12:646
0.2682,2.1644,8.7149,25.62,-4.38,-15.72,271.21,-21.06,-8.37,31193,2018-07-07 14:54:12:670
0.2682,2.1644,8.7149,25.62,-4.38,-15.72,271.21,-21.06,-8.37,31253,2018-07-07 14:54:12:730
0.2682,2.1644,8.7149,25.62,-4.38,-15.72,271.21,-21.06,-8.37,31254,2018-07-07 14:54:12:731
0.2682,2.1644,8.7149,26.16,-6.12,-15.84,265.33,-13.94,-1.76,31266,2018-07-07 14:54:12:743
0.2682,2.1644,8.7149,26.16,-6.12,-15.84,265.33,-13.94,-1.76,31289,2018-07-07 14:54:12:766
1.6185,2.4612,10.1897,26.16,-6.12,-15.84,265.33,-13.94,-1.76,31313,2018-07-07 14:54:12:790
1.6185,2.4612,10.1897,26.16,-6.12,-15.84,265.33,-13.94,-1.76,31337,2018-07-07 14:54:12:814
1.6185,2.4612,10.1897,26.16,-6.12,-15.84,265.33,-13.94,-1.76,31361,2018-07-07 14:54:12:838
1.6185,2.4612,10.1897,26.16,-6.12,-15.84,265.33,-13.94,-1.76,31386,2018-07-07 14:54:12:863
1.6185,2.4612,10.1897,26.16,-6.12,-15.84,265.33,-13.94,-1.76,31409,2018-07-07 14:54:12:886
-0.747,2.624,7.6614,26.16,-6.12,-15.84,265.33,-13.94,-1.76,31433,2018-07-07 14:54:12:910
-0.747,2.624,7.6614,26.16,-9.18,-15.72,265.33,-13.94,5.57,31457,2018-07-07 14:54:12:934
-0.747,2.624,7.6614,27.12,-9.18,-15.72,264.28,-18.82,5.57,31481,2018-07-07 14:54:12:958
-0.747,2.624,7.6614,27.12,-9.18,-15.72,264.28,-18.82,5.57,31505,2018-07-07 14:54:12:982
0.8045,2.9688,9.2033,27.12,-9.18,-15.72,264.28,-18.82,5.57,31530,2018-07-07 14:54:13:007
0.8045,2.9688,9.2033,27.12,-9.18,-15.72,264.28,-18.82,5.57,31554,2018-07-07 14:54:13:031
0.8045,2.9688,9.2033,27.12,-9.18,-15.72,264.28,-18.82,5.57,31578,2018-07-07 14:54:13:055
0.8045,2.9688,9.2033,27.12,-9.18,-15.72,264.28,-18.82,5.57,31602,2018-07-07 14:54:13:079
0.8045,2.9688,9.2033,27.12,-9.18,-15.72,264.28,-18.82,5.57,31625,2018-07-07 14:54:13:102
1.0534,2.4229,9.7492,27.12,-9.18,-15.72,264.28,-18.82,5.57,31649,2018-07-07 14:54:13:126
1.0534,2.4229,9.7492,27.6,-13.5,-14.58,251.66,-13.88,-6.17,31673,2018-07-07 14:54:13:150
1.0534,2.4229,9.7492,27.6,-13.5,-14.58,251.66,-13.88,-6.17,31697,2018-07-07 14:54:13:174
1.0534,2.4229,9.7492,27.6,-13.5,-14.58,251.66,-13.88,-6.17,31721,2018-07-07 14:54:13:198
1.0534,2.4229,9.7492,27.6,-13.5,-14.58,251.66,-13.88,-6.17,31745,2018-07-07 14:54:13:222
1.1205,2.241,10.6303,27.6,-13.5,-14.58,251.66,-13.88,-6.17,31769,2018-07-07 14:54:13:246
1.1205,2.241,10.6303,27.6,-13.5,-14.58,251.66,-13.88,-6.17,31793,2018-07-07 14:54:13:270
1.1205,2.241,10.6303,27.6,-13.5,-14.58,251.66,-13.88,-6.17,31818,2018-07-07 14:54:13:295
1.1205,2.241,10.6303,27.6,-13.5,-14.58,251.66,-13.88,-6.17,31842,2018-07-07 14:54:13:319
1.1205,2.241,10.6303,25.14,-20.46,-13.38,236.35,-11.84,-6.02,31865,2018-07-07 14:54:13:342
0.7853,1.1684,9.4523,25.14,-20.46,-13.38,236.35,-11.84,-6.02,31889,2018-07-07 14:54:13:366
0.7853,1.1684,9.4523,25.14,-20.46,-13.38,236.35,-11.84,-6.02,31913,2018-07-07 14:54:13:390
0.7853,1.1684,9.4523,25.14,-20.46,-13.38,236.35,-11.84,-6.02,31937,2018-07-07 14:54:13:414
0.7853,1.1684,9.4523,25.14,-20.46,-13.38,236.35,-11.84,-6.02,31961,2018-07-07 14:54:13:438
0.7853,1.1684,9.4523,25.14,-20.46,-13.38,236.35,-11.84,-6.02,31986,2018-07-07 14:54:13:463
0.8236,2.0782,7.6614,25.14,-20.46,-13.38,236.35,-11.84,-6.02,32009,2018-07-07 14:54:13:486
0.8236,2.0782,7.6614,25.14,-20.46,-13.38,236.35,-11.84,-6.02,32034,2018-07-07 14:54:13:511
0.8236,2.0782,7.6614,19.32,-29.34,-10.56,218.0,-15.09,-6.14,32057,2018-07-07 14:54:13:534
0.8236,2.0782,7.6614,19.32,-29.34,-10.56,218.0,-15.09,-6.14,32081,2018-07-07 14:54:13:558
-0.2586,2.1356,9.8833,19.32,-29.34,-10.56,218.0,-15.09,-6.14,32105,2018-07-07 14:54:13:582
-0.2586,2.1356,9.8833,19.32,-29.34,-10.56,218.0,-15.09,-6.14,32130,2018-07-07 14:54:13:607
-0.2586,2.1356,9.8833,19.32,-29.34,-10.56,218.0,-15.09,-6.14,32154,2018-07-07 14:54:13:631
-0.2586,2.1356,9.8833,19.32,-29.34,-10.56,218.0,-15.09,-6.14,32178,2018-07-07 14:54:13:655
0.6129,1.8387,11.722,19.32,-29.34,-10.56,218.0,-15.09,-6.14,32202,2018-07-07 14:54:13:679
0.6129,1.8387,11.722,19.32,-29.34,-10.56,218.0,-15.09,-6.14,32226,2018-07-07 14:54:13:703
0.6129,1.8387,11.722,19.32,-29.34,-10.56,218.0,-15.09,-6.14,32249,2018-07-07 14:54:13:726
0.6129,1.8387,11.722,9.84,-36.42,-6.96,196.67,-8.9,-2.99,32273,2018-07-07 14:54:13:750
