sep=;
ACCELEROMETER X (m/s²);ACCELEROMETER Y (m/s²);ACCELEROMETER Z (m/s²);GRAVITY X (m/s²);GRAVITY Y (m/s²);GRAVITY Z (m/s²);LINEAR ACCELERATION X (m/s²);LINEAR ACCELERATION Y (m/s²);LINEAR ACCELERATION Z (m/s²);GYROSCOPE X (rad/s);GYROSCOPE Y (rad/s);GYROSCOPE Z (rad/s);LIGHT (lux);MAGNETIC FIELD X (μT);MAGNETIC FIELD Y (μT);MAGNETIC FIELD Z (μT);ORIENTATION Z (azimuth °);ORIENTATION X (pitch °);ORIENTATION Y (roll °);PROXIMITY (i);ATMOSPHERIC PRESSURE (hPa);SOUND LEVEL (dB);LOCATION Latitude : ;LOCATION Longitude : ;LOCATION Altitude ( m);LOCATION Altitude-google ( m);LOCATION Altitude-atmospheric pressure ( m);LOCATION Speed ( Kmh);LOCATION Accuracy ( m);LOCATION ORIENTATION (°);Satellites in range;Time since start in ms ;YYYY-MO-DD HH-MI-SS_SSS
-1.9298;7.7096;4.1253;1.0776;9.4103;2.5407;-0.9196;-1.6433;-0.958;-0.1819;0.948;0.4026;2675.0;26.58;-15.9;-34.02;292.01;-73.66;-22.98;8.0;996.09;55.35;23.03118;72.53861;9.17;175.91839429626737;;2.45;6.451613;314.91;0 / 0;31;2018-06-12 12:20:07:947
-0.6465;11.1118;5.8468;0.8907;9.5423;2.0786;0.0454;2.4362;2.3963;0.4699;0.1869;-0.5522;1919.0;27.54;-18.6;-27.24;283.95;-76.67;-23.2;8.0;996.1;52.265;23.03118;72.53861;9.17;175.91839429626737;;2.45;6.451613;314.91;0 / 1;532;2018-06-12 12:20:08:448
-0.3136;12.4454;2.7055;0.6072;9.6562;1.5997;-0.6622;2.8443;2.1258;-0.1471;-0.1613;0.0165;1417.0;29.94;-19.32;-24.24;282.78;-79.95;-20.78;8.0;996.11;54.975;23.031;72.538376;;175.91839429626737;;;206.77419;;0 / 1;1032;2018-06-12 12:20:08:948
1.1014;11.0472;2.7223;0.4278;9.6486;1.7006;0.3671;0.8479;1.0456;0.137;-0.0294;0.0617;1498.0;31.62;-19.56;-20.7;283.65;-79.7;-14.12;8.0;996.1;55.727;23.031;72.538376;;NaN;;;206.77419;;0 / 1;1532;2018-06-12 12:20:09:448
0.5986;7.6976;0.0886;0.2033;9.663;1.6597;0.5341;-2.6478;-1.8009;-0.0542;-0.1821;0.0831;1529.0;29.76;-18.3;-24.42;297.21;-80.18;-6.99;8.0;996.1;54.39;23.031;72.538376;;NaN;;;206.77419;;0 / 10;2031;2018-06-12 12:20:09:947
0.8763;6.9171;-0.7255;0.3599;9.6684;1.6006;0.5164;-2.7514;-2.3261;0.1773;0.1551;-0.0452;1571.0;29.1;-19.02;-23.88;292.11;-80.37;-12.67;8.0;996.12;55.291;23.031;72.538376;;NaN;;;206.77419;;0 / 10;2531;2018-06-12 12:20:10:447
-0.6488;7.1661;0.3639;-0.3598;9.7704;0.7617;-0.4232;-2.4271;0.7706;0.3727;0.0641;-0.0977;1150.0;29.28;-19.56;-23.28;332.38;-85.07;25.28;8.0;996.13;55.252;23.031153;72.537636;51.01;NaN;;3.16;103.22581;309.73;9 / 10;3031;2018-06-12 12:20:10:947
-0.0958;9.218;-1.4414;0.2916;9.7531;0.9813;-0.3874;-0.5351;-2.4227;0.3679;-0.6268;0.0739;1065.0;29.28;-20.76;-22.8;288.54;-84.01;-16.55;8.0;996.13;53.19;23.031153;72.537636;51.01;NaN;;3.16;103.22581;309.73;9 / 10;3531;2018-06-12 12:20:11:447
-0.0239;11.107;5.356;1.0771;9.5532;1.9353;0.9508;2.4301;1.9674;-0.2858;-0.2273;-0.2731;1051.0;25.44;-19.92;-27.12;280.72;-76.95;-29.1;8.0;996.14;54.292;23.031153;72.537636;51.01;NaN;;3.16;103.22581;309.73;0 / 10;4031;2018-06-12 12:20:11:947
0.5028;13.4127;2.6648;0.4208;9.7227;1.2087;0.6494;3.3452;-0.0667;0.0129;0.1179;-0.223;1024.0;27.0;-21.36;-25.92;290.61;-82.5;-19.2;8.0;996.16;54.824;23.031153;72.537636;51.01;NaN;;3.16;103.22581;309.73;0 / 10;4532;2018-06-12 12:20:12:448
1.1133;11.4686;2.5475;0.1601;9.6781;1.5746;0.9532;1.7905;0.9729;-0.0023;-0.3293;0.0305;1086.0;29.52;-20.46;-23.34;296.95;-80.71;-5.81;8.0;996.15;55.402;23.031153;72.537636;51.01;NaN;;3.16;103.22581;309.73;0 / 11;5031;2018-06-12 12:20:12:947
0.4118;8.8468;-0.577;-0.2511;9.7671;0.8429;0.9239;-1.9761;-1.2284;-0.075;0.0213;-0.0464;1052.0;28.74;-20.94;-22.86;323.15;-84.85;16.59;8.0;996.14;54.573;23.031153;72.537636;51.01;NaN;;3.16;103.22581;309.73;0 / 11;5531;2018-06-12 12:20:13:447
0.0551;5.5715;-1.1852;0.1871;9.7764;0.7467;-0.132;-4.2049;-1.9318;0.1864;-0.2523;0.1521;989.0;29.46;-22.86;-21.0;289.05;-85.5;-14.06;8.0;996.14;54.527;23.031153;72.537636;51.01;NaN;;3.16;103.22581;309.73;0 / 11;6031;2018-06-12 12:20:13:947
-1.2666;8.2339;0.9122;-0.2775;9.7731;0.7619;-0.989;-1.5391;0.1503;0.3831;0.2834;-0.2688;830.0;29.1;-20.7;-23.04;326.87;-85.26;20.02;8.0;996.15;58.747;23.031153;72.537636;51.01;NaN;;3.16;103.22581;309.73;0 / 11;6531;2018-06-12 12:20:14:447
0.4382;9.0312;-0.6608;0.0694;9.7993;0.3739;-0.1724;-0.3898;0.5862;0.4894;-0.1106;0.2352;858.0;31.86;-23.7;-19.2;288.81;-87.78;-10.52;8.0;996.11;55.734;23.031153;72.537636;51.01;NaN;;3.16;103.22581;309.73;0 / 12;7031;2018-06-12 12:20:14:947
-0.6656;10.3002;2.2386;-0.1962;9.7989;0.3365;-1.5421;3.5947;3.0537;0.107;0.2871;-0.2511;982.0;32.4;-22.2;-20.22;331.59;-87.72;30.24;8.0;996.1;56.942;23.031153;72.537636;51.01;NaN;;3.16;103.22581;309.73;0 / 12;7532;2018-06-12 12:20:15:448
0.2442;11.6793;1.573;0.2122;9.79;0.5306;0.9945;1.9971;-0.3056;-0.2332;-0.6799;0.259;1310.0;31.38;-22.8;-20.76;291.7;-87.21;-10.8;8.0;996.1;57.51;23.031153;72.537636;51.01;NaN;;3.16;103.22581;309.73;0 / 12;8032;2018-06-12 12:20:15:948
0.8284;11.5524;1.3001;0.1476;9.7664;0.8754;0.6808;1.786;0.4247;-0.1874;-0.1723;0.234;1319.0;31.56;-21.6;-21.36;290.83;-84.81;-9.57;8.0;996.11;53.144;23.031153;72.537636;51.01;NaN;;3.16;103.22581;309.73;0 / 12;8532;2018-06-12 12:20:16:448
1.5252;8.1932;-0.9625;0.0266;9.7676;0.8732;1.4986;-1.5744;-1.8357;-0.2412;-0.113;0.0073;1353.0;31.02;-21.84;-22.32;300.98;-84.89;-1.74;8.0;996.09;55.662;23.031153;72.537636;51.01;NaN;;3.16;103.22581;309.73;0 / 12;9032;2018-06-12 12:20:16:948
1.1397;6.7423;-0.5172;0.1492;9.6971;1.4541;0.9904;-2.9548;-1.9712;-0.3065;-0.358;0.091;1623.0;31.86;-21.3;-21.66;294.15;-81.43;-5.86;8.0;996.09;55.317;23.031153;72.537636;51.01;NaN;;3.16;103.22581;309.73;0 / 12;9532;2018-06-12 12:20:17:448
-1.1493;8.2626;2.7391;0.2376;9.6913;1.4804;-0.5704;-0.4327;1.5627;0.1339;0.5381;-0.3525;1282.0;32.04;-21.96;-21.78;290.46;-81.21;-9.12;8.0;996.07;56.635;23.031153;72.537636;51.01;NaN;;3.16;103.22581;309.73;0 / 12;10031;2018-06-12 12:20:17:947
-0.8955;9.9961;-2.0926;0.1183;9.7442;1.0989;-2.2133;1.8082;2.3106;1.0844;0.5998;-0.171;863.0;34.98;-22.32;-17.46;286.13;-83.53;-6.15;8.0;996.08;56.954;23.031153;72.537636;51.01;NaN;;3.16;103.22581;309.73;0 / 12;10532;2018-06-12 12:20:18:448
-0.3208;12.7974;4.4653;0.0069;9.7737;0.8025;-0.9766;1.3405;3.8376;0.4118;0.0629;-0.0202;909.0;31.2;-22.8;-21.42;299.94;-86.13;-2.06;8.0;996.08;55.887;23.031153;72.537636;51.01;NaN;;3.16;103.22581;309.73;0 / 12;11042;2018-06-12 12:20:18:958
0.3974;11.2651;0.3998;0.0082;9.8033;0.2548;-0.6212;2.4961;0.5737;-0.5906;-0.3427;0.4142;838.0;32.58;-22.98;-20.58;299.85;-88.51;-1.85;8.0;996.09;53.6;23.031153;72.537636;51.01;NaN;;3.16;103.22581;309.73;0 / 12;11531;2018-06-12 12:20:19:447
-0.261;11.2675;0.419;-0.5266;9.7778;0.5352;1.0126;1.7626;1.2917;-0.6382;-0.5633;0.1845;1001.0;35.1;-21.24;-18.72;339.07;-85.84;41.41;8.0;996.07;51.919;23.031153;72.537636;51.01;NaN;;3.16;103.22581;309.73;0 / 12;12031;2018-06-12 12:20:19:947
0.1772;10.3241;-0.8332;-0.1268;9.8003;0.3292;0.2322;-0.1466;-1.3037;0.2536;0.3188;-0.1191;912.0;30.6;-22.68;-23.16;326.95;-87.94;21.07;8.0;996.07;53.834;23.031153;72.537636;51.01;NaN;;3.16;103.22581;309.73;0 / 12;12531;2018-06-12 12:20:20:447
-0.6369;10.7383;0.3927;0.5401;9.7392;1.0127;-0.1881;-0.993;-1.312;0.4906;0.1056;-0.6768;943.0;31.44;-22.68;-23.58;275.69;-83.28;-28.07;8.0;996.08;55.671;23.031153;72.537636;51.01;NaN;;3.16;103.22581;309.73;0 / 12;13031;2018-06-12 12:20:20:947
0.0934;6.206;0.3855;0.0987;9.8001;0.3434;-0.8362;-2.658;0.169;-0.1331;0.0232;0.2669;677.0;32.94;-23.4;-21.24;285.23;-87.91;-16.04;8.0;996.08;54.784;23.031153;72.537636;51.01;NaN;;3.16;103.22581;309.73;0 / 12;13531;2018-06-12 12:20:21:447
0.6273;8.799;0.4358;0.1537;9.8039;0.1733;1.46;-1.06;-2.376;-0.1263;0.2669;0.0721;875.0;35.22;-24.12;-17.64;254.85;-88.65;-41.58;8.0;996.08;54.142;23.031153;72.537636;51.01;NaN;;3.16;103.22581;309.73;0 / 12;14031;2018-06-12 12:20:21:947
2.5355;9.3449;-0.3544;0.2951;9.7969;0.3212;1.5868;-0.409;0.0882;-0.5545;-1.0006;0.4044;885.0;34.68;-23.76;-19.14;254.45;-87.45;-42.58;8.0;996.08;53.951;23.031153;72.537636;51.01;NaN;;3.16;103.22581;309.73;0 / 12;14531;2018-06-12 12:20:22:447
-1.4892;10.9993;6.0839;0.2765;9.7733;0.7591;-1.7657;1.226;5.3247;0.5401;0.0983;-0.1252;783.0;34.74;-22.92;-22.2;279.51;-85.27;-20.01;8.0;996.06;56.486;23.031153;72.537636;51.01;NaN;;3.16;103.22581;309.73;0 / 13;15031;2018-06-12 12:20:22:947
-0.996;14.3106;0.85;-0.1109;9.8033;-0.231;-0.8851;4.5073;1.081;0.2897;0.6768;-0.4099;941.0;35.16;-24.6;-21.42;96.22;-88.5;154.35;8.0;996.07;55.399;23.031153;72.537636;51.01;NaN;;3.16;103.22581;309.73;0 / 13;15531;2018-06-12 12:20:23:447
0.4286;13.7719;-0.1748;0.3555;9.7992;0.1357;-0.8008;3.7787;1.1429;-0.4104;0.7196;0.2083;821.0;34.86;-25.44;-21.84;231.76;-87.0;-69.0;8.0;996.08;53.954;23.031439;72.538315;102.66;NaN;;2.85;25.806452;266.84;10 / 13;16031;2018-06-12 12:20:23:947
1.5132;11.8517;1.2163;0.823;9.4849;2.3514;-1.2132;0.4777;-0.7137;1.1907;-0.4221;0.1301;1018.0;34.02;-21.48;-25.44;279.32;-75.28;-19.29;8.0;996.1;54.345;23.031439;72.538315;102.66;NaN;;2.85;25.806452;266.84;10 / 13;16532;2018-06-12 12:20:24:448
1.1756;8.9737;-0.5746;0.5789;9.694;1.3641;0.1394;-2.5184;-0.8637;-0.108;-0.2401;0.1814;926.0;33.48;-21.6;-24.96;279.45;-81.31;-23.0;8.0;996.08;54.601;23.031439;72.538315;102.66;NaN;;2.85;25.806452;266.84;12 / 13;17032;2018-06-12 12:20:24:948
0.7135;6.7638;-0.8691;0.2697;9.7667;0.8421;0.4271;-4.0252;-1.9099;-0.05;-0.1503;0.3739;1257.0;34.02;-23.76;-21.18;280.84;-84.83;-17.76;8.0;996.09;55.638;23.031439;72.538315;102.66;NaN;;2.85;25.806452;266.84;12 / 13;17532;2018-06-12 12:20:25:448
-1.1301;7.4606;-0.0024;0.2086;9.7596;0.9361;-1.3723;-2.8402;-1.5466;0.5132;-0.1967;-0.0367;1213.0;30.96;-22.44;-26.28;290.74;-82.07;-15.0;8.0;996.1;55.463;23.031439;72.538315;102.66;NaN;;2.85;25.806452;266.84;12 / 13;18031;2018-06-12 12:20:25:947
-1.7263;8.5954;1.4964;-0.1945;9.7884;0.5659;-1.3929;-0.4315;-0.8437;-0.4538;0.7935;0.3421;1102.0;32.34;-21.96;-23.1;323.46;-86.5;18.97;8.0;996.11;56.197;23.031439;72.538315;102.66;NaN;;2.85;25.806452;266.84;12 / 13;18532;2018-06-12 12:20:26:448
0.7183;8.7607;-0.7973;0.2015;9.7827;0.6538;0.5168;-1.0221;-1.4511;0.0673;-0.9041;-0.1026;1071.0;30.42;-22.68;-23.82;289.22;-86.0;-17.13;8.0;996.09;54.22;23.031439;72.538315;102.66;NaN;;2.85;25.806452;266.84;12 / 13;19031;2018-06-12 12:20:26:947
0.747;12.3209;1.0559;0.0703;9.7824;0.6851;0.6767;2.5385;0.3708;-0.6932;0.0476;0.2144;1485.0;31.5;-22.56;-22.8;297.71;-85.97;-5.86;8.0;996.09;55.71;23.031439;72.538315;102.66;NaN;;2.85;25.806452;266.84;12 / 13;19531;2018-06-12 12:20:27:447
1.1708;11.55;2.0543;0.4452;9.726;1.1734;1.0081;1.9581;2.2193;0.1333;0.4062;0.0043;1438.0;31.92;-22.5;-22.68;280.79;-82.65;-20.78;8.0;996.09;53.542;23.031439;72.538315;102.66;NaN;;2.85;25.806452;266.84;12 / 13;20031;2018-06-12 12:20:27:947
1.7167;11.9019;-0.7877;0.3509;9.7799;0.6335;1.282;-0.6385;-1.6774;0.2164;0.2071;-0.0861;1714.0;31.74;-22.8;-21.9;273.01;-85.77;-28.98;8.0;996.09;55.729;23.031439;72.538315;102.66;NaN;;2.85;25.806452;266.84;12 / 13;20531;2018-06-12 12:20:28:447
-0.3998;9.6034;-0.6417;0.176;9.769;0.8403;-0.5758;-0.1656;-1.4819;0.1229;0.248;-0.2217;1824.0;31.44;-22.44;-21.12;278.35;-84.02;-22.23;8.0;996.12;52.468;23.031439;72.538315;102.66;NaN;;2.85;25.806452;266.84;12 / 13;21031;2018-06-12 12:20:28:947
-1.1732;6.4885;0.1365;0.4778;9.7755;0.6181;-0.904;-3.9502;-0.4338;0.1211;-0.1253;0.4588;2010.0;29.28;-22.68;-23.76;278.01;-84.92;-28.49;8.0;996.11;52.919;23.031439;72.538315;102.66;NaN;;2.85;25.806452;266.84;12 / 13;21532;2018-06-12 12:20:29:448
0.1915;5.5763;0.4118;-0.2095;9.8013;0.2466;-0.4369;-3.5139;1.4869;-0.7708;0.0348;0.529;2461.0;31.38;-22.2;-21.78;345.44;-88.11;40.36;8.0;996.14;55.723;23.031439;72.538315;102.66;NaN;;2.85;25.806452;266.84;12 / 13;22031;2018-06-12 12:20:29:947
0.2155;8.0017;0.7757;-0.0933;9.8053;0.1331;1.3455;-1.296;-0.1163;-0.3243;-0.0911;-0.1613;2411.0;30.06;-23.04;-21.06;339.82;-89.05;35.04;8.0;996.13;52.748;23.031439;72.538315;102.66;NaN;;2.85;25.806452;266.84;12 / 13;22531;2018-06-12 12:20:30:447
-0.3304;10.4223;-0.4789;-0.172;9.7957;0.4289;-1.0012;1.5771;1.9079;0.8211;-0.0385;-0.1839;2774.0;33.96;-21.9;-21.12;322.62;-87.3;21.86;8.0;996.14;54.558;23.031439;72.538315;102.66;NaN;;2.85;25.806452;266.84;12 / 13;23031;2018-06-12 12:20:30:947
-0.3352;10.1158;2.8372;-0.219;9.8041;0.0497;-0.1449;2.9143;-0.5597;-0.2925;-0.1674;0.2633;2691.0;32.64;-21.48;-20.88;19.92;-88.69;77.21;8.0;996.15;54.645;23.031439;72.538315;102.66;NaN;;2.85;25.806452;266.84;12 / 13;23532;2018-06-12 12:20:31:448
-0.1628;12.4981;0.3855;-0.1177;9.7948;0.468;1.1759;2.1287;-0.0299;-0.6627;-0.3128;0.5223;2775.0;32.46;-21.48;-21.36;329.1;-87.24;26.63;8.0;996.17;55.346;23.031439;72.538315;102.66;NaN;;2.85;25.806452;266.84;12 / 13;24032;2018-06-12 12:20:31:948
-0.9146;12.7591;-1.2331;-0.3886;9.797;0.1952;-0.526;2.9621;-1.4283;0.2353;-0.2658;0.0367;2619.0;32.88;-21.36;-19.08;3.34;-87.46;63.33;8.0;996.18;57.145;23.031439;72.538315;102.66;NaN;;2.85;25.806452;266.84;12 / 13;24532;2018-06-12 12:20:32:448
0.2801;12.5556;-0.2466;-0.155;9.8001;0.322;0.2005;2.2814;-0.164;0.1608;0.5699;-0.0391;2668.0;32.82;-22.2;-18.9;324.93;-87.91;25.71;8.0;996.17;55.586;23.031439;72.538315;102.66;NaN;;2.85;25.806452;266.84;12 / 13;25031;2018-06-12 12:20:32:947
-0.1101;10.7383;0.5938;-0.0581;9.7126;1.3536;-0.1071;0.1566;-0.949;0.2732;0.0134;-0.2706;2786.0;34.32;-20.64;-17.28;294.81;-82.06;2.46;8.0;996.16;55.337;23.031439;72.538315;102.66;NaN;;2.85;25.806452;266.84;12 / 13;25531;2018-06-12 12:20:33:447
0.4789;7.3696;-0.2706;0.0791;9.7325;1.2012;0.8379;-3.3278;-1.3137;0.4619;-0.3238;-0.0269;3050.0;32.4;-20.88;-20.82;295.84;-82.95;-3.77;8.0;996.16;58.506;23.031439;72.538315;102.66;NaN;;2.85;25.806452;266.84;12 / 13;26031;2018-06-12 12:20:33:947
1.0176;5.0591;-0.4741;0.4451;9.7276;1.1604;0.57;-5.0659;-1.498;-0.2998;-0.3543;0.2773;2948.0;31.8;-22.62;-19.74;276.53;-82.72;-20.99;8.0;996.17;55.811;23.031439;72.538315;102.66;NaN;;2.85;25.806452;266.84;12 / 13;26532;2018-06-12 12:20:34:448
-0.9409;7.7886;1.3815;0.0315;9.6987;1.4504;-0.9724;-1.9102;-0.0689;-0.2564;-0.1442;-0.0367;2744.0;31.56;-20.16;-22.98;300.44;-81.49;-1.24;8.0;996.15;55.039;23.031439;72.538315;102.66;NaN;;2.85;25.806452;266.84;12 / 13;27032;2018-06-12 12:20:34:948
-2.5523;8.9546;1.6425;-0.2435;9.7855;0.5959;-2.3088;-0.8309;1.0465;-0.2552;0.5772;0.1784;2719.0;31.98;-21.6;-20.16;322.85;-86.24;22.23;8.0;996.15;56.56;23.031439;72.538315;102.66;NaN;;2.85;25.806452;266.84;12 / 13;27531;2018-06-12 12:20:35:447
1.4988;10.0919;-1.6425;-0.2835;9.8025;0.0038;1.2148;1.0268;-1.2895;-0.3829;-1.4081;0.5064;2055.0;32.4;-23.4;-18.36;29.1;-88.34;89.23;8.0;996.13;57.563;23.031439;72.538315;102.66;NaN;;2.85;25.806452;266.84;13 / 14;28032;2018-06-12 12:20:35:948
0.2035;11.8253;5.957;-0.0318;9.775;0.786;0.2353;2.0503;5.1709;-0.8856;0.4734;0.0599;2453.0;31.14;-21.72;-21.12;304.1;-85.4;2.32;8.0;996.12;56.557;23.031439;72.538315;102.66;NaN;;2.85;25.806452;266.84;13 / 14;28532;2018-06-12 12:20:36:448
1.415;14.1526;3.1317;-0.0136;9.7818;0.6969;3.1022;3.3077;0.8258;-0.2094;-0.639;0.121;2472.0;32.46;-22.92;-18.24;298.16;-85.92;1.12;8.0;996.1;54.811;23.031439;72.538315;102.66;NaN;;2.85;25.806452;266.84;13 / 14;29031;2018-06-12 12:20:36:947
0.3974;13.3936;0.0694;-0.4033;9.7932;0.3186;-0.6382;5.6092;1.2568;0.7484;0.5326;0.088;2964.0;32.22;-21.6;-19.92;353.49;-87.0;51.69;8.0;996.08;54.809;23.031439;72.538315;102.66;NaN;;2.85;25.806452;266.84;13 / 14;29531;2018-06-12 12:20:37:447
-0.6081;13.8126;3.0647;-0.4498;9.7517;0.9333;-0.041;4.3074;1.8967;-0.0652;-0.3873;-0.0067;2511.0;32.04;-20.76;-20.52;325.82;-85.11;24.15;8.0;996.08;52.97;23.031439;72.538315;102.66;NaN;;2.85;25.806452;266.84;12 / 14;30031;2018-06-12 12:20:37:947
-0.1341;6.5867;-0.9769;-0.389;9.7638;0.8287;0.2549;-3.1772;-1.8055;0.2817;0.0488;-0.11;3283.0;28.26;-19.8;-25.5;326.75;-82.85;17.28;8.0;996.06;54.447;23.031439;72.538315;102.66;NaN;;2.85;25.806452;266.84;12 / 14;30537;2018-06-12 12:20:38:453
-2.004;10.5899;-0.0359;-0.5131;9.7477;0.9431;-1.4909;0.8422;-0.979;0.1284;-0.1466;-0.697;3706.0;32.22;-20.82;-20.76;329.95;-83.71;28.55;8.0;996.06;53.436;23.031439;72.538315;102.66;NaN;;2.85;25.806452;266.84;14 / 15;31031;2018-06-12 12:20:38:947
-0.419;5.8133;-0.4429;-0.7198;9.7478;0.7954;0.3008;-3.9345;-1.2383;0.0979;-0.3666;0.3439;3006.0;31.92;-19.02;-22.44;345.82;-83.72;42.14;8.0;996.03;52.971;23.031439;72.538315;102.66;NaN;;2.85;25.806452;266.84;14 / 15;31531;2018-06-12 12:20:39:447
0.3017;6.443;-0.6608;-0.2278;9.7709;0.8041;0.2015;-4.7238;-0.2606;-0.0555;0.1307;0.0867;3591.0;29.04;-21.24;-21.3;319.77;-85.11;15.82;8.0;996.02;53.155;23.031439;72.538315;102.66;NaN;;2.85;25.806452;266.84;14 / 15;32031;2018-06-12 12:20:39:947
-0.2562;6.1437;-0.0192;-0.3282;9.7823;0.6073;0.0864;-3.0352;0.0846;-0.2546;-0.3446;0.1289;3599.0;30.6;-21.24;-23.58;335.18;-85.96;28.39;8.0;996.03;52.658;23.031439;72.538315;102.66;NaN;;2.85;25.806452;266.84;14 / 15;32531;2018-06-12 12:20:40:447
-1.2546;7.1876;3.3017;-0.1364;9.7812;0.693;-1.803;-0.8218;1.888;-0.7519;0.2248;0.3109;3475.0;28.98;-22.62;-22.56;307.25;-87.3;0.2;8.0;996.05;55.665;23.031439;72.538315;102.66;NaN;;2.85;25.806452;266.84;14 / 15;33031;2018-06-12 12:20:40:947
0.9721;9.0959;0.2849;0.0871;9.7944;0.4827;0.885;-0.6985;-0.1978;-0.1062;-0.5938;-0.1527;2727.0;29.46;-22.86;-22.44;295.29;-87.13;-10.23;8.0;996.06;54.791;23.031439;72.538315;102.66;NaN;;2.85;25.806452;266.84;14 / 15;33531;2018-06-12 12:20:41:447
-0.1532;11.2818;0.7279;0.0806;9.7658;0.89;-0.8946;2.6413;0.762;-0.0738;-0.1014;0.2505;2739.0;30.48;-21.96;-21.9;298.25;-84.77;-5.17;8.0;996.08;53.343;23.031492;72.53821;32.33;NaN;;1.65;12.903226;;20 / 21;34031;2018-06-12 12:20:41:947
-1.3216;12.5795;4.0846;-0.0643;9.7397;1.1418;-1.6284;4.7313;3.5869;0.1229;0.5662;-0.5614;3423.0;31.8;-20.82;-21.18;303.24;-83.3;3.22;8.0;996.11;57.965;23.031492;72.53821;32.33;NaN;;1.65;12.903226;;20 / 21;34532;2018-06-12 12:20:42:448
1.7406;12.7136;3.7542;0.0058;9.6924;1.4923;-0.1926;4.9605;1.1534;-0.9229;0.1851;0.4826;3378.0;32.1;-19.86;-22.08;300.07;-81.25;-0.22;8.0;996.12;59.59;23.031492;72.53821;32.33;NaN;;1.65;12.903226;;19 / 20;35032;2018-06-12 12:20:42:948
1.7957;12.1869;-0.9098;-0.016;9.7664;0.8872;0.2841;3.043;0.7577;0.2701;-0.2755;0.2242;3470.0;32.88;-22.32;-19.14;298.22;-84.81;1.03;8.0;996.14;65.083;23.031492;72.53821;32.33;NaN;;1.65;12.903226;;19 / 20;35532;2018-06-12 12:20:43:448
0.1149;14.72;0.8236;-0.2704;9.7714;0.7852;0.098;5.6118;0.2276;-0.039;0.6566;-0.1576;3289.0;30.3;-21.36;-21.72;309.96;-84.9;6.03;8.0;996.17;67.444;23.031492;72.53821;32.33;NaN;;1.65;12.903226;;20 / 21;36032;2018-06-12 12:20:43:948
0.735;11.1693;0.1676;-0.2105;9.7855;0.6077;0.9456;1.3838;-0.4401;-0.4996;-0.2603;0.121;3812.0;31.32;-21.18;-20.58;321.86;-86.24;19.11;8.0;996.21;56.866;23.031492;72.53821;32.33;NaN;;1.65;12.903226;;20 / 21;36531;2018-06-12 12:20:44:447
0.7901;8.3824;-1.1828;-0.0692;9.7887;0.5885;0.8593;-1.4064;-1.7712;7.0E-4;0.2199;0.0434;3804.0;29.46;-20.76;-22.5;312.36;-86.54;6.71;8.0;996.25;61.904;23.031492;72.53821;32.33;NaN;;1.65;12.903226;;19 / 20;37031;2018-06-12 12:20:44:947
-0.1437;8.9115;0.5076;-0.1152;9.7445;1.0957;1.0394;-3.5673;-1.5578;0.176;0.2633;-0.2608;3709.0;32.04;-19.08;-21.78;307.83;-83.55;6.0;8.0;996.26;59.729;23.031492;72.53821;32.33;NaN;;1.65;12.903226;;19 / 20;37532;2018-06-12 12:20:45:448
-0.5028;5.6888;0.7757;-0.3283;9.7584;0.9139;-0.0117;-3.8901;-0.0328;-0.2455;-0.1686;0.2584;4099.0;29.82;-18.6;-24.48;326.75;-84.32;19.76;8.0;996.25;57.368;23.031492;72.53821;32.33;NaN;;1.65;12.903226;;20 / 21;38032;2018-06-12 12:20:45:948
-0.1772;6.3664;1.6137;-0.2394;9.6886;1.4977;0.5794;-4.1052;-0.8872;-0.254;-0.0929;0.0953;3862.0;30.36;-19.08;-24.06;324.55;-83.78;17.84;8.0;996.24;63.038;23.031492;72.53821;32.33;NaN;;1.65;12.903226;;20 / 21;38531;2018-06-12 12:20:46:447
-1.1421;10.3002;1.4845;-0.6887;9.7575;0.6986;-0.4534;0.5427;0.7859;0.1932;0.1692;-0.256;3927.0;29.4;-19.02;-23.88;353.86;-84.26;44.59;8.0;996.23;61.252;23.031492;72.53821;32.33;NaN;;1.65;12.903226;;20 / 21;39031;2018-06-12 12:20:46:947
-0.2131;11.3944;0.8643;0.1011;9.7123;1.3533;-0.3141;1.6821;-0.4889;0.096;-0.6818;-0.2498;3434.0;28.74;-19.32;-25.02;302.91;-82.05;-4.27;8.0;996.21;57.294;23.031492;72.53821;32.33;NaN;;1.65;12.903226;;20 / 21;39532;2018-06-12 12:20:47:448
0.4382;9.5963;-0.0192;0.0064;9.765;0.9029;0.4389;0.6334;0.9766;0.0398;-0.4392;0.3354;3073.0;27.3;-20.76;-25.26;309.95;-84.72;-0.41;8.0;996.19;56.063;23.031492;72.53821;32.33;NaN;;1.65;12.903226;;20 / 22;40032;2018-06-12 12:20:47:948
-1.2881;13.1494;4.8149;-0.2156;9.7893;0.5419;0.4023;2.8118;-1.5882;-0.6957;-0.1246;0.0568;3101.0;30.42;-20.16;-22.2;326.9;-86.59;21.69;8.0;996.2;56.466;23.031492;72.53821;32.33;NaN;;1.65;12.903226;;20 / 22;40532;2018-06-12 12:20:48:448
-1.0918;14.5117;4.9514;-0.3622;9.6987;1.4051;-0.7296;4.813;3.5462;-0.1489;0.2468;-0.5693;3759.0;33.96;-20.46;-18.66;309.98;-81.49;14.45;8.0;996.2;55.426;23.031492;72.53821;32.33;NaN;;1.65;12.903226;;20 / 21;41031;2018-06-12 12:20:48:947
-0.7781;11.7272;-0.0934;-0.4555;9.7831;-0.5039;-0.3226;1.9441;0.4105;-0.2479;-0.3562;0.1741;3265.0;32.4;-23.1;-14.94;75.54;-86.03;137.89;8.0;996.17;56.84;23.031492;72.53821;32.33;NaN;;1.65;12.903226;;20 / 21;41531;2018-06-12 12:20:49:447
2.1812;10.4031;1.0702;0.7429;9.7019;1.2211;1.4382;0.7012;-0.1509;0.5676;0.1655;-0.3793;4290.0;29.46;-23.7;-21.42;268.94;-81.62;-31.32;8.0;996.14;53.652;23.031492;72.53821;32.33;NaN;;1.65;12.903226;;20 / 21;42031;2018-06-12 12:20:49:947
2.1429;9.886;-0.8069;0.2704;9.8003;0.2244;1.8725;0.0856;-1.0313;0.1913;0.003;-0.3201;4384.0;30.54;-23.88;-20.16;251.27;-87.95;-50.31;8.0;996.14;52.828;23.031492;72.53821;32.33;NaN;;1.65;12.903226;;20 / 21;42531;2018-06-12 12:20:50:447
-0.2203;9.637;-0.419;0.2455;9.7654;0.8644;-0.6501;-1.7733;-0.3185;0.2811;0.2785;-0.0971;4416.0;31.38;-22.44;-18.9;282.48;-84.74;-15.85;8.0;996.13;54.767;23.031555;72.538086;18.07;NaN;;4.76;12.903226;308.52;20 / 21;43031;2018-06-12 12:20:50:947
0.2227;8.0496;-0.1173;0.2475;9.7081;1.3645;0.2026;-3.6075;-0.73;-0.0518;-0.0776;0.0586;4823.0;29.88;-21.48;-21.96;291.48;-81.87;-10.28;8.0;996.13;52.228;23.031555;72.538086;18.07;NaN;;4.76;12.903226;308.52;20 / 21;43531;2018-06-12 12:20:51:447
0.5267;6.4023;-0.2682;0.3594;9.6985;1.4075;0.1674;-3.2962;-1.6757;-0.1434;-0.0868;-0.0263;4582.0;29.52;-21.72;-22.98;288.18;-82.08;-14.72;8.0;996.16;55.391;23.031555;72.538086;18.07;NaN;;4.76;12.903226;308.52;20 / 22;44031;2018-06-12 12:20:51:947
-1.4102;8.5093;2.3296;-0.0978;9.5931;2.0332;-1.0538;-2.0679;-0.1082;-0.334;0.0702;0.1662;5492.0;30.18;-19.2;-24.48;301.26;-78.71;-2.09;8.0;996.15;54.372;23.031555;72.538086;18.07;NaN;;4.76;12.903226;308.52;20 / 22;44531;2018-06-12 12:20:52:447
-2.2243;8.3033;3.0623;-0.2125;9.4866;2.4757;-2.0118;-1.1833;0.5866;-0.6761;0.0183;0.1906;7160.0;31.2;-17.7;-24.3;306.24;-75.32;4.91;8.0;996.17;62.649;23.031555;72.538086;18.07;NaN;;4.76;12.903226;308.52;20 / 21;45031;2018-06-12 12:20:52:947
-0.1389;10.0703;1.7143;-0.6588;9.4373;2.5831;0.6492;0.7527;-0.8042;-0.0732;-0.4215;-0.391;6846.0;33.06;-15.6;-24.48;314.82;-74.23;14.31;8.0;996.2;61.353;23.031555;72.538086;18.07;NaN;;4.76;12.903226;308.52;20 / 21;45531;2018-06-12 12:20:53:447
-0.3783;10.6186;6.3209;-0.4427;9.3354;2.9706;0.2918;2.0278;1.0638;-0.8001;0.1325;0.3409;6353.0;31.62;-15.36;-26.4;311.23;-72.17;8.48;8.0;996.2;61.78;23.031555;72.538086;18.07;NaN;;4.76;12.903226;308.52;20 / 21;46031;2018-06-12 12:20:53:947
1.0678;14.1358;2.6289;-0.3269;9.4532;2.5885;0.8225;4.0673;0.7611;0.6641;-0.6561;-0.0055;5519.0;32.16;-17.04;-22.14;305.11;-74.57;7.2;8.0;996.2;65.712;23.031555;72.538086;18.07;NaN;;4.76;12.903226;308.52;20 / 21;46531;2018-06-12 12:20:54:447
-0.8979;12.8118;4.8771;-0.2088;9.4438;2.6347;-0.6363;3.3081;2.6231;-0.174;-0.3464;-0.1472;4516.0;28.86;-14.58;-27.66;313.17;-74.37;4.53;8.0;996.18;61.747;23.031555;72.538086;18.07;NaN;;4.76;12.903226;308.52;19 / 20;47031;2018-06-12 12:20:54:947
1.0463;11.5189;4.5012;0.2007;9.4816;2.4958;0.8456;2.0373;2.0054;-0.3078;-0.3189;0.2279;4971.0;28.8;-16.92;-26.7;302.02;-75.21;-4.6;8.0;996.19;64.169;23.031555;72.538086;18.07;NaN;;4.76;12.903226;308.52;19 / 20;47531;2018-06-12 12:20:55:447
1.0247;9.1557;1.7047;0.2696;9.621;1.8798;0.7551;-0.4653;-0.1751;0.0533;0.0018;-0.0128;3518.0;28.14;-19.2;-26.58;300.58;-78.83;-8.16;8.0;996.19;57.614;23.031555;72.538086;18.07;NaN;;4.76;12.903226;308.52;19 / 20;48034;2018-06-12 12:20:55:950
0.9649;6.6681;-0.4477;0.2473;9.5253;2.3188;0.7176;-2.8573;-2.7665;-0.0634;-0.0373;0.0244;3701.0;29.76;-18.12;-24.66;297.32;-76.24;-6.09;8.0;996.16;64.514;23.031555;72.538086;18.07;NaN;;4.76;12.903226;308.52;19 / 20;48531;2018-06-12 12:20:56:447
-0.2849;5.8708;1.9394;0.0117;9.5801;2.0955;-0.73;-2.7947;-1.1833;-0.1227;-0.0965;0.179;2807.0;28.92;-16.8;-27.18;307.77;-77.66;-0.32;8.0;996.19;56.456;23.031555;72.538086;18.07;NaN;;4.76;12.903226;308.52;20 / 21;49031;2018-06-12 12:20:56:947
-1.1445;8.0184;5.0735;-0.0353;9.5955;2.0237;-1.5018;1.1428;0.8662;-0.8026;0.5394;0.1961;2288.0;30.66;-16.8;-25.62;306.33;-78.09;1.0;8.0;996.18;66.7;23.031555;72.538086;18.07;NaN;;4.76;12.903226;308.52;20 / 21;49532;2018-06-12 12:20:57:448
0.7063;9.352;1.2546;0.0341;9.5399;2.2714;0.6722;-0.1879;-1.0168;-0.3762;-1.0697;-0.2779;2094.0;28.2;-15.72;-28.68;310.28;-76.61;-0.86;8.0;996.18;55.34;23.031555;72.538086;18.07;NaN;;4.76;12.903226;308.52;20 / 21;50031;2018-06-12 12:20:57:947
-0.6201;11.3129;6.5388;0.1789;9.449;2.618;0.1156;1.6724;3.1306;-0.2222;0.518;-0.1313;1621.0;27.66;-14.16;-30.18;307.8;-74.48;-3.91;8.0;996.17;58.591;23.031555;72.538086;18.07;NaN;;4.76;12.903226;308.52;20 / 21;50532;2018-06-12 12:20:58:448
0.9218;10.8676;3.7949;0.1619;9.4368;2.6627;0.4702;0.9615;0.56;0.7771;-0.3641;-0.4215;2434.0;26.82;-14.16;-31.14;310.23;-74.22;-3.48;8.0;996.18;57.941;23.031555;72.538086;18.07;NaN;;4.76;12.903226;308.52;19 / 20;51032;2018-06-12 12:20:58:948
0.0551;11.5069;2.9282;0.3942;9.3944;2.7857;-0.3942;2.0861;0.528;0.2836;0.2419;-0.1826;2422.0;25.68;-15.0;-31.56;306.74;-73.33;-8.05;8.0;996.14;64.231;23.031555;72.538086;18.07;NaN;;4.76;12.903226;308.52;19 / 20;51531;2018-06-12 12:20:59:447
0.328;9.6489;3.6561;0.3144;9.1916;3.4038;-0.6376;0.012;-1.0334;0.1455;0.1759;-0.022;1942.0;25.8;-12.78;-32.82;309.72;-69.6;-5.28;8.0;996.14;54.874;23.03162;72.53799;19.06;NaN;;3.85;9.677419;312.41;20 / 22;52031;2018-06-12 12:20:59:947
0.3927;7.6162;1.0487;0.58;9.2746;3.133;-0.8195;-2.7478;-0.71;0.1522;0.2003;0.2718;1565.0;26.22;-16.92;-30.12;299.98;-71.04;-10.49;8.0;996.13;50.255;23.03162;72.53799;19.06;NaN;;3.85;9.677419;312.41;20 / 22;52531;2018-06-12 12:21:00:447
-0.0958;7.5372;1.0056;0.6724;9.0069;3.8203;-0.7682;-1.4697;-2.8147;0.3837;0.8918;0.0916;1553.0;32.46;-21.48;-19.26;276.21;-66.7;-9.98;8.0;996.15;59.346;23.03162;72.53799;19.06;NaN;;3.85;9.677419;312.41;20 / 21;53032;2018-06-12 12:21:00:948
-0.6848;6.9697;3.103;0.7942;8.8726;4.1007;-2.7743;-1.0984;2.7517;0.3404;1.1527;0.7715;1306.0;32.46;-28.5;-6.36;249.61;-64.79;-10.96;8.0;996.16;66.435;23.03162;72.53799;19.06;NaN;;3.85;9.677419;312.41;20 / 21;53532;2018-06-12 12:21:01:448
-0.486;9.9171;5.4326;0.116;9.0159;3.8561;-1.0953;1.6913;2.2277;-0.7274;1.3176;0.6958;1077.0;17.76;-36.84;16.56;209.68;-66.83;-1.72;8.0;996.16;53.099;23.03162;72.53799;19.06;NaN;;3.85;9.677419;312.41;19 / 20;54031;2018-06-12 12:21:01:947
0.352;9.3137;1.8029;0.2929;9.3412;2.971;-0.2283;0.0348;2.3251;1.03;0.1924;-0.2993;1066.0;8.1;-36.42;25.32;188.84;-72.28;-5.63;8.0;996.15;51.984;23.03162;72.53799;19.06;NaN;;3.85;9.677419;312.41;19 / 20;54531;2018-06-12 12:21:02:447
0.917;12.3185;7.008;0.2916;9.5179;2.3441;0.398;3.8398;0.3207;-0.3707;0.0433;-0.0764;952.0;7.44;-33.96;27.96;185.54;-76.06;-7.09;8.0;996.12;50.761;23.03162;72.53799;19.06;NaN;;3.85;9.677419;312.41;20 / 21;55031;2018-06-12 12:21:02:947
0.8619;12.8046;2.7295;0.3737;9.5252;2.3025;0.4883;3.2794;0.427;-0.3731;-0.1925;-0.2266;1147.0;6.54;-33.18;28.62;183.53;-76.24;-9.22;8.0;996.13;59.941;23.03162;72.53799;19.06;NaN;;3.85;9.677419;312.41;20 / 21;55531;2018-06-12 12:21:03:447
-0.1125;12.0911;3.0695;0.1324;9.4518;2.6108;-0.2449;2.6393;0.4587;0.5444;0.4868;-0.1228;1196.0;8.94;-33.84;26.22;192.53;-74.54;-2.9;8.0;996.12;55.551;23.03162;72.53799;19.06;NaN;;3.85;9.677419;312.41;20 / 21;56031;2018-06-12 12:21:03:947
0.3328;9.4047;1.9106;0.0674;9.4356;2.6711;0.2654;-0.0309;-0.7605;0.6153;-0.1747;-0.0324;1296.0;9.48;-33.78;27.18;193.2;-74.19;-1.45;8.0;996.12;53.51;23.03162;72.53799;19.06;NaN;;3.85;9.677419;312.41;20 / 21;56532;2018-06-12 12:21:04:448
0.5387;7.4007;2.2554;0.1117;9.4001;2.7922;0.3049;-2.2364;-0.3453;0.3868;0.1802;-0.0751;1080.0;12.12;-34.2;25.86;197.35;-73.44;-2.29;8.0;996.12;57.39;23.03162;72.53799;19.06;NaN;;3.85;9.677419;312.41;21 / 22;57031;2018-06-12 12:21:04:947
0.5746;7.2116;1.2857;0.2097;9.3433;2.9714;0.0489;-1.8803;-0.7112;-0.0567;-0.1448;0.08;1079.0;12.96;-35.16;24.96;197.63;-72.32;-4.04;8.0;996.13;60.937;23.03162;72.53799;19.06;NaN;;3.85;9.677419;312.41;21 / 22;57531;2018-06-12 12:21:05:447
-0.5579;8.3201;3.0551;0.376;9.3888;2.807;-0.1557;-0.9226;2.0031;-0.2882;0.3732;-0.1802;1300.0;13.44;-33.42;25.26;195.33;-73.21;-7.63;8.0;996.11;62.641;23.03162;72.53799;19.06;NaN;;3.85;9.677419;312.41;20 / 21;58032;2018-06-12 12:21:05:948
-0.2322;9.5172;3.2179;0.5238;9.2448;3.2294;-0.8087;0.4017;1.7531;-0.0109;-0.3666;-0.0122;2093.0;12.66;-36.12;24.18;193.91;-70.51;-9.21;8.0;996.12;65.428;23.03162;72.53799;19.06;NaN;;3.85;9.677419;312.41;20 / 21;58531;2018-06-12 12:21:06:447
0.7662;11.1717;2.3943;0.2004;9.3626;2.9107;0.5658;1.8091;-0.5164;0.0575;-0.3256;-0.0452;2615.0;14.34;-34.14;24.42;199.97;-72.69;-3.94;8.0;996.12;64.879;23.03162;72.53799;19.06;NaN;;3.85;9.677419;312.41;19 / 20;59031;2018-06-12 12:21:06:947
0.8835;10.5755;3.5962;0.3824;9.3938;2.7894;1.1595;1.469;-1.336;-0.2015;-0.1069;0.0825;2626.0;13.62;-33.6;25.02;196.52;-73.32;-7.81;8.0;996.15;64.334;23.03162;72.53799;19.06;NaN;;3.85;9.677419;312.41;19 / 20;59531;2018-06-12 12:21:07:447
1.324;11.4614;3.7255;0.4934;9.3509;2.9135;0.3565;2.0746;0.7019;0.3715;0.1545;0.0922;3204.0;14.34;-34.44;24.3;195.62;-72.46;-9.61;8.0;996.12;62.046;23.03162;72.53799;19.06;NaN;;3.85;9.677419;312.41;20 / 21;60031;2018-06-12 12:21:07:947
1.6688;9.4095;1.4414;0.6555;9.2922;3.0653;1.2982;-0.7877;-1.1356;0.3343;0.0012;-0.1271;2431.0;16.44;-34.8;21.24;198.41;-71.36;-12.07;8.0;996.1;57.533;23.03162;72.53799;19.06;NaN;;3.85;9.677419;312.41;20 / 21;60532;2018-06-12 12:21:08:448
1.19;8.277;1.0678;0.3231;9.2683;3.1883;-0.3279;-1.3911;-2.0391;0.3141;0.058;-0.1796;2406.0;14.04;-34.8;23.1;198.65;-70.93;-5.79;8.0;996.12;51.635;23.03162;72.53799;19.06;NaN;;3.85;9.677419;312.41;21 / 22;61031;2018-06-12 12:21:08:947
0.2993;7.4606;1.7933;0.2655;9.1592;3.4941;0.448;-2.2756;-2.4143;0.0215;-0.1167;-0.036;2601.0;17.76;-34.68;21.72;205.41;-69.06;-4.34;8.0;996.12;56.65;23.03162;72.53799;19.06;NaN;;3.85;9.677419;312.41;21 / 22;61531;2018-06-12 12:21:09:447
0.4717;7.5013;1.3959;0.2401;9.1453;3.5322;0.2316;-1.644;-2.1363;0.1736;-0.1607;0.077;2911.0;14.52;-35.34;21.06;202.24;-68.84;-3.89;8.0;996.12;54.078;23.031572;72.53792;19.2;NaN;;3.53;9.677419;211.43;18 / 19;62031;2018-06-12 12:21:09:947
-0.4908;7.688;2.7343;0.2388;9.3303;3.0097;-0.9906;-1.0246;0.608;-0.163;-0.2835;0.066;1962.0;15.06;-33.48;24.9;200.34;-72.07;-4.54;8.0;996.12;53.108;23.031572;72.53792;19.2;NaN;;3.53;9.677419;211.43;18 / 19;62531;2018-06-12 12:21:10:447
0.0623;9.0815;3.1964;0.2419;9.3517;2.9424;-0.1796;-0.2702;0.254;-0.4226;0.0837;0.2505;1669.0;14.28;-34.56;24.84;198.59;-72.48;-4.7;8.0;996.12;50.005;23.031572;72.53792;19.2;NaN;;3.53;9.677419;211.43;19 / 20;63031;2018-06-12 12:21:10:947
2.277;9.807;2.8252;0.7458;9.2417;3.1945;1.5311;0.5652;-0.3693;-0.0933;-0.4942;0.1197;1775.0;14.22;-35.1;22.68;193.21;-70.46;-13.14;8.0;996.12;55.454;23.031572;72.53792;19.2;NaN;;3.53;9.677419;211.43;19 / 20;63531;2018-06-12 12:21:11:447
-0.2706;11.2938;7.4653;0.4415;9.1782;3.4259;0.2074;2.7022;3.3523;-0.334;0.0055;0.1497;1532.0;12.78;-36.06;22.92;195.63;-69.38;-7.34;8.0;996.14;55.806;23.031572;72.53792;19.2;NaN;;3.53;9.677419;211.43;20 / 22;64031;2018-06-12 12:21:11:947
1.8699;12.0959;2.4781;0.3644;9.1682;3.4615;-0.2639;3.3276;4.2361;0.7228;0.2242;-0.1875;1774.0;11.76;-34.98;24.12;194.7;-69.21;-6.01;8.0;996.14;57.793;23.031572;72.53792;19.2;NaN;;3.53;9.677419;211.43;20 / 22;64531;2018-06-12 12:21:12:447
-0.0287;11.8086;3.9913;0.0846;9.4857;2.4868;-0.1133;3.3572;0.9035;0.4363;0.2345;-0.0519;1937.0;13.68;-34.44;25.68;197.73;-73.43;-5.5;8.0;996.15;56.932;23.031572;72.53792;19.2;NaN;;3.53;9.677419;211.43;20 / 21;65031;2018-06-12 12:21:12:947
1.0822;9.4598;2.4541;0.322;9.3062;3.076;-0.1161;1.6069;0.5226;0.1174;0.047;-0.2865;2225.0;11.1;-35.34;25.74;192.95;-71.06;-5.47;8.0;996.15;53.227;23.031572;72.53792;19.2;NaN;;3.53;9.677419;211.43;20 / 21;65532;2018-06-12 12:21:13:448
0.7518;8.3488;1.4126;0.1219;9.1363;3.5615;0.6299;-0.7874;-2.1488;0.4497;0.0824;-0.1014;3214.0;13.38;-35.64;21.72;199.81;-68.69;-1.96;8.0;996.15;55.036;23.031572;72.53792;19.2;NaN;;3.53;9.677419;211.43;20 / 21;66031;2018-06-12 12:21:13:947
1.0846;6.9458;0.7877;0.1972;9.1285;3.5779;0.7677;-2.5945;-2.7638;0.1424;-0.2181;0.088;2173.0;10.68;-35.58;24.0;195.01;-68.57;-3.16;8.0;996.16;52.792;23.031572;72.53792;19.2;NaN;;3.53;9.677419;211.43;20 / 21;66531;2018-06-12 12:21:14:447
0.7518;5.8325;2.8731;-0.0382;9.1779;3.4548;-0.388;-2.0812;-1.5992;-0.5362;-0.4637;0.5082;2071.0;13.68;-34.08;23.22;203.14;-69.37;0.63;8.0;996.17;52.657;23.031572;72.53792;19.2;NaN;;3.53;9.677419;211.43;21 / 22;67031;2018-06-12 12:21:14:947
0.3065;7.0392;4.5348;0.2801;9.3084;3.0732;-0.17;-1.7114;-1.4068;-0.692;0.0446;0.4691;2183.0;12.72;-34.74;24.18;197.18;-71.66;-5.21;8.0;996.16;51.184;23.031572;72.53792;19.2;NaN;;3.53;9.677419;211.43;21 / 22;67531;2018-06-12 12:21:15:447
1.5587;8.8349;3.0838;0.5707;9.3977;2.7437;0.5426;-1.0608;0.297;-0.48;-0.2853;-0.0831;1434.0;13.56;-32.7;25.5;192.96;-73.4;-11.75;8.0;996.15;50.135;23.031572;72.53792;19.2;NaN;;3.53;9.677419;211.43;20 / 21;68031;2018-06-12 12:21:15:947
-0.5411;10.7623;5.3273;0.3811;9.4546;2.576;-0.9797;0.7618;3.266;-0.3224;0.0818;0.2987;1460.0;14.88;-32.28;25.62;198.25;-75.43;-7.45;8.0;996.15;52.074;23.031572;72.53792;19.2;NaN;;3.53;9.677419;211.43;20 / 21;68531;2018-06-12 12:21:16:447
1.2714;10.2978;4.4318;0.7842;9.4281;2.5817;0.4871;0.8696;1.8501;-0.6975;-0.157;0.2419;1579.0;12.42;-32.94;25.98;186.16;-74.03;-16.9;8.0;996.15;49.531;23.031572;72.53792;19.2;NaN;;3.53;9.677419;211.43;21 / 22;69031;2018-06-12 12:21:16:947
1.3695;11.5069;0.668;0.3887;9.4554;2.5718;0.5139;1.5559;-0.7928;0.487;-0.2688;0.1539;1742.0;12.24;-33.3;27.42;192.2;-74.62;-8.6;8.0;996.15;50.048;23.031572;72.53792;19.2;NaN;;3.53;9.677419;211.43;21 / 22;69532;2018-06-12 12:21:17:448
0.8667;11.6481;3.8213;0.3059;9.3537;2.9299;0.4435;1.0949;-0.1813;0.4149;-0.1332;0.0562;2725.0;9.24;-34.26;26.22;189.91;-72.52;-5.96;8.0;996.16;50.807;23.031572;72.53792;19.2;NaN;;3.53;9.677419;211.43;20 / 21;70032;2018-06-12 12:21:17:948
2.3608;8.8636;3.3831;0.5465;9.278;3.1291;1.3018;-0.637;-0.1649;0.1791;0.2889;0.2114;3133.0;11.28;-34.86;24.6;190.17;-71.1;-9.91;8.0;996.17;51.422;23.031572;72.53792;19.2;NaN;;3.53;9.677419;211.43;20 / 21;70532;2018-06-12 12:21:18:448
0.0862;9.3042;3.3041;0.8282;9.2529;3.1415;-0.742;0.0513;0.1626;0.4399;0.2064;-0.0458;3450.0;12.36;-35.04;23.4;189.19;-70.65;-14.77;8.0;996.17;50.523;23.031475;72.53788;19.03;NaN;;3.34;9.677419;213.12;21 / 22;71031;2018-06-12 12:21:18:947
0.7997;7.2738;1.5347;0.5946;9.2312;3.256;0.2051;-1.9574;-1.7212;0.3428;0.0537;-0.2413;3351.0;15.42;-35.16;22.2;197.28;-70.27;-10.35;8.0;996.15;53.465;23.031475;72.53788;19.03;NaN;;3.34;9.677419;213.12;21 / 22;71531;2018-06-12 12:21:19:447
0.2801;7.2307;1.3097;0.5001;9.1674;3.4466;-0.2199;-1.9367;-2.1369;0.0783;-0.1179;-0.0922;3833.0;13.14;-34.5;21.96;195.86;-69.2;-8.26;8.0;996.16;53.498;23.031475;72.53788;19.03;NaN;;3.34;9.677419;213.12;20 / 21;72031;2018-06-12 12:21:19:947
-0.9601;7.1613;2.8372;0.2575;9.2178;3.3371;-0.9925;-0.9983;2.4044;-0.3255;0.3811;-0.0434;3302.0;15.66;-34.08;23.7;201.81;-70.04;-4.41;8.0;996.16;53.996;23.031475;72.53788;19.03;NaN;;3.34;9.677419;213.12;20 / 21;72531;2018-06-12 12:21:20:447
-0.7662;8.3967;6.0455;0.2747;9.1471;3.525;-1.139;0.0685;3.0664;-0.5295;0.1899;0.4722;3713.0;13.5;-34.8;22.8;199.16;-68.87;-4.46;8.0;996.16;58.049;23.031475;72.53788;19.03;NaN;;3.34;9.677419;213.12;20 / 21;73031;2018-06-12 12:21:20:947
0.3065;10.281;6.1389;0.1866;9.2115;3.3591;0.4886;1.4359;0.7901;-0.4092;0.1973;-0.1368;4340.0;12.48;-34.14;24.12;197.02;-69.94;-3.18;8.0;996.16;59.779;23.031475;72.53788;19.03;NaN;;3.34;9.677419;213.12;20 / 21;73531;2018-06-12 12:21:21:447
-0.0886;11.3106;5.5691;0.1402;9.1632;3.4909;-0.2288;2.1474;2.0781;-0.5704;0.1814;-0.1637;3436.0;14.7;-34.68;24.24;201.59;-69.13;-2.3;8.0;996.16;57.098;23.031475;72.53788;19.03;NaN;;3.34;9.677419;213.12;21 / 22;74031;2018-06-12 12:21:21:947
0.1939;12.0193;1.2402;0.2772;9.4056;2.7619;-0.0833;2.6137;-1.5217;0.812;-0.4881;-0.193;4004.0;12.12;-33.06;25.44;195.37;-73.56;-5.73;8.0;996.16;58.487;23.031475;72.53788;19.03;NaN;;3.34;9.677419;213.12;21 / 22;74531;2018-06-12 12:21:22:447
0.7494;11.1717;3.8069;0.2792;9.4842;2.4784;0.4846;1.1129;0.4354;0.4589;0.5736;-0.033;3344.0;13.02;-31.32;26.46;196.28;-75.27;-6.43;8.0;996.19;61.211;23.031475;72.53788;19.03;NaN;;3.34;9.677419;213.12;20 / 22;75031;2018-06-12 12:21:22:947
0.3567;10.0105;2.4541;0.5372;9.3699;2.8436;-0.1326;0.5089;-0.6457;0.4412;0.105;-0.212;3427.0;10.8;-33.18;27.42;188.89;-72.84;-10.7;8.0;996.19;56.025;23.031475;72.53788;19.03;NaN;;3.34;9.677419;213.12;20 / 22;75531;2018-06-12 12:21:23:447
0.9386;7.348;3.0312;0.6213;9.1918;3.3609;0.6476;-2.1095;-1.6418;0.1852;0.0268;-0.0086;3724.0;13.62;-34.62;23.64;194.37;-69.6;-10.47;8.0;996.17;60.149;23.031475;72.53788;19.03;NaN;;3.34;9.677419;213.12;20 / 21;76031;2018-06-12 12:21:23:947
1.0631;7.1756;1.348;0.8183;9.3183;2.9445;0.2831;-2.1809;-1.7259;0.1773;-0.1582;-0.022;2600.0;12.12;-34.56;24.6;188.61;-72.28;-14.13;8.0;996.18;58.405;23.031475;72.53788;19.03;NaN;;3.34;9.677419;213.12;20 / 21;76531;2018-06-12 12:21:24:447
0.2011;6.6824;2.2386;0.5204;9.2326;3.2648;-0.3193;-2.5502;-1.0261;-0.3157;-0.358;0.1497;2699.0;13.92;-34.14;23.88;195.66;-70.3;-9.06;8.0;996.18;51.829;23.031475;72.53788;19.03;NaN;;3.34;9.677419;213.12;20 / 22;77031;2018-06-12 12:21:24:947
-0.0263;8.4973;1.8412;0.2729;9.1755;3.4506;-0.2992;-0.6782;-1.6094;-0.1581;-0.4844;0.2676;4501.0;11.94;-35.46;23.4;196.31;-69.33;-4.52;8.0;996.18;52.729;23.031475;72.53788;19.03;NaN;;3.34;9.677419;213.12;20 / 22;77531;2018-06-12 12:21:25:447
1.925;10.0631;3.1509;0.6305;9.3003;3.0458;1.2945;0.7628;0.1051;-0.3334;-0.5437;-0.0116;3198.0;13.74;-34.92;24.9;193.14;-71.51;-11.7;8.0;996.18;53.841;23.031475;72.53788;19.03;NaN;;3.34;9.677419;213.12;20 / 21;78031;2018-06-12 12:21:25:947
-0.9529;10.9227;5.787;0.612;9.4104;2.6907;-0.0397;1.9289;2.8329;-0.3291;0.2675;0.2773;2910.0;11.52;-33.3;26.22;189.32;-73.66;-12.81;8.0;996.2;52.196;23.031475;72.53788;19.03;NaN;;3.34;9.677419;213.12;20 / 21;78531;2018-06-12 12:21:26:447
0.7111;11.7391;2.6457;0.6531;9.5006;2.3414;0.1059;2.5426;-0.3206;0.3074;-0.1045;-0.1075;2585.0;11.16;-32.28;27.54;184.76;-75.65;-15.58;8.0;996.2;50.161;23.031475;72.53788;19.03;NaN;;3.34;9.677419;213.12;20 / 21;79031;2018-06-12 12:21:26:947
1.0559;11.459;2.7654;0.4482;9.5207;2.3077;0.6077;1.9383;0.4577;-0.0842;-0.1955;0.2553;2414.0;12.36;-31.74;27.6;189.99;-76.13;-10.99;8.0;996.21;50.322;23.031475;72.53788;19.03;NaN;;3.34;9.677419;213.12;20 / 21;79532;2018-06-12 12:21:27:448
0.0862;12.3185;4.7095;0.7626;9.3996;2.6899;0.3675;2.1528;0.753;-0.2473;-0.212;-0.2346;2735.0;9.72;-33.66;26.82;183.47;-73.43;-15.83;8.0;996.21;53.632;23.031364;72.53783;18.8;NaN;;3.7;9.677419;209.13;20 / 21;80034;2018-06-12 12:21:27:950
0.9625;9.3544;1.0128;0.4939;9.4808;2.4579;0.4686;-0.1263;-1.4451;0.1253;0.4325;0.0269;2213.0;12.66;-32.52;27.24;191.5;-75.19;-11.36;8.0;996.21;54.224;23.031364;72.53783;18.8;NaN;;3.7;9.677419;209.13;20 / 21;80531;2018-06-12 12:21:28:447
0.7159;9.2299;2.1812;0.9112;9.3535;2.802;0.7983;-1.8188;-1.8658;0.0172;0.0947;-0.0385;2320.0;7.44;-34.5;26.7;177.36;-72.52;-18.01;8.0;996.23;57.342;23.031364;72.53783;18.8;NaN;;3.7;9.677419;209.13;20 / 22;81031;2018-06-12 12:21:28:947
0.3472;7.1421;1.324;0.7858;9.3588;2.8224;-0.757;-2.4345;-1.4121;-0.0255;-0.2425;-0.0916;2277.0;10.8;-34.2;26.58;185.07;-72.62;-15.56;8.0;996.24;56.53;23.031364;72.53783;18.8;NaN;;3.7;9.677419;209.13;20 / 22;81532;2018-06-12 12:21:29:448
0.0599;7.0823;1.4222;0.8947;9.3174;2.9249;-0.9378;-2.2519;-0.9951;-0.3902;0.011;0.0715;2055.0;9.6;-34.68;26.52;182.49;-71.83;-17.01;8.0;996.24;54.86;23.031364;72.53783;18.8;NaN;;3.7;9.677419;209.13;22 / 23;82031;2018-06-12 12:21:29:947
-0.8715;8.7726;5.8325;0.7598;9.3213;2.9507;-1.6313;-0.5487;2.8818;-0.1966;0.3775;-0.1442;2405.0;9.72;-35.16;25.92;184.92;-71.9;-14.44;8.0;996.25;56.208;23.031364;72.53783;18.8;NaN;;3.7;9.677419;209.13;22 / 23;82532;2018-06-12 12:21:30:448
-0.0407;9.9506;3.273;0.9841;9.4422;2.459;-1.0248;0.5084;0.814;0.0398;-0.5388;-0.1558;2070.0;10.2;-33.6;26.88;178.84;-74.33;-21.81;8.0;996.24;55.468;23.031364;72.53783;18.8;NaN;;3.7;9.677419;209.13;20 / 21;83031;2018-06-12 12:21:30:947
0.0072;10.5085;7.111;0.4459;9.4587;2.5502;-0.6782;2.3905;3.4044;-0.3591;-0.0452;0.1845;2467.0;13.5;-33.48;26.46;194.6;-74.69;-9.92;8.0;996.26;56.786;23.031364;72.53783;18.8;NaN;;3.7;9.677419;209.13;20 / 21;83532;2018-06-12 12:21:31:448
2.1716;12.6921;3.2442;0.5313;9.4267;2.6504;1.5254;3.0427;0.3256;-0.0451;0.0879;0.1045;2605.0;11.88;-32.82;26.4;190.51;-74.0;-11.33;8.0;996.27;61.042;23.031364;72.53783;18.8;NaN;;3.7;9.677419;209.13;20 / 22;84032;2018-06-12 12:21:31:948
-0.3591;12.0288;4.5156;0.672;9.4658;2.4732;-0.2195;2.0458;1.0728;-0.0048;-0.1625;-0.3146;2039.0;11.22;-32.46;26.76;185.56;-74.85;-15.2;8.0;996.29;61.37;23.031364;72.53783;18.8;NaN;;3.7;9.677419;209.13;20 / 22;84531;2018-06-12 12:21:32:447
2.7917;9.9985;3.0335;0.6411;9.396;2.734;1.8178;-0.3504;-0.7204;0.0056;0.3769;0.1906;1773.0;13.98;-32.94;25.56;191.82;-73.36;-13.2;8.0;996.29;61.608;23.031364;72.53783;18.8;NaN;;3.7;9.677419;209.13;20 / 21;85031;2018-06-12 12:21:32:947
0.3496;9.2395;2.7127;0.7518;9.378;2.7673;-0.6297;-0.3683;-1.1368;-0.1893;0.4532;0.2517;1935.0;14.64;-33.06;25.08;192.25;-73.0;-15.2;8.0;996.25;64.967;23.031364;72.53783;18.8;NaN;;3.7;9.677419;209.13;20 / 21;85531;2018-06-12 12:21:33:447
0.0024;9.1557;1.3336;0.5461;9.3426;2.9304;-0.6347;-0.8956;-1.0676;0.4485;0.5449;-0.2279;1729.0;12.78;-32.88;24.84;192.93;-72.3;-10.56;8.0;996.21;66.235;23.031364;72.53783;18.8;NaN;;3.7;9.677419;209.13;21 / 22;86031;2018-06-12 12:21:33:947
0.7087;7.5468;1.4749;0.8074;9.3881;2.7169;-0.3861;-1.7935;-1.0026;0.0374;-0.0349;-0.0312;1361.0;9.42;-33.3;27.9;180.99;-73.2;-16.55;8.0;996.19;58.093;23.031364;72.53783;18.8;NaN;;3.7;9.677419;209.13;21 / 22;86532;2018-06-12 12:21:34:448
-0.4621;8.8325;4.7048;1.0048;9.5399;2.0375;-0.356;-0.0873;1.5707;-0.7445;0.2706;-0.1747;1239.0;13.8;-31.2;27.96;180.26;-76.61;-26.25;8.0;996.17;60.676;23.031364;72.53783;18.8;NaN;;3.7;9.677419;209.13;21 / 22;87031;2018-06-12 12:21:34:947
1.1229;9.2778;0.8021;0.8565;9.6252;1.6711;-0.8661;0.5385;1.3864;0.1748;-0.0043;0.204;1051.0;10.98;-30.18;29.4;174.54;-78.96;-27.14;8.0;996.14;53.916;23.031364;72.53783;18.8;NaN;;3.7;9.677419;209.13;21 / 22;87531;2018-06-12 12:21:35:447
0.747;11.562;3.747;0.5523;9.7207;1.1718;-0.2818;2.5452;1.1674;-0.6285;-0.1808;0.0183;1022.0;14.58;-28.08;30.66;180.53;-82.41;-25.24;8.0;996.15;55.953;23.031364;72.53783;18.8;NaN;;3.7;9.677419;209.13;19 / 20;88031;2018-06-12 12:21:35:947
1.2474;11.4686;1.8292;0.5838;9.5943;1.9438;0.6637;1.8743;-0.1146;0.0655;-0.4197;-0.0073;1114.0;16.26;-30.54;27.66;193.94;-77.39;-13.23;8.0;996.14;54.309;23.031364;72.53783;18.8;NaN;;3.7;9.677419;209.13;19 / 20;88531;2018-06-12 12:21:36:447
-0.7566;12.3425;4.2187;0.5056;9.5956;1.9595;0.1098;1.794;0.3367;0.3123;0.3756;-0.4612;1082.0;14.7;-30.3;27.84;191.69;-78.09;-14.47;8.0;996.14;54.1;23.031256;72.53775;18.06;NaN;;3.93;9.677419;216.95;21 / 22;89031;2018-06-12 12:21:36:947
1.3025;9.1629;1.4054;0.1694;9.4196;2.7226;1.1331;-0.2567;-1.3171;-0.0823;0.0574;0.1924;922.0;19.02;-31.98;24.42;207.87;-73.85;-3.56;8.0;996.13;59.849;23.031256;72.53775;18.06;NaN;;3.93;9.677419;216.95;21 / 22;89531;2018-06-12 12:21:37:447
1.4246;8.0855;2.2985;0.8259;9.0505;3.6847;0.8142;-1.9347;-1.0007;0.0325;-0.1527;-0.0599;880.0;17.88;-35.4;18.9;201.4;-67.35;-12.63;8.0;996.14;58.057;23.031256;72.53775;18.06;NaN;;3.93;9.677419;216.95;20 / 21;90031;2018-06-12 12:21:37:947
0.4693;6.0839;3.4502;0.2952;8.8122;4.2929;0.0376;-3.3556;-0.1508;-0.3078;0.1331;0.5308;1315.0;21.18;-35.1;15.06;213.5;-63.97;-3.93;8.0;996.13;55.756;23.031256;72.53775;18.06;NaN;;3.93;9.677419;216.95;20 / 21;90531;2018-06-12 12:21:38:447
-0.3831;7.1565;5.1405;0.2339;8.9871;3.9176;-0.8756;-1.0597;1.5773;-0.4593;0.4691;0.394;1876.0;16.56;-35.28;18.78;206.11;-66.41;-3.42;8.0;996.16;56.206;23.031256;72.53775;18.06;NaN;;3.93;9.677419;216.95;20 / 21;91031;2018-06-12 12:21:38:947
-0.3951;8.6218;5.4542;0.4472;9.0105;3.8447;-1.7354;-0.8125;1.8777;0.1143;0.6188;-0.2162;2116.0;17.34;-35.76;18.66;201.86;-67.19;-9.63;8.0;996.17;57.109;23.031256;72.53775;18.06;NaN;;3.93;9.677419;216.95;20 / 21;91531;2018-06-12 12:21:39:447
-0.7207;10.1757;5.4709;0.0636;9.1131;3.6217;-0.6549;1.041;2.3663;0.1846;0.3488;-0.0305;3260.0;12.96;-35.28;22.08;200.58;-68.32;-1.01;8.0;996.17;55.467;23.031256;72.53775;18.06;NaN;;3.93;9.677419;216.95;20 / 21;92032;2018-06-12 12:21:39:948
-1.2738;10.8078;10.1589;0.4578;9.1525;3.4919;-1.4418;2.8333;4.8282;-0.546;1.08;0.047;4509.0;13.14;-35.16;22.26;196.21;-68.95;-7.47;8.0;996.15;52.54;23.031256;72.53775;18.06;NaN;;3.93;9.677419;216.95;20 / 21;92531;2018-06-12 12:21:40:447
0.9074;12.0528;3.0;0.0276;9.3049;3.0965;0.48;1.9219;1.5412;-0.1447;-0.1265;0.1619;4205.0;13.62;-34.5;25.02;201.73;-71.59;-0.51;8.0;996.15;52.421;23.031256;72.53775;18.06;NaN;;3.93;9.677419;216.95;21 / 23;93031;2018-06-12 12:21:40:947
1.2259;10.5468;3.7039;0.142;9.1773;3.4535;1.0479;0.9648;-0.5492;0.1052;-0.0403;0.1002;6202.0;10.14;-34.74;23.76;194.37;-69.36;-2.35;8.0;996.18;52.235;23.031256;72.53775;18.06;NaN;;3.93;9.677419;216.95;21 / 23;93531;2018-06-12 12:21:41:447
1.2067;9.2898;1.4916;0.2169;9.2027;3.3814;0.9371;-0.5162;-2.7254;0.3031;0.0806;-0.1057;6435.0;12.18;-35.1;22.74;197.0;-69.79;-3.67;8.0;996.19;51.069;23.031256;72.53775;18.06;NaN;;3.93;9.677419;216.95;20 / 23;94031;2018-06-12 12:21:41:947
-0.9745;9.352;2.5164;-0.2458;9.1839;3.4302;-0.7287;0.1682;-0.9138;0.5004;0.8411;-0.2566;6895.0;11.16;-36.18;23.76;200.29;-69.47;4.1;8.0;996.2;50.528;23.031256;72.53775;18.06;NaN;;3.93;9.677419;216.95;20 / 23;94531;2018-06-12 12:21:42:447
-0.5052;6.3353;1.7526;-0.5403;9.2424;3.2336;0.1739;-2.8449;-0.7819;0.4729;0.6047;0.2651;6659.0;10.14;-35.34;24.96;201.5;-68.75;8.39;8.0;996.22;51.109;23.031256;72.53775;18.06;NaN;;3.93;9.677419;216.95;21 / 23;95031;2018-06-12 12:21:42:947
1.324;3.8261;0.9122;-0.4657;9.3097;3.0468;1.3875;-5.5866;-2.0651;-0.7684;-0.3837;0.7019;5959.0;4.38;-34.32;28.08;192.68;-71.68;8.69;8.0;996.21;50.842;23.031256;72.53775;18.06;NaN;;3.93;9.677419;216.95;21 / 23;95532;2018-06-12 12:21:43:448
-1.2546;6.9985;2.0902;-0.4677;9.192;3.3849;-0.0399;-2.4378;-0.1694;-0.1227;-0.063;-0.2303;5486.0;7.8;-34.38;25.92;198.18;-69.61;7.87;8.0;996.21;51.166;23.031256;72.53775;18.06;NaN;;3.93;9.677419;216.95;20 / 22;96031;2018-06-12 12:21:43:947
-1.0966;7.6066;2.5116;-0.6086;9.5333;2.2172;-0.239;-0.392;0.0262;-0.0652;0.0898;0.0733;6145.0;4.32;-32.04;29.04;198.91;-76.44;15.35;8.0;996.23;50.93;23.031256;72.53775;18.06;NaN;;3.93;9.677419;216.95;20 / 22;96531;2018-06-12 12:21:44:447
1.3408;9.4622;2.1429;-0.3642;9.4367;2.6433;1.705;0.0255;-0.5004;-0.6456;-1.0214;-0.1417;7246.0;7.8;-33.3;27.12;203.82;-75.56;13.46;8.0;996.21;55.379;23.031256;72.53775;18.06;NaN;;3.93;9.677419;216.95;20 / 21;97031;2018-06-12 12:21:44:947
1.1708;12.2659;2.2746;0.0469;9.4195;2.7279;-0.351;2.492;2.6736;-1.0029;0.1728;0.1484;6471.0;10.38;-33.54;27.06;197.93;-74.99;2.46;8.0;996.22;51.406;23.031256;72.53775;18.06;NaN;;3.93;9.677419;216.95;20 / 21;97531;2018-06-12 12:21:45:447
1.0247;13.0296;3.4382;0.2194;9.3954;2.8014;0.8053;3.6342;0.6368;0.2335;-0.1808;-0.168;7557.0;9.3;-35.4;24.84;191.48;-73.35;-4.48;8.0;996.21;49.119;23.031153;72.5377;16.9;NaN;;3.98;9.677419;192.34;20 / 21;98031;2018-06-12 12:21:45:947
-0.4142;12.8381;4.0344;-0.3019;9.5257;2.3109;-0.6606;3.5064;3.3252;0.366;0.1954;0.2657;6942.0;14.88;-32.28;27.66;209.51;-76.25;7.44;8.0;996.2;48.238;23.031153;72.5377;16.9;NaN;;3.98;9.677419;192.34;20 / 21;98531;2018-06-12 12:21:46:447
0.7542;12.0312;4.1038;-7.0E-4;9.4081;2.7672;0.3;2.2544;1.2145;0.1186;0.3188;0.0916;7276.0;9.6;-33.12;26.88;195.87;-73.61;0.02;8.0;996.2;50.306;23.031153;72.5377;16.9;NaN;;3.98;9.677419;192.34;21 / 23;99031;2018-06-12 12:21:46:947
1.0319;8.6385;0.2849;-0.2508;9.5773;2.0934;0.246;-2.033;-1.8635;0.7777;0.3011;0.0861;6491.0;15.24;-30.96;27.66;209.6;-77.58;6.83;8.0;996.19;49.278;23.031153;72.5377;16.9;NaN;;3.98;9.677419;192.34;21 / 23;99531;2018-06-12 12:21:47:447
0.1293;8.3225;0.7039;0.154;9.4033;2.7792;-0.0247;-1.0808;-2.0752;0.0374;0.449;-0.358;7135.0;9.66;-33.24;26.82;193.36;-73.51;-3.17;8.0;996.18;49.735;23.031153;72.5377;16.9;NaN;;3.98;9.677419;192.34;20 / 21;100031;2018-06-12 12:21:47:947
-1.1205;6.0647;0.2011;-0.3492;9.4252;2.686;-0.7714;-3.3605;-2.4849;0.1846;0.675;-0.0061;6440.0;14.52;-32.7;26.1;209.64;-73.97;7.41;8.0;996.19;49.053;23.031153;72.5377;16.9;NaN;;3.98;9.677419;192.34;20 / 21;100532;2018-06-12 12:21:48:448
-0.3496;5.842;1.6928;-0.4249;9.3469;2.9368;0.0754;-3.5049;-1.244;-0.4434;-0.1735;0.4588;6091.0;11.4;-32.94;28.38;203.12;-72.39;8.23;8.0;996.18;49.586;23.031153;72.5377;16.9;NaN;;3.98;9.677419;192.34;20 / 21;101031;2018-06-12 12:21:48:947
-1.585;9.4502;4.4725;-0.4641;9.3174;3.0234;-1.121;0.1328;1.4491;-0.0524;0.1912;-0.4429;6632.0;13.14;-32.34;25.68;207.31;-71.83;8.73;8.0;996.18;46.83;23.031153;72.5377;16.9;NaN;;3.98;9.677419;192.34;20 / 21;101531;2018-06-12 12:21:49:447
-1.403;10.0272;2.2602;-0.2465;9.3844;2.8361;-0.7328;0.6836;0.4896;0.6055;-0.2193;0.0849;5419.0;10.8;-32.22;27.36;201.29;-73.12;4.97;8.0;996.19;48.538;23.031153;72.5377;16.9;NaN;;3.98;9.677419;192.34;20 / 22;102031;2018-06-12 12:21:49:947
0.1628;10.9706;3.1724;-0.4277;9.4993;2.3979;-1.0424;3.583;0.7745;0.2439;-0.1075;0.0519;4719.0;12.0;-31.44;28.44;207.34;-75.62;10.11;8.0;996.18;47.972;23.031153;72.5377;16.9;NaN;;3.98;9.677419;192.34;20 / 22;102531;2018-06-12 12:21:50:447
0.7446;12.6274;1.7766;-0.057;9.5933;2.0335;1.0961;3.058;-0.8722;0.1119;0.182;-0.0391;4293.0;9.6;-31.2;29.52;197.14;-78.03;1.79;8.0;996.18;49.282;23.031153;72.5377;16.9;NaN;;3.98;9.677419;192.34;21 / 23;103031;2018-06-12 12:21:50:947
-0.2131;14.0831;6.6992;-0.0459;9.3341;3.0072;0.1944;4.2894;2.8013;0.4674;-0.3855;0.0403;4346.0;8.46;-32.64;26.7;190.68;-71.46;-2.4;8.0;996.19;50.99;23.031153;72.5377;16.9;NaN;;3.98;9.677419;192.34;21 / 23;103531;2018-06-12 12:21:51:447
0.668;10.475;1.5826;0.4229;9.3502;2.9266;0.2451;1.1248;-1.344;0.0691;0.4526;-0.0208;3733.0;15.78;-31.8;24.18;199.79;-72.45;-8.22;8.0;996.2;51.885;23.031153;72.5377;16.9;NaN;;3.98;9.677419;192.34;21 / 24;104032;2018-06-12 12:21:51:948
0.2155;10.2379;3.2897;0.6754;9.2314;3.2396;0.2656;-0.3175;-2.6003;0.0972;-0.1149;-0.2205;3166.0;13.38;-32.58;23.16;192.99;-70.28;-11.78;8.0;996.2;54.247;23.031153;72.5377;16.9;NaN;;3.98;9.677419;192.34;21 / 24;104531;2018-06-12 12:21:52:447
-0.6321;5.9163;1.5323;0.5333;9.0783;3.6702;-1.3641;-2.9059;-1.2424;0.9751;-0.5022;-0.3097;2615.0;19.5;-32.16;18.84;207.94;-67.78;-8.27;8.0;996.2;56.566;23.031153;72.5377;16.9;NaN;;3.98;9.677419;192.34;20 / 21;105031;2018-06-12 12:21:52:947
0.5603;5.3847;-0.3687;0.254;9.1241;3.5857;0.3062;-3.7393;-3.9544;0.4919;-0.5828;0.0446;2520.0;18.9;-32.94;20.04;208.8;-68.5;-4.05;8.0;996.2;54.657;23.031153;72.5377;16.9;NaN;;3.98;9.677419;192.34;20 / 21;105531;2018-06-12 12:21:53:447
-0.3208;7.281;3.4406;0.7346;9.1085;3.5588;-1.0554;-1.8275;-0.1183;0.1211;0.0672;-0.1833;2129.0;19.86;-32.76;18.72;205.33;-68.25;-11.66;8.0;996.2;54.147;23.031153;72.5377;16.9;NaN;;3.98;9.677419;192.34;20 / 22;106032;2018-06-12 12:21:53:948
-0.6584;10.0919;3.2945;0.3785;9.1858;3.4128;-1.037;0.906;-0.1183;0.5139;0.1331;-0.2346;2048.0;20.22;-32.1;17.88;210.79;-69.5;-6.33;8.0;996.2;51.658;23.031153;72.5377;16.9;NaN;;3.98;9.677419;192.34;20 / 22;106532;2018-06-12 12:21:54:448
0.8093;9.2802;5.7726;0.2945;9.2583;3.22;0.5148;0.022;2.5526;0.1052;-0.2939;0.0806;2294.0;19.74;-31.8;19.14;211.11;-70.75;-5.23;8.0;996.21;48.859;23.031054;72.53764;15.56;NaN;;4.26;9.677419;203.41;21 / 23;107032;2018-06-12 12:21:54:948
1.4246;11.6841;2.8348;0.2508;9.3929;2.8072;1.0756;2.2193;0.2599;-0.1495;-0.3537;0.0684;2356.0;20.7;-31.14;20.64;211.79;-73.3;-5.11;8.0;996.2;49.452;23.031054;72.53764;15.56;NaN;;4.26;9.677419;203.41;21 / 23;107531;2018-06-12 12:21:55:447
0.6967;11.7822;5.4087;0.1978;9.1231;3.5916;0.3265;2.8387;1.774;-0.053;-0.2743;0.1051;2274.0;18.9;-33.3;19.02;210.26;-68.48;-3.15;8.0;996.22;49.453;23.031054;72.53764;15.56;NaN;;4.26;9.677419;203.41;22 / 23;108031;2018-06-12 12:21:55:947
1.0056;9.9147;3.0766;0.3443;9.1575;3.4917;0.5248;-0.0999;-1.4973;-0.0078;0.2804;-0.0751;2490.0;21.42;-32.1;17.16;213.39;-69.04;-5.63;8.0;996.21;49.271;23.031054;72.53764;15.56;NaN;;4.26;9.677419;203.41;22 / 23;108531;2018-06-12 12:21:56:447
-0.4022;9.2036;2.2985;0.0841;9.0159;3.857;-0.4864;0.1877;-1.5585;-0.0469;0.5931;0.0782;3237.0;22.38;-32.22;17.1;217.04;-66.83;-1.25;8.0;996.21;48.0;23.031054;72.53764;15.56;NaN;;4.26;9.677419;203.41;22 / 23;109031;2018-06-12 12:21:56:947
-0.7279;3.8739;4.3193;0.4905;8.68;4.5373;-1.2184;-4.8061;-0.218;0.1681;1.7183;-0.1839;4577.0;21.06;-34.56;13.62;212.33;-62.27;-6.17;8.0;996.2;48.621;23.031054;72.53764;15.56;NaN;;4.26;9.677419;203.41;22 / 23;109531;2018-06-12 12:21:57:447
-0.5243;5.7032;5.1477;-0.0677;8.2554;5.2928;-0.4567;-2.5523;-0.1451;-0.3493;0.4404;-0.259;8232.0;22.08;-33.24;12.24;218.67;-57.33;0.73;8.0;996.23;47.093;23.031054;72.53764;15.56;NaN;;4.26;9.677419;203.41;21 / 22;110032;2018-06-12 12:21:57:948
0.0503;7.1565;5.5236;0.9147;8.3824;5.0069;0.292;-0.3329;0.33;-0.425;-0.0697;0.0745;8119.0;24.48;-31.86;6.9;220.49;-58.73;-10.35;8.0;996.22;48.147;23.031054;72.53764;15.56;NaN;;4.26;9.677419;203.41;21 / 22;110531;2018-06-12 12:21:58:447
-0.5794;9.2204;9.8884;0.5457;8.2215;5.3178;-0.7062;1.6166;4.4604;-0.4819;0.1881;-0.0635;6260.0;24.96;-31.74;7.26;223.54;-56.97;-5.86;8.0;996.22;47.496;23.031054;72.53764;15.56;NaN;;4.26;9.677419;203.41;21 / 22;111032;2018-06-12 12:21:58:948
-0.0287;11.277;6.7016;0.1035;8.0751;5.5635;0.3873;3.451;0.2618;0.468;-0.03;-0.1808;8315.0;25.5;-31.56;8.1;225.79;-55.43;-1.07;8.0;996.24;46.847;23.031054;72.53764;15.56;NaN;;4.26;9.677419;203.41;21 / 22;111531;2018-06-12 12:21:59:447
0.4621;10.6258;8.8325;0.3545;7.4344;6.3854;0.1076;3.1914;2.4471;-0.3841;-0.5938;0.1503;10876.0;27.96;-31.38;2.04;230.56;-49.3;-3.18;8.0;996.23;46.555;23.031054;72.53764;15.56;NaN;;4.26;9.677419;203.41;21 / 23;112031;2018-06-12 12:21:59:947
0.3903;9.4502;8.2076;0.2207;7.4178;6.4107;0.1695;2.0324;1.7969;-0.2516;-0.0691;0.1631;10605.0;28.08;-32.82;2.04;229.52;-49.15;-1.97;8.0;996.24;48.345;23.031054;72.53764;15.56;NaN;;4.26;9.677419;203.41;21 / 23;112532;2018-06-12 12:22:00:448
0.6896;6.0886;3.2658;0.2969;7.0889;6.7698;0.3926;-1.0003;-3.504;0.5908;-0.1192;-0.0098;6512.0;28.44;-31.98;-1.38;231.51;-46.29;-2.51;8.0;996.23;49.718;23.031054;72.53764;15.56;NaN;;4.26;9.677419;203.41;20 / 21;113031;2018-06-12 12:22:00:947
0.3879;4.0463;2.6912;0.7947;7.4514;6.3257;-0.0477;-4.0276;-2.9498;-0.4275;-0.6842;0.0971;10099.0;26.46;-33.96;-0.6;227.43;-49.45;-7.16;8.0;996.21;48.168;23.031054;72.53764;15.56;NaN;;4.26;9.677419;203.41;20 / 21;113532;2018-06-12 12:22:01:448
0.2849;4.6952;6.7854;0.5307;7.9862;5.6665;-0.0159;-3.3245;2.4333;-0.8588;0.3738;0.5461;2892.0;29.04;-31.86;0.12;234.27;-54.52;-5.35;8.0;996.22;49.984;23.031054;72.53764;15.56;NaN;;4.26;9.677419;203.41;20 / 21;114032;2018-06-12 12:22:01:948
-0.2203;7.9011;6.0024;0.5436;8.5642;4.7466;-0.7638;-0.6631;1.2559;-0.3646;1.0122;0.1564;3454.0;23.94;-34.44;11.1;218.41;-60.84;-6.53;8.0;996.23;48.888;23.031054;72.53764;15.56;NaN;;4.26;9.677419;203.41;20 / 21;114532;2018-06-12 12:22:02:448
0.9769;9.127;9.1701;0.4833;8.4515;4.9506;1.6835;0.0889;1.0638;0.1681;-0.6274;-0.2211;3106.0;22.02;-36.72;12.78;213.18;-60.1;-5.64;8.0;996.24;51.238;23.031054;72.53764;15.56;NaN;;4.26;9.677419;203.41;20 / 21;115031;2018-06-12 12:22:02:947
0.0048;11.811;3.7566;0.0393;8.5394;4.8216;0.6646;1.9907;-0.658;0.2744;0.0513;-0.2242;2860.0;25.14;-34.08;11.1;223.26;-60.55;-0.47;8.0;996.24;52.9;23.031054;72.53764;15.56;NaN;;4.26;9.677419;203.41;20 / 21;115531;2018-06-12 12:22:03:447
0.2586;10.5133;9.9386;-0.0152;8.1724;5.4204;0.2738;2.3408;4.5182;-0.279;-0.2432;-0.055;2615.0;23.16;-36.0;10.56;218.44;-56.45;0.16;8.0;996.23;55.869;23.030993;72.53756;14.67;NaN;;3.86;9.677419;217.61;20 / 21;116031;2018-06-12 12:22:03:947
-0.826;11.6888;6.8476;0.0799;8.2367;5.3217;0.2697;0.3851;-1.7111;0.1241;0.4337;0.0641;2417.0;27.9;-33.12;6.96;229.12;-57.13;-0.86;8.0;996.23;58.867;23.030993;72.53756;14.67;NaN;;3.86;9.677419;217.61;20 / 21;116531;2018-06-12 12:22:04:447
0.0766;8.2363;6.2922;0.2742;8.2732;5.2583;-0.0156;-0.8222;-0.1321;0.0716;0.2608;-0.0391;4437.0;23.46;-36.24;11.16;217.11;-57.53;-2.99;8.0;996.24;54.185;23.030993;72.53756;14.67;NaN;;3.86;9.677419;217.61;20 / 21;117031;2018-06-12 12:22:04:947
0.6417;5.933;1.9872;0.2991;8.7128;4.4908;0.5054;-2.0759;-2.7215;0.3691;-0.0953;-0.0244;2820.0;26.28;-34.68;12.0;221.63;-61.44;-3.09;8.0;996.26;62.05;23.030993;72.53756;14.67;NaN;;3.86;9.677419;217.61;20 / 21;117531;2018-06-12 12:22:05:447
0.1963;5.4398;2.5164;0.275;8.5979;4.7086;-0.2414;-2.6696;-2.6136;0.3501;0.3195;-0.0739;2744.0;24.96;-35.58;13.08;219.75;-62.28;-2.71;8.0;996.26;58.388;23.030993;72.53756;14.67;NaN;;3.86;9.677419;217.61;19 / 20;118031;2018-06-12 12:22:05:947
-0.3687;6.5483;4.1301;-0.1262;8.5999;4.7112;-0.3143;-1.5967;0.4604;-0.4531;-0.1277;-0.0806;2849.0;28.38;-33.48;11.7;227.74;-61.28;1.53;8.0;996.24;54.121;23.030993;72.53756;14.67;NaN;;3.86;9.677419;217.61;19 / 20;118531;2018-06-12 12:22:06:447
-1.2187;7.5875;6.1485;-0.0618;7.9463;5.7466;-0.1872;0.9748;1.5799;0.1235;0.1331;-0.2321;8516.0;29.82;-33.72;6.0;230.79;-54.12;0.62;8.0;996.22;52.813;23.030993;72.53756;14.67;NaN;;3.86;9.677419;217.61;20 / 21;119031;2018-06-12 12:22:06:947
-0.0862;8.4566;5.4326;0.1187;7.5493;6.2582;0.8965;0.1747;1.2958;-0.0976;-0.8131;-0.6335;9412.0;33.84;-31.62;-0.3;238.39;-50.34;-1.09;8.0;996.22;49.156;23.030993;72.53756;14.67;NaN;;3.86;9.677419;217.61;20 / 21;119532;2018-06-12 12:22:07:448
0.5674;10.4462;9.4406;-0.032;7.6504;6.1352;0.1589;2.0393;2.6302;-0.2192;-0.5901;0.0507;8014.0;36.48;-28.98;-2.34;245.45;-51.27;0.3;8.0;996.2;49.633;23.030993;72.53756;14.67;NaN;;3.86;9.677419;217.61;20 / 21;120032;2018-06-12 12:22:07:948
1.2594;9.467;9.9889;0.2834;7.5602;6.2396;1.2824;1.6338;3.845;-0.0219;-0.0281;0.2095;14818.0;35.94;-29.04;-3.78;245.6;-50.16;-1.8;8.0;996.22;54.007;23.030993;72.53756;14.67;NaN;;3.86;9.677419;217.61;20 / 21;120532;2018-06-12 12:22:08:448
1.1445;6.7327;6.7902;0.5204;7.6865;6.0678;0.2554;0.1093;-0.4771;0.0142;-0.0428;0.4484;28667.002;35.16;-29.58;-2.28;241.88;-51.87;-3.71;8.0;996.23;51.859;23.030993;72.53756;14.67;NaN;;3.86;9.677419;217.61;20 / 21;121031;2018-06-12 12:22:08:947
1.2283;6.6513;5.2387;0.6025;7.039;6.8014;0.348;-0.8091;-2.1015;-0.0378;0.1912;0.4643;48296.0;28.44;-35.22;0.54;225.99;-45.87;-5.06;8.0;996.25;55.477;23.030993;72.53756;14.67;NaN;;3.86;9.677419;217.61;20 / 21;121531;2018-06-12 12:22:09:447
0.2706;5.4877;4.8005;0.8904;7.3985;6.375;0.4049;-2.7272;-2.2688;0.3123;0.2419;-0.1246;39649.0;22.26;-36.06;1.62;218.12;-48.98;-7.95;8.0;996.24;54.808;23.030993;72.53756;14.67;NaN;;3.86;9.677419;217.61;18 / 20;122031;2018-06-12 12:22:09:947
0.747;5.3081;4.6425;0.529;7.3669;6.4513;-0.1651;-1.6063;-2.9652;0.1345;0.2309;-0.0373;48566.0;20.82;-36.48;2.4;218.03;-48.7;-4.69;8.0;996.24;60.065;23.030993;72.53756;14.67;NaN;;3.86;9.677419;217.61;18 / 20;122531;2018-06-12 12:22:10:447
0.6058;5.7199;5.277;0.3603;7.523;6.2806;0.6022;-1.3721;2.0108;-0.5521;-0.4417;-0.4795;32264.998;26.58;-33.42;0.0;230.33;-50.1;-3.28;8.0;996.24;59.625;23.030993;72.53756;14.67;NaN;;3.86;9.677419;217.61;20 / 22;123031;2018-06-12 12:22:10:947
-0.1221;6.2491;5.435;0.3083;7.7519;5.9986;-0.5453;-2.585;-1.2675;-0.2002;-0.1161;-0.2059;10935.0;31.26;-29.7;-2.58;240.99;-52.47;-3.16;8.0;996.22;49.931;23.030993;72.53756;14.67;NaN;;3.86;9.677419;217.61;20 / 22;123531;2018-06-12 12:22:11:447
0.8452;7.5444;8.0352;0.8255;7.6664;6.0593;0.9702;0.7782;2.6439;0.3862;-0.4967;-0.6359;22102.0;33.0;-27.72;-8.52;246.51;-49.48;-7.62;8.0;996.22;55.656;23.030993;72.53756;14.67;NaN;;3.86;9.677419;217.61;18 / 21;124031;2018-06-12 12:22:11:947
-0.8188;9.6154;9.3736;0.3757;7.7651;5.9776;-1.1946;1.8503;3.396;0.5273;-0.1234;-0.4105;29774.0;33.18;-26.88;-6.54;249.32;-52.36;-3.6;8.0;996.23;49.745;23.030993;72.53756;14.67;NaN;;3.86;9.677419;217.61;18 / 21;124531;2018-06-12 12:22:12:447
0.1149;10.6402;8.5978;0.1626;7.766;5.986;0.1702;2.2229;3.2966;0.1889;-0.0892;0.0244;16397.0;32.58;-28.38;-3.42;244.98;-52.36;-1.56;8.0;996.22;52.799;23.030924;72.537476;13.84;NaN;;3.77;9.677419;241.98;18 / 20;125031;2018-06-12 12:22:12:947
-0.0742;9.0935;5.1261;0.2512;8.2559;5.2865;-0.1099;0.3659;-2.6193;0.1663;0.1863;-0.1814;7521.0;33.42;-26.76;-3.06;248.01;-57.34;-2.72;8.0;996.22;55.706;23.030924;72.537476;13.84;NaN;;3.77;9.677419;241.98;18 / 20;125531;2018-06-12 12:22:13:447
0.0192;6.9482;4.0798;0.0481;7.9408;5.7542;0.1865;-0.1163;-2.0503;0.1211;-0.0813;-0.0605;12763.0;33.78;-27.6;-3.48;246.86;-53.88;-0.98;8.0;996.24;66.408;23.030924;72.537476;13.84;NaN;;3.77;9.677419;241.98;19 / 21;126031;2018-06-12 12:22:13:947
-0.3615;5.7175;3.1269;0.1575;8.074;5.5639;-0.2748;-2.2559;-2.0419;0.3483;0.0079;-0.1851;15730.0;34.5;-25.8;-6.42;251.53;-54.31;-2.98;8.0;996.25;59.275;23.030924;72.537476;13.84;NaN;;3.77;9.677419;241.98;19 / 21;126531;2018-06-12 12:22:14:447
0.2059;5.2387;2.5906;0.3767;8.0377;5.6056;-0.3647;-2.6602;-3.513;-0.3481;0.1771;0.0703;7394.0;34.14;-25.5;-6.72;253.07;-55.05;-3.84;8.0;996.22;67.604;23.030924;72.537476;13.84;NaN;;3.77;9.677419;241.98;19 / 21;127031;2018-06-12 12:22:14:947
-0.0527;6.7064;4.8436;0.5829;8.2697;5.2385;-0.6355;-1.5633;-0.3949;-0.535;0.2187;-0.0483;7470.0;34.68;-25.32;-7.74;254.35;-57.49;-6.35;8.0;996.22;62.785;23.030924;72.537476;13.84;NaN;;3.77;9.677419;241.98;19 / 21;127532;2018-06-12 12:22:15:448
-0.838;8.684;4.2929;0.8828;8.6076;4.6152;-0.2986;0.5625;-1.3374;-0.2534;-0.168;0.1014;4315.0;33.06;-27.3;-5.4;247.13;-61.37;-10.83;8.0;996.23;66.595;23.030924;72.537476;13.84;NaN;;3.77;9.677419;241.98;20 / 21;128032;2018-06-12 12:22:15:948
2.6122;10.1852;2.028;0.7972;8.3015;5.1595;1.8916;0.282;0.0912;0.239;-0.8895;-0.2425;7166.0;33.0;-26.94;-7.2;249.22;-57.83;-8.78;8.0;996.23;64.437;23.030924;72.537476;13.84;NaN;;3.77;9.677419;241.98;20 / 21;128531;2018-06-12 12:22:16:447
0.0599;10.1493;11.107;0.3049;8.4135;5.029;0.1907;0.7853;3.2528;-0.0084;-0.0911;0.3164;4624.0;34.62;-25.02;-3.54;255.89;-61.56;-0.79;8.0;996.24;67.746;23.030924;72.537476;13.84;NaN;;3.77;9.677419;241.98;20 / 21;129031;2018-06-12 12:22:16:947
-0.0431;10.214;8.4662;0.0351;8.8215;4.2837;-0.5475;2.5752;4.9774;0.2139;0.562;-0.0312;5362.0;34.14;-25.74;-0.24;251.15;-64.1;-0.47;8.0;996.26;60.638;23.030924;72.537476;13.84;NaN;;3.77;9.677419;241.98;20 / 21;129531;2018-06-12 12:22:17:447
1.9011;12.0193;4.8005;-0.2339;8.7855;4.3509;0.538;2.2928;2.9349;1.0423;0.3323;0.0495;5026.0;36.0;-23.7;-0.78;257.38;-63.62;3.08;8.0;996.25;58.7;23.030924;72.537476;13.84;NaN;;3.77;9.677419;241.98;19 / 20;130031;2018-06-12 12:22:17:947
0.7015;11.0663;8.7583;-0.0704;8.8225;4.2813;1.6171;1.4154;3.7803;0.6128;-0.3403;-0.0562;5143.0;35.4;-23.46;-3.48;258.95;-64.11;0.94;8.0;996.25;64.31;23.030924;72.537476;13.84;NaN;;3.77;9.677419;241.98;19 / 20;130532;2018-06-12 12:22:18:448
1.2378;11.0424;7.5515;-0.1696;9.046;3.783;1.8552;1.745;1.1636;-0.2228;0.4044;0.2779;5157.0;37.2;-21.96;-5.82;267.76;-67.29;2.57;8.0;996.24;51.977;23.030924;72.537476;13.84;NaN;;3.77;9.677419;241.98;18 / 20;131032;2018-06-12 12:22:18:948
1.6066;12.1294;5.6265;0.6456;9.1179;3.552;0.6042;2.8223;2.1081;0.2823;-0.2358;0.0916;5198.0;34.14;-24.78;-8.1;257.81;-68.4;-10.3;8.0;996.23;52.812;23.030924;72.537476;13.84;NaN;;3.77;9.677419;241.98;18 / 20;131531;2018-06-12 12:22:19:447
2.1668;8.7295;1.7789;0.4121;9.3465;2.9399;1.4147;1.059;0.3666;0.4076;0.3598;0.0049;4773.0;34.2;-22.5;-11.22;268.67;-70.98;-7.09;8.0;996.23;48.881;23.030924;72.537476;13.84;NaN;;3.77;9.677419;241.98;19 / 20;132031;2018-06-12 12:22:19:947
0.6872;10.3074;2.1309;0.2049;9.3686;2.8908;0.7888;-0.2225;-1.9786;-0.042;-0.2279;-0.3012;4025.0;35.4;-22.8;-8.22;267.52;-72.81;-4.05;8.0;996.22;50.747;23.030924;72.537476;13.84;NaN;;3.77;9.677419;241.98;19 / 20;132532;2018-06-12 12:22:20:448
0.1508;8.9905;1.6137;-0.2353;9.1471;3.5277;0.4173;-1.9595;-1.3226;0.8486;-0.1815;-0.5803;6314.0;35.52;-18.72;-12.06;280.57;-68.87;3.82;8.0;996.23;48.545;23.030924;72.537476;13.84;NaN;;3.77;9.677419;241.98;19 / 20;133032;2018-06-12 12:22:20:948
-0.4693;5.7487;1.2426;-0.3796;8.9834;3.9147;0.1138;-3.1485;-2.289;0.6372;0.2675;-0.4838;6608.0;35.7;-15.0;-18.54;293.08;-66.36;5.54;8.0;996.24;48.348;23.030924;72.537476;13.84;NaN;;3.77;9.677419;241.98;19 / 20;133532;2018-06-12 12:22:21:448
0.4382;6.115;2.7007;-0.1379;8.7879;4.3501;0.1092;-2.4072;-1.4291;-0.0616;-1.2071;-0.46;9009.0;30.78;-9.36;-28.74;307.25;-63.65;1.82;8.0;996.23;47.282;23.030918;72.53733;12.85;NaN;;4.33;9.677419;295.49;20 / 21;134031;2018-06-12 12:22:21:947
-0.3256;4.5108;1.5946;0.0783;8.6697;4.5825;-1.0791;-3.8381;-1.5897;0.0606;-0.6653;-0.1698;7705.0;22.5;-6.06;-34.92;319.66;-62.14;-0.98;8.0;996.22;47.22;23.030918;72.53733;12.85;NaN;;4.33;9.677419;295.49;20 / 21;134532;2018-06-12 12:22:22:448
-0.838;8.9259;4.0487;-0.5396;8.601;4.68;-0.2984;0.3249;-0.6313;0.823;0.73;-0.0733;9241.0;18.9;-2.4;-36.78;336.2;-61.29;6.58;8.0;996.24;47.194;23.030918;72.53733;12.85;NaN;;4.33;9.677419;295.49;18 / 21;135031;2018-06-12 12:22:22:947
-1.8436;9.0911;1.5108;-0.154;9.4931;2.4549;-1.6896;-0.4021;-0.9441;0.3245;-0.4637;-0.416;4267.0;15.24;-11.88;-36.24;338.74;-75.47;3.59;8.0;996.22;45.706;23.030918;72.53733;12.85;NaN;;4.33;9.677419;295.49;18 / 21;135531;2018-06-12 12:22:23:447
0.8212;10.4271;1.937;-0.0183;9.4175;2.735;0.0686;1.4118;3.8277;0.0453;-0.3342;-0.0122;5325.0;10.62;-11.28;-39.12;342.69;-73.81;0.38;8.0;996.26;44.998;23.030918;72.53733;12.85;NaN;;4.33;9.677419;295.49;19 / 20;136031;2018-06-12 12:22:23:947
1.3049;13.1661;5.0016;0.723;9.2518;3.1703;2.3393;3.5432;0.7754;-0.6053;-0.1711;-0.011;5161.0;10.26;-9.96;-39.18;328.84;-70.64;-12.85;8.0;996.22;46.056;23.030918;72.53733;12.85;NaN;;4.33;9.677419;295.49;19 / 20;136531;2018-06-12 12:22:24:447
1.8508;12.6897;4.7478;0.4204;9.2387;3.262;0.6786;4.2459;1.4954;0.3062;0.0672;-0.3103;5997.0;17.76;-10.92;-36.84;322.05;-69.76;-6.92;8.0;996.23;45.684;23.030918;72.53733;12.85;NaN;;4.33;9.677419;295.49;18 / 20;137031;2018-06-12 12:22:24:947
1.4653;10.2906;4.4198;0.7478;9.2852;3.0652;0.6648;2.1714;2.4488;-0.3707;0.2431;0.1234;3967.0;16.98;-13.32;-36.12;317.93;-72.66;-11.65;8.0;996.24;44.439;23.030918;72.53733;12.85;NaN;;4.33;9.677419;295.49;18 / 20;137531;2018-06-12 12:22:25:447
0.0;9.364;2.8229;0.1857;9.0017;3.8866;-0.1857;0.3624;-1.0638;0.2597;-0.1515;0.1637;6169.0;18.6;-8.1;-37.08;325.26;-66.62;-2.74;8.0;996.24;45.096;23.030918;72.53733;12.85;NaN;;4.33;9.677419;295.49;18 / 20;138031;2018-06-12 12:22:25:947
-0.0096;4.4964;1.6281;0.2902;8.9721;3.9481;-0.2998;-4.4756;-2.32;0.4076;-0.0165;-0.0672;6362.0;19.74;-7.8;-37.38;322.18;-66.19;-4.2;8.0;996.24;44.596;23.030918;72.53733;12.85;NaN;;4.33;9.677419;295.49;18 / 20;138531;2018-06-12 12:22:26:447
-1.6616;6.3233;6.0695;0.0893;8.3802;5.0926;-1.0135;-2.2102;-1.2067;-1.2503;0.6328;0.5779;6616.0;24.66;-5.76;-34.68;315.89;-58.71;-1.0;8.0;996.24;45.488;23.030918;72.53733;12.85;NaN;;4.33;9.677419;295.49;17 / 20;139031;2018-06-12 12:22:26:947
-1.6856;7.8748;3.0383;-0.2559;9.461;2.5678;0.299;-1.1122;-1.5694;0.6092;0.372;-0.7324;3064.0;24.54;-15.3;-31.02;322.3;-74.74;5.69;8.0;996.24;45.203;23.030918;72.53733;12.85;NaN;;4.33;9.677419;295.49;17 / 20;139531;2018-06-12 12:22:27:447
0.0144;8.5978;2.4541;-0.3771;9.5073;2.3746;0.3915;-0.9095;0.0796;-0.4428;-0.2016;0.1497;3663.0;23.94;-15.84;-31.26;327.35;-75.81;9.02;8.0;996.25;45.077;23.030918;72.53733;12.85;NaN;;4.33;9.677419;295.49;18 / 20;140031;2018-06-12 12:22:27:947
2.0734;8.6266;4.664;0.0217;9.4225;2.7178;2.0517;-0.7959;1.9463;0.2011;-1.0385;-0.1521;5143.0;19.26;-13.56;-35.94;327.75;-73.91;-0.46;8.0;996.25;45.902;23.030918;72.53733;12.85;NaN;;4.33;9.677419;295.49;18 / 20;140531;2018-06-12 12:22:28:447
1.2331;11.9905;4.3217;0.4394;9.4519;2.5765;0.7936;2.5386;1.7452;0.1388;0.262;-0.1228;5763.0;12.9;-13.02;-38.7;328.4;-74.54;-9.68;8.0;996.24;45.974;23.030918;72.53733;12.85;NaN;;4.33;9.677419;295.49;19 / 21;141031;2018-06-12 12:22:28:947
1.0415;12.0743;2.9306;0.714;9.4668;2.4575;0.6555;1.4941;1.1674;0.4632;-0.1582;-0.0574;5171.0;10.2;-14.34;-38.4;325.02;-74.87;-16.2;8.0;996.23;45.802;23.030918;72.53733;12.85;NaN;;4.33;9.677419;295.49;19 / 21;141531;2018-06-12 12:22:29:447
0.2777;11.9881;3.9386;0.4445;9.5233;2.2978;-0.2745;2.5032;0.8938;-0.0035;0.0409;0.0098;4338.0;9.78;-14.88;-38.28;331.06;-76.19;-10.95;8.0;996.23;45.742;23.030918;72.53733;12.85;NaN;;4.33;9.677419;295.49;19 / 21;142031;2018-06-12 12:22:29:947
0.1101;10.8892;1.1109;0.6259;9.5012;2.3462;-0.5541;-0.8795;-1.4412;0.3825;0.1588;-0.2181;4121.0;9.78;-15.12;-37.5;325.96;-75.66;-14.94;8.0;996.24;45.8;23.030918;72.53733;12.85;NaN;;4.33;9.677419;295.49;19 / 21;142532;2018-06-12 12:22:30:448
1.3743;9.3592;2.3631;0.2087;9.3568;2.9286;1.1656;0.0024;-0.5654;0.1779;0.1771;-0.0342;4339.0;10.8;-11.7;-39.36;337.25;-72.58;-4.08;8.0;996.23;45.404;23.031012;72.53727;11.5;NaN;;4.58;9.677419;323.34;19 / 21;143031;2018-06-12 12:22:30:947
0.8883;7.767;2.1261;0.3031;9.2042;3.3706;0.5229;-1.8873;-2.2932;-0.1324;-0.0886;0.2498;4633.0;11.4;-10.98;-40.14;336.01;-69.81;-5.14;8.0;996.25;46.086;23.031012;72.53727;11.5;NaN;;4.58;9.677419;323.34;19 / 21;143531;2018-06-12 12:22:31:447
0.4765;5.1285;0.7303;0.2507;9.3375;2.9864;0.2257;-4.2089;-2.2562;0.0484;-0.1039;0.0476;3497.0;7.68;-11.16;-40.32;341.56;-72.21;-4.8;8.0;996.23;47.195;23.031012;72.53727;11.5;NaN;;4.58;9.677419;323.34;19 / 21;144031;2018-06-12 12:22:31:947
-1.7095;6.6657;4.9442;-0.239;9.391;2.8145;-1.0922;-1.9496;0.3148;-1.1263;-0.0965;0.0635;2340.0;7.08;-12.24;-40.5;354.19;-73.26;4.85;8.0;996.24;45.422;23.031012;72.53727;11.5;NaN;;4.58;9.677419;323.34;19 / 21;144531;2018-06-12 12:22:32:447
-0.8117;8.866;2.4661;-0.0836;9.4742;2.5302;0.639;0.0215;-1.1631;-0.1361;-0.0972;-0.2266;2027.0;7.38;-12.96;-39.6;350.91;-75.04;1.89;8.0;996.24;47.707;23.031012;72.53727;11.5;NaN;;4.58;9.677419;323.34;16 / 18;145031;2018-06-12 12:22:32:947
-1.2235;9.443;3.692;-0.1055;9.5106;2.3892;-1.0414;0.4209;1.3794;-0.1221;0.1704;-0.0751;1889.0;9.3;-14.16;-39.3;348.18;-75.89;2.53;8.0;996.24;45.986;23.031012;72.53727;11.5;NaN;;4.58;9.677419;323.34;16 / 18;145532;2018-06-12 12:22:33:448
-0.0862;10.688;2.3272;-0.2754;9.6127;1.9212;0.1892;1.0754;0.4061;0.6941;-0.2847;-0.3238;2801.0;9.6;-15.12;-37.98;352.72;-78.59;8.16;8.0;996.24;46.273;23.031012;72.53727;11.5;NaN;;4.58;9.677419;323.34;17 / 19;146032;2018-06-12 12:22:33:948
0.4022;13.3241;0.5435;-0.0771;9.5799;2.0953;0.4793;3.7443;-1.5518;-0.2681;-0.6304;0.0238;1900.0;8.7;-13.92;-39.48;347.95;-77.65;2.11;8.0;996.24;47.031;23.031012;72.53727;11.5;NaN;;4.58;9.677419;323.34;17 / 19;146531;2018-06-12 12:22:34:447
2.5858;10.9347;3.5339;0.1357;9.4746;2.5267;2.4501;1.4601;1.0072;-0.7378;-1.1515;0.2981;2218.0;10.8;-13.5;-37.92;338.31;-75.05;-3.07;8.0;996.25;46.998;23.031012;72.53727;11.5;NaN;;4.58;9.677419;323.34;18 / 20;147031;2018-06-12 12:22:34:947
-0.6321;12.2371;4.2618;-0.1929;9.6772;1.5763;0.5688;1.9063;1.6488;0.352;0.8143;0.1662;2555.0;13.08;-16.8;-37.14;346.51;-80.68;6.98;8.0;996.23;46.798;23.031012;72.53727;11.5;NaN;;4.58;9.677419;323.34;18 / 20;147531;2018-06-12 12:22:35:447
-0.5483;10.4462;1.5419;-5.0E-4;9.6027;1.9893;-0.2317;-0.1334;-0.275;0.2017;0.3653;0.193;3180.0;13.74;-15.66;-36.72;337.02;-78.3;0.02;8.0;996.24;48.031;23.031012;72.53727;11.5;NaN;;4.58;9.677419;323.34;19 / 21;148031;2018-06-12 12:22:35:947
0.1461;8.5787;1.1277;-0.1576;9.5522;2.2139;0.9716;-0.916;-0.3296;-0.0903;-0.2694;0.0922;3376.0;14.76;-15.6;-36.9;339.71;-76.92;4.07;8.0;996.22;47.37;23.031012;72.53727;11.5;NaN;;4.58;9.677419;323.34;19 / 21;148531;2018-06-12 12:22:36:447
0.8907;7.0703;0.6034;0.1622;9.5639;2.1624;0.4388;-2.4313;-0.4816;-0.009;-0.0226;0.1674;2753.0;15.06;-15.78;-37.38;330.52;-77.22;-4.29;8.0;996.21;45.666;23.031012;72.53727;11.5;NaN;;4.58;9.677419;323.34;17 / 19;149031;2018-06-12 12:22:36:947
0.1796;6.7279;1.8125;0.2608;9.5218;2.3316;-0.3446;-2.2792;-1.2829;-0.0139;0.1515;0.0244;2434.0;13.92;-15.72;-37.62;329.93;-76.16;-6.38;8.0;996.24;44.399;23.031012;72.53727;11.5;NaN;;4.58;9.677419;323.34;17 / 19;149531;2018-06-12 12:22:37:447
0.0431;6.8788;2.8995;0.1999;9.5617;2.1687;-0.7147;-1.4308;-1.0817;-0.9736;0.0427;0.2107;2381.0;13.38;-16.26;-37.2;332.36;-77.17;-5.27;8.0;996.22;44.949;23.031012;72.53727;11.5;NaN;;4.58;9.677419;323.34;18 / 20;150031;2018-06-12 12:22:37:947
-0.2562;9.0288;2.909;-0.1855;9.5701;2.1326;1.3108;0.3182;-0.4279;-0.4318;-0.1051;-0.1332;2583.0;15.42;-14.88;-37.92;341.56;-77.39;4.97;8.0;996.21;46.351;23.031012;72.53727;11.5;NaN;;4.58;9.677419;323.34;18 / 20;150532;2018-06-12 12:22:38:448
-1.3312;10.8293;3.0527;-0.2344;9.6634;1.6538;-1.9708;2.3032;2.9169;-0.2516;0.2083;0.1985;2205.0;18.0;-15.78;-36.72;340.6;-80.19;8.07;8.0;996.22;45.953;23.031012;72.53727;11.5;NaN;;4.58;9.677419;323.34;16 / 19;151031;2018-06-12 12:22:38:947
0.3591;11.3441;1.5132;0.3625;9.6989;1.4039;0.1882;2.1768;-0.3983;0.0704;-0.3556;-0.0342;2600.0;13.68;-19.44;-35.52;321.35;-81.5;-14.48;8.0;996.22;45.651;23.031012;72.53727;11.5;NaN;;4.58;9.677419;323.34;16 / 19;151532;2018-06-12 12:22:39:448
1.3815;12.5053;1.5419;0.183;9.676;1.5848;1.1985;2.8293;-0.0429;-0.276;-0.1418;-0.011;2331.0;16.56;-19.2;-35.94;325.23;-80.64;-6.59;8.0;996.2;47.263;23.031118;72.53722;10.46;NaN;;4.53;9.677419;336.77;18 / 20;152032;2018-06-12 12:22:39:948
0.7925;12.0121;2.1453;0.2499;9.6804;1.5482;0.5426;2.3316;0.5971;0.2775;0.1166;-0.1784;2552.0;15.96;-18.78;-34.2;322.43;-80.8;-9.17;8.0;996.2;46.266;23.031118;72.53722;10.46;NaN;;4.53;9.677419;336.77;18 / 20;152531;2018-06-12 12:22:40:447
1.2378;11.0065;2.5451;0.0299;9.6305;1.8501;1.5001;0.787;-0.9403;0.1253;0.2706;-0.1118;2476.0;15.66;-16.44;-37.02;333.34;-79.12;-0.93;8.0;996.2;46.719;23.031118;72.53722;10.46;NaN;;4.53;9.677419;336.77;19 / 21;153031;2018-06-12 12:22:40:947
0.6034;8.7702;1.7191;0.1865;9.569;2.1378;0.0673;-1.4045;-1.0029;0.2811;0.1936;0.1936;2951.0;16.62;-16.32;-36.54;327.0;-77.36;-4.98;8.0;996.21;47.448;23.031118;72.53722;10.46;NaN;;4.53;9.677419;336.77;19 / 21;153531;2018-06-12 12:22:41:447
0.6105;7.1996;0.3759;0.2625;9.3188;3.0433;0.3384;-2.6292;-1.7599;0.2481;-0.063;0.0397;3749.0;16.14;-11.82;-38.82;328.82;-71.85;-4.93;8.0;996.21;47.283;23.031118;72.53722;10.46;NaN;;4.53;9.677419;336.77;18 / 20;154031;2018-06-12 12:22:41:947
0.3352;7.2954;2.6457;0.2389;9.2723;3.1838;0.2519;-2.0225;-1.3833;0.5163;-0.0605;0.0415;3384.0;17.58;-11.82;-38.22;324.36;-70.1;-5.33;8.0;996.22;46.804;23.031118;72.53722;10.46;NaN;;4.53;9.677419;336.77;18 / 20;154532;2018-06-12 12:22:42:448
0.158;7.9538;3.4166;0.4524;9.5668;2.1077;-0.6966;-1.9242;0.3225;-0.24;0.1936;-0.0275;2420.0;17.28;-17.34;-36.12;316.26;-78.99;-14.67;8.0;996.21;47.09;23.031118;72.53722;10.46;NaN;;4.53;9.677419;336.77;19 / 21;155032;2018-06-12 12:22:42:948
-0.4908;8.8612;1.8508;0.3353;9.686;1.4964;-0.5531;-0.3579;-0.0096;-0.0591;0.1228;0.1924;2353.0;19.44;-19.14;-33.12;313.84;-81.0;-12.63;8.0;996.2;46.987;23.031118;72.53722;10.46;NaN;;4.53;9.677419;336.77;19 / 21;155531;2018-06-12 12:22:43:447
0.8763;10.3433;1.6951;0.2909;9.6984;1.4234;0.0586;1.1716;1.8615;-0.0219;-0.2841;-0.08;2782.0;17.64;-19.2;-34.62;318.17;-81.48;-11.55;8.0;996.21;47.161;23.031118;72.53722;10.46;NaN;;4.53;9.677419;336.77;19 / 22;156031;2018-06-12 12:22:43:947
0.3807;13.226;1.7718;0.501;9.6815;1.4787;0.1167;3.4439;0.463;-0.0188;-0.19;-0.3305;2865.0;16.2;-19.08;-35.64;313.75;-80.84;-18.72;8.0;996.19;45.968;23.031118;72.53722;10.46;NaN;;4.53;9.677419;336.77;19 / 22;156531;2018-06-12 12:22:44:447
-1.0607;12.7974;2.6983;0.6501;9.6851;1.395;-1.026;2.5041;0.7694;-0.0622;0.0794;-0.3745;2418.0;15.06;-18.66;-36.6;309.26;-80.97;-24.99;8.0;996.21;47.242;23.031118;72.53722;10.46;NaN;;4.53;9.677419;336.77;17 / 20;157031;2018-06-12 12:22:44:947
1.0463;10.2643;4.6066;0.6081;9.4413;2.581;0.4382;0.8229;2.0256;-0.0329;0.2046;0.0886;2776.0;13.62;-14.28;-38.46;320.59;-73.92;-14.53;8.0;996.22;46.287;23.031118;72.53722;10.46;NaN;;4.53;9.677419;336.77;17 / 20;157531;2018-06-12 12:22:45:447
1.1277;9.0504;2.2195;0.7178;9.4638;2.468;0.4099;-0.4135;-0.2485;0.2274;-0.1375;-0.0177;2235.0;13.98;-15.0;-38.28;318.83;-74.81;-16.22;8.0;996.22;49.14;23.031118;72.53722;10.46;NaN;;4.53;9.677419;336.77;18 / 20;158031;2018-06-12 12:22:45:947
-0.1341;8.0496;1.0343;0.4441;9.4617;2.5395;-0.5782;-1.4121;-1.5052;0.2658;0.0727;-0.0232;1938.0;13.38;-14.34;-39.0;327.98;-74.76;-9.92;8.0;996.21;46.632;23.031118;72.53722;10.46;NaN;;4.53;9.677419;336.77;18 / 20;158531;2018-06-12 12:22:46:447
-0.3041;8.5643;2.2075;0.6341;9.3489;2.8925;-0.9382;-0.7846;-0.6849;0.3373;0.3066;-0.2272;2311.0;14.16;-12.54;-39.54;323.87;-72.43;-12.36;8.0;996.21;47.837;23.031118;72.53722;10.46;NaN;;4.53;9.677419;336.77;17 / 19;159031;2018-06-12 12:22:46:947
-0.0287;8.1908;6.4717;0.3715;9.4786;2.4875;0.9956;-0.0643;-1.5849;-1.2558;0.1386;0.0751;3501.0;13.32;-12.42;-39.6;330.6;-75.14;-8.49;8.0;996.21;47.42;23.031118;72.53722;10.46;NaN;;4.53;9.677419;336.77;17 / 19;159532;2018-06-12 12:22:47:448
-0.0287;10.5611;4.3456;-0.0054;9.5401;2.271;-0.7081;2.3403;3.2047;-0.0634;0.6536;0.212;2885.0;17.46;-13.32;-37.38;332.88;-76.61;0.14;8.0;996.21;46.903;23.031118;72.53722;10.46;NaN;;4.53;9.677419;336.77;20 / 23;160031;2018-06-12 12:22:47:947
0.3927;10.9107;1.9801;0.2268;9.6093;1.944;-0.1526;1.0715;1.7289;-0.5289;0.0012;-0.0727;3549.0;18.6;-16.74;-34.92;322.73;-79.31;-5.53;8.0;996.21;47.485;23.031118;72.53722;10.46;NaN;;4.53;9.677419;336.77;20 / 23;160531;2018-06-12 12:22:48:447
0.3711;11.4614;1.7047;0.0435;9.6079;1.9638;0.0331;1.7865;0.2461;0.1388;-0.0226;-0.1252;3511.0;19.8;-16.56;-34.2;324.85;-78.45;-1.27;8.0;996.2;46.728;23.031218;72.537155;9.74;NaN;;4.2;9.677419;338.21;18 / 20;161032;2018-06-12 12:22:48:948
0.5459;10.9873;2.0782;0.4631;9.5803;2.043;0.0828;1.407;0.0352;0.1877;-0.1185;-0.3372;3193.0;17.88;-16.08;-35.34;315.84;-77.67;-12.77;8.0;996.2;49.091;23.031218;72.537155;9.74;NaN;;4.2;9.677419;338.21;18 / 20;161532;2018-06-12 12:22:49:448
1.099;8.1812;1.3384;0.5952;9.5787;2.0161;0.5037;-1.3974;-0.6777;0.093;-0.1033;0.1179;2812.0;15.12;-16.68;-34.8;315.81;-77.62;-16.45;8.0;996.19;50.007;23.031218;72.537155;9.74;NaN;;4.2;9.677419;338.21;17 / 20;162031;2018-06-12 12:22:49:947
0.431;7.7407;2.1022;0.4602;9.4817;2.461;0.4328;-2.3779;-1.2614;-0.1691;-0.2706;0.135;3693.0;14.64;-14.34;-37.2;323.32;-75.21;-10.59;8.0;996.2;47.907;23.031218;72.537155;9.74;NaN;;4.2;9.677419;338.21;17 / 20;162531;2018-06-12 12:22:50:447
-0.747;7.4079;1.5802;0.1785;9.3799;2.8559;-0.6741;-1.7326;-1.0961;0.0722;-0.0831;-0.0611;4000.0;14.16;-12.24;-38.1;332.9;-73.03;-3.58;8.0;996.2;47.764;23.031218;72.537155;9.74;NaN;;4.2;9.677419;338.21;18 / 21;163031;2018-06-12 12:22:50:947
-0.3544;8.1501;3.0862;0.152;9.417;2.7328;-0.2023;-0.8143;0.0685;-0.2699;0.0336;0.2492;3853.0;17.52;-13.62;-37.8;327.54;-73.79;-3.18;8.0;996.2;48.599;23.031218;72.537155;9.74;NaN;;4.2;9.677419;338.21;18 / 21;163531;2018-06-12 12:22:51:447
0.8931;7.8676;3.6345;0.3068;9.4018;2.7717;0.6724;-0.6555;-0.4229;-1.1001;-0.1485;0.2761;3833.0;17.28;-13.92;-36.72;324.58;-73.48;-6.32;8.0;996.2;53.692;23.031218;72.537155;9.74;NaN;;4.2;9.677419;338.21;17 / 20;164031;2018-06-12 12:22:51:947
-1.0942;9.3808;5.0352;0.0924;9.4366;2.6668;-1.1866;-0.0558;2.3683;-0.0634;0.2413;0.4679;3627.0;19.74;-13.38;-34.68;324.26;-74.21;-1.98;8.0;996.21;54.727;23.031218;72.537155;9.74;NaN;;4.2;9.677419;338.21;17 / 20;164531;2018-06-12 12:22:52:447
-0.0215;10.3768;5.2195;0.4208;9.3931;2.7863;-0.4424;0.9837;2.4333;-0.8252;-0.3519;-0.1631;4581.0;19.08;-14.7;-35.34;317.41;-73.3;-8.59;8.0;996.21;53.062;23.031218;72.537155;9.74;NaN;;4.2;9.677419;338.21;15 / 18;165032;2018-06-12 12:22:52:948
0.2969;11.5715;2.1165;0.0106;9.4875;2.4813;0.2144;1.6411;1.0119;0.6653;-0.4588;-0.1662;4486.0;17.4;-13.26;-36.36;331.4;-75.34;-0.25;8.0;996.21;50.48;23.031218;72.537155;9.74;NaN;;4.2;9.677419;338.21;15 / 18;165532;2018-06-12 12:22:53:448
0.1053;12.5891;3.5603;0.457;9.5367;2.2389;-0.1433;2.0731;1.1969;0.0203;0.2797;0.0544;3032.0;15.18;-15.18;-37.02;322.54;-76.53;-11.54;8.0;996.21;48.093;23.031218;72.537155;9.74;NaN;;4.2;9.677419;338.21;17 / 21;166031;2018-06-12 12:22:53:947
-0.2921;10.0224;2.7343;-0.3054;9.5681;2.128;-0.1974;-0.9128;-1.2278;0.2255;0.4404;-0.0892;3227.0;14.7;-14.52;-37.86;345.09;-77.34;8.17;8.0;996.22;47.572;23.031218;72.537155;9.74;NaN;;4.2;9.677419;338.21;17 / 21;166531;2018-06-12 12:22:54:447
0.4405;9.613;1.8196;0.1841;9.5137;2.372;0.2565;0.0994;-0.5524;0.3923;0.0708;0.2572;3065.0;16.2;-14.4;-36.36;328.2;-75.96;-4.44;8.0;996.23;47.536;23.031218;72.537155;9.74;NaN;;4.2;9.677419;338.21;15 / 18;167031;2018-06-12 12:22:54:947
0.2562;8.1022;0.3807;0.1362;9.5212;2.3447;0.2301;-1.9793;-2.2322;0.3495;0.0049;-0.2065;3115.0;14.7;-14.16;-37.14;331.6;-76.14;-3.32;8.0;996.21;48.865;23.031218;72.537155;9.74;NaN;;4.2;9.677419;338.21;15 / 18;167531;2018-06-12 12:22:55:447
0.1173;7.4366;0.7686;0.1584;9.4701;2.5421;-0.0411;-2.0335;-1.7736;0.3941;0.3769;0.0464;3425.0;15.72;-14.88;-37.2;329.33;-74.95;-3.57;8.0;996.22;47.791;23.031218;72.537155;9.74;NaN;;4.2;9.677419;338.21;15 / 18;168031;2018-06-12 12:22:55:947
-1.925;7.6928;3.0575;-0.2305;9.4053;2.767;-1.8333;-0.4699;1.4158;-0.3322;0.499;-0.2266;3010.0;17.88;-12.54;-37.38;335.82;-73.55;4.76;8.0;996.22;48.118;23.031218;72.537155;9.74;NaN;;4.2;9.677419;338.21;15 / 18;168532;2018-06-12 12:22:56:448
-2.1788;9.1773;1.0966;-0.4079;9.3828;2.8226;-0.4636;-0.8783;2.5119;-0.1844;-0.4337;-0.0067;3592.0;17.22;-12.3;-36.78;341.2;-73.09;8.22;8.0;996.22;48.697;23.031218;72.537155;9.74;NaN;;4.2;9.677419;338.21;17 / 21;169032;2018-06-12 12:22:56:948
0.7422;10.1613;2.8133;-0.4304;9.3285;2.994;0.2197;0.7634;3.0803;-0.3346;0.0207;-0.3128;3756.0;16.56;-11.94;-37.02;340.93;-72.03;8.18;8.0;996.21;52.896;23.031218;72.537155;9.74;NaN;;4.2;9.677419;338.21;17 / 21;169531;2018-06-12 12:22:57:447
-0.2346;12.2898;4.9466;-0.4914;9.3128;3.0332;-0.1862;1.8206;2.8735;0.2115;0.3616;-0.0263;3947.0;17.64;-9.66;-37.62;341.73;-71.52;9.32;8.0;996.23;54.981;23.031324;72.537125;9.29;NaN;;4.32;9.677419;335.44;18 / 20;170031;2018-06-12 12:22:57:947
-1.9202;13.0727;3.1916;-0.6752;9.2178;3.2781;-1.245;3.8549;-0.0865;-0.0347;-0.0458;-0.0452;4300.0;18.72;-10.44;-36.54;341.98;-70.04;11.64;8.0;996.22;49.6;23.031324;72.537125;9.29;NaN;;4.32;9.677419;335.44;18 / 20;170531;2018-06-12 12:22:58:447
-0.2227;12.4095;5.5882;-0.2492;9.5454;2.2346;0.0266;2.8641;3.3537;0.2463;-0.0184;0.0672;2854.0;15.6;-15.0;-36.3;340.22;-76.75;6.36;8.0;996.22;59.897;23.031324;72.537125;9.29;NaN;;4.32;9.677419;335.44;18 / 20;171031;2018-06-12 12:22:58:947
-1.4198;12.4861;2.4517;-0.307;9.6209;1.8745;-1.1128;2.8652;0.5772;0.5621;0.6334;0.0696;3729.0;17.04;-15.54;-35.34;341.63;-78.83;9.3;8.0;996.23;49.027;23.031324;72.537125;9.29;NaN;;4.32;9.677419;335.44;18 / 20;171532;2018-06-12 12:22:59:448
0.3687;9.2946;-0.2801;0.18;9.5829;2.075;-0.1705;-3.4775;-2.0008;0.3471;-0.3659;-0.518;2921.0;10.5;-14.76;-38.1;336.58;-77.74;-4.96;8.0;996.21;47.824;23.031324;72.537125;9.29;NaN;;4.32;9.677419;335.44;17 / 19;172031;2018-06-12 12:22:59:947
0.9026;7.7551;-0.1796;0.5287;9.585;2.0047;0.1249;-3.3886;-3.0055;0.0398;0.7226;0.4136;2306.0;7.62;-15.84;-38.28;330.29;-77.8;-14.77;8.0;996.2;47.136;23.031324;72.537125;9.29;NaN;;4.32;9.677419;335.44;17 / 19;172531;2018-06-12 12:23:00:447
-0.5315;5.5858;-0.1939;-0.3195;9.754;0.963;-0.2886;-3.9144;-0.8289;-0.0811;0.0879;-0.1552;782.0;10.14;-18.9;-35.16;8.58;-84.74;24.08;8.0;996.21;48.183;23.031324;72.537125;9.29;NaN;;4.32;9.677419;335.44;17 / 21;173031;2018-06-12 12:23:00:947
-2.0998;7.2235;1.7981;-0.7731;9.757;0.6106;-0.3786;-3.8935;0.6895;-0.8753;-0.176;0.7654;706.0;12.3;-19.26;-34.86;54.39;-84.23;70.77;8.0;996.19;47.081;23.031324;72.537125;9.29;NaN;;4.32;9.677419;335.44;17 / 21;173531;2018-06-12 12:23:01:447
0.1604;9.7255;1.02;-0.8932;9.741;0.697;2.167;-0.0801;-1.1567;0.4607;0.9541;-0.0415;1299.0;8.94;-19.74;-37.8;41.14;-83.37;52.03;8.0;996.21;47.404;23.031324;72.537125;9.29;NaN;;4.32;9.677419;335.44;18 / 21;174031;2018-06-12 12:23:01:947
-2.2291;10.0129;-2.0112;-1.2058;9.6687;1.1104;-0.542;1.3426;5.1363;0.9433;-0.6249;-0.3555;1314.0;13.44;-18.0;-35.64;30.12;-80.38;47.36;8.0;996.19;48.038;23.031324;72.537125;9.29;NaN;;4.32;9.677419;335.44;18 / 21;174531;2018-06-12 12:23:02:447
-1.6497;11.8325;1.6904;-0.6635;9.762;0.6586;-0.1673;2.7313;0.584;1.0123;0.6866;-0.5583;1429.0;12.6;-20.64;-35.28;26.3;-84.53;45.21;8.0;996.23;47.657;23.031324;72.537125;9.29;NaN;;4.32;9.677419;335.44;17 / 20;175031;2018-06-12 12:23:02:947
0.3424;12.6154;0.9362;0.3333;9.7957;0.3203;-0.9007;3.8899;2.5816;-0.0133;0.8332;-0.1466;1122.0;14.4;-22.38;-33.0;289.28;-87.3;-46.14;8.0;996.19;46.594;23.031324;72.537125;9.29;NaN;;4.32;9.677419;335.44;17 / 20;175531;2018-06-12 12:23:03:447
-0.3591;13.0249;0.1341;-0.4916;9.794;-0.0771;0.1324;3.2309;0.2112;-0.276;-0.6915;0.347;705.0;19.02;-23.88;-30.66;69.23;-87.09;98.92;8.0;996.21;47.476;23.031324;72.537125;9.29;NaN;;4.32;9.677419;335.44;16 / 19;176032;2018-06-12 12:23:03:948
2.2482;8.6481;-2.4039;0.2912;9.8006;-0.1847;1.957;-1.1525;-2.2192;0.1657;0.2669;0.5852;540.0;15.18;-25.08;-31.8;211.77;-87.99;-122.39;0.0;996.21;47.85;23.031324;72.537125;9.29;NaN;;4.32;9.677419;335.44;16 / 19;176532;2018-06-12 12:23:04:448
1.0655;9.2299;0.9433;0.5931;9.7475;0.8973;0.4724;-0.5176;0.0461;-0.8698;-0.3421;0.4814;625.0;14.16;-21.78;-35.28;301.43;-83.7;-33.47;0.0;996.21;47.835;23.031324;72.537125;9.29;NaN;;4.32;9.677419;335.44;15 / 19;177032;2018-06-12 12:23:04:948
-0.6536;5.3249;-1.0559;-0.31;9.8011;0.1123;-0.8225;-4.0979;-0.4762;-0.1673;-0.7123;0.2541;667.0;12.12;-22.8;-33.78;51.63;-88.07;70.09;0.0;996.2;48.118;23.031324;72.537125;9.29;NaN;;4.32;9.677419;335.44;15 / 19;177532;2018-06-12 12:23:05:448
-0.9266;5.8899;1.6113;0.1551;9.8044;0.1398;-1.5653;-1.1252;0.1451;-0.163;0.8039;0.248;976.0;12.36;-22.14;-34.14;291.9;-88.78;-47.96;0.0;996.2;48.713;23.031324;72.537125;9.29;NaN;;4.32;9.677419;335.44;17 / 20;178031;2018-06-12 12:23:05:947
0.4429;8.9139;-1.415;0.1701;9.8009;-0.2904;1.197;-0.6643;-2.2954;0.2133;-0.5968;-0.4753;892.0;7.98;-24.78;-34.02;196.72;-88.03;-149.64;0.0;996.21;48.114;23.031324;72.537125;9.29;NaN;;4.32;9.677419;335.44;17 / 20;178531;2018-06-12 12:23:06:447
-2.0758;12.4167;-1.1493;-0.1431;9.8054;-0.064;-1.9327;2.6113;-1.0852;0.7814;1.3078;-0.3109;1016.0;12.6;-23.28;-34.98;94.29;-89.08;114.1;0.0;996.2;47.613;23.031418;72.53711;9.0;NaN;;3.65;9.677419;1.81;15 / 18;179031;2018-06-12 12:23:06:947
1.9657;9.2036;0.0599;0.6497;9.7512;0.8135;1.316;-0.5476;-0.7536;-0.4904;-1.4734;0.088;1249.0;8.82;-21.24;-36.06;304.34;-83.91;-38.61;0.0;996.18;48.353;23.031418;72.53711;9.0;NaN;;3.65;9.677419;1.81;15 / 18;179531;2018-06-12 12:23:07:447
1.8819;13.032;-0.5722;0.4362;9.7377;1.0756;0.5957;4.3813;-0.9176;-0.5216;-0.6414;0.3329;1360.0;12.3;-19.98;-37.32;317.39;-83.2;-22.07;0.0;996.2;48.197;23.031418;72.53711;9.0;NaN;;3.65;9.677419;1.81;17 / 18;180031;2018-06-12 12:23:07:947
1.1325;12.2395;-1.6209;-0.0458;9.8061;-0.096;0.3187;2.7639;-0.5026;0.1211;-0.3305;0.292;1028.0;15.3;-25.02;-32.16;129.72;-89.38;154.5;0.0;996.22;47.632;23.031418;72.53711;9.0;NaN;;3.65;9.677419;1.81;17 / 18;180531;2018-06-12 12:23:08:447
0.4836;13.2379;2.2051;-0.115;9.7378;1.1538;1.5635;0.105;-1.5536;-0.4696;0.1985;-0.3873;1091.0;13.8;-19.56;-35.52;343.32;-83.21;5.69;0.0;996.22;48.222;23.031418;72.53711;9.0;NaN;;3.65;9.677419;1.81;17 / 18;181031;2018-06-12 12:23:08:947
-0.0168;10.1398;-0.759;-0.0062;9.7007;1.4374;0.8849;-1.1723;-2.5962;0.272;0.3256;-0.3189;941.0;15.78;-18.54;-35.64;334.28;-81.57;0.25;0.0;996.19;49.343;23.031418;72.53711;9.0;NaN;;3.65;9.677419;1.81;17 / 18;181531;2018-06-12 12:23:09:447
0.8859;6.6154;-2.0351;-0.0496;9.8015;0.3138;0.9355;-3.1861;-2.349;0.2707;-0.1479;0.0189;1177.0;11.94;-22.8;-35.04;349.85;-88.14;8.99;0.0;996.21;65.369;23.031418;72.53711;9.0;NaN;;3.65;9.677419;1.81;18 / 20;182031;2018-06-12 12:23:09:947
0.0287;4.8915;0.0359;-0.3929;9.7522;0.9542;0.4217;-4.8607;-0.9183;-0.0652;-0.333;0.1857;946.0;13.2;-19.98;-36.84;29.22;-84.92;47.22;0.0;996.22;69.651;23.031418;72.53711;9.0;NaN;;3.65;9.677419;1.81;18 / 20;182532;2018-06-12 12:23:10:448
-0.5914;6.0503;1.8604;0.0832;9.7054;1.4029;-0.6746;-3.6551;0.4575;0.5169;0.361;-0.1631;987.0;8.1;-18.36;-38.94;343.82;-81.76;-3.4;0.0;996.25;66.748;23.031418;72.53711;9.0;NaN;;3.65;9.677419;1.81;18 / 19;183031;2018-06-12 12:23:10:947
-1.0894;6.115;1.3743;-0.2687;9.7049;1.3831;-2.0011;-1.5093;0.4007;-0.1758;0.4306;-0.0611;1667.0;15.06;-17.52;-42.96;351.17;-81.74;10.99;0.0;996.21;69.801;23.031418;72.53711;9.0;NaN;;3.65;9.677419;1.81;18 / 19;183531;2018-06-12 12:23:11:447
0.0934;8.6218;2.3392;-0.2646;9.7299;1.1951;1.8256;0.3595;-2.0882;-1.4617;-1.4905;0.3103;1156.0;13.02;-17.34;-43.86;355.8;-82.83;12.48;0.0;996.26;69.745;23.031418;72.53711;9.0;NaN;;3.65;9.677419;1.81;18 / 20;184031;2018-06-12 12:23:11:947
-0.826;10.111;2.1884;-0.6209;9.7533;0.8107;-0.8971;0.4606;-0.0445;0.4803;0.4239;-0.2981;1432.0;12.48;-19.02;-37.2;23.98;-84.27;40.7;3.1;996.25;56.477;23.031418;72.53711;9.0;NaN;;3.65;9.677419;1.81;18 / 20;184531;2018-06-12 12:23:12:447
-0.7326;10.7599;0.7877;-0.9052;9.7525;-0.4886;0.1725;1.0073;1.2763;0.3129;-0.1314;-0.1026;1146.0;15.48;-23.28;-32.88;83.68;-85.2;105.07;0.0;996.23;52.666;23.031418;72.53711;9.0;NaN;;3.65;9.677419;1.81;18 / 19;185031;2018-06-12 12:23:12:947
0.3352;12.3449;1.6377;-0.4769;9.7536;0.8997;0.9581;3.0629;-0.112;-0.6376;-0.4466;0.0202;1049.0;14.16;-19.26;-37.26;7.62;-84.04;27.93;0.0;996.22;51.58;23.031418;72.53711;9.0;NaN;;3.65;9.677419;1.81;18 / 19;185532;2018-06-12 12:23:13:448
-1.2761;12.5628;2.6026;-0.505;9.7696;0.685;-0.2588;1.9384;-0.5102;-0.4599;-0.1986;0.3702;1265.0;15.9;-19.14;-35.34;12.4;-85.02;36.4;0.0;996.24;69.294;23.031418;72.53711;9.0;NaN;;3.65;9.677419;1.81;17 / 19;186031;2018-06-12 12:23:13:947
0.3998;11.2555;0.2586;-0.378;9.741;1.0679;1.2136;0.6071;-1.7886;0.5933;0.5406;-0.212;1100.0;14.52;-18.24;-37.92;357.83;-83.37;19.49;0.0;996.24;59.91;23.031418;72.53711;9.0;NaN;;3.65;9.677419;1.81;17 / 19;186531;2018-06-12 12:23:14:447
-0.3352;8.8349;-0.4501;-0.4391;9.746;0.9968;0.8605;-4.3373;-1.9856;0.5701;0.2309;-0.1436;913.0;13.32;-19.62;-35.94;4.19;-83.62;23.77;0.0;996.23;68.531;23.031418;72.53711;9.0;NaN;;3.65;9.677419;1.81;16 / 18;187031;2018-06-12 12:23:14:947
-0.1772;5.6337;-1.2953;-0.6049;9.7867;-0.1557;0.5426;-4.0381;-1.2402;-0.4086;-0.2468;0.1222;920.0;14.04;-22.02;-33.48;83.69;-86.35;104.43;0.0;996.23;65.7;23.031418;72.53711;9.0;NaN;;3.65;9.677419;1.81;16 / 18;187531;2018-06-12 12:23:15:447
0.1868;5.8612;0.8045;-0.1087;9.7478;1.0667;0.2954;-3.8867;-0.2622;-0.5362;-0.5101;0.4893;975.0;14.04;-18.96;-36.6;344.18;-83.72;5.82;0.0;996.21;63.893;23.03154;72.53712;8.73;NaN;;3.81;12.903226;23.9;17 / 20;188031;2018-06-12 12:23:15:947
-2.5691;9.4574;3.4645;-0.3919;9.7214;1.2292;-2.1771;-0.264;2.2353;0.5139;1.2217;-0.3653;963.0;13.38;-17.16;-36.9;358.21;-82.44;17.68;0.0;996.2;55.352;23.03154;72.53712;8.73;NaN;;3.81;12.903226;23.9;17 / 20;188532;2018-06-12 12:23:16:448
-1.6161;12.06;-0.656;-0.5047;9.7778;0.5566;-0.4721;1.5639;-0.5662;0.655;-0.2303;-0.3916;1016.0;17.4;-19.74;-33.24;15.63;-85.61;42.2;0.0;996.18;47.343;23.03154;72.53712;8.73;NaN;;3.81;12.903226;23.9;17 / 19;189031;2018-06-12 12:23:16:947
-0.1006;10.5731;1.9178;-0.4735;9.7679;0.7306;-0.8984;1.7677;3.7635;0.3434;-0.2193;-0.0452;885.0;15.84;-20.22;-34.62;8.82;-84.91;32.95;0.0;996.17;48.798;23.03154;72.53712;8.73;NaN;;3.81;12.903226;23.9;17 / 19;189531;2018-06-12 12:23:17:447
-0.1293;13.2978;-0.6967;-0.7056;9.7482;0.8031;0.1406;3.6717;-0.8606;0.1993;-0.3305;-0.0733;952.0;15.0;-18.36;-34.98;19.18;-83.74;41.3;0.0;996.18;49.058;23.03154;72.53712;8.73;NaN;;3.81;12.903226;23.9;18 / 19;190031;2018-06-12 12:23:17:947
-0.2346;12.4191;0.7614;-0.3513;9.6801;1.5303;-0.4747;2.6384;0.5623;0.6519;-0.1607;0.0;1253.0;15.12;-16.5;-35.76;351.24;-80.4;14.58;0.0;996.17;48.173;23.03154;72.53712;8.73;NaN;;3.81;12.903226;23.9;18 / 19;190531;2018-06-12 12:23:18:447
0.7925;12.309;1.9968;-0.2452;9.7258;1.2325;1.0377;2.5832;0.7643;-0.064;0.5253;-0.2437;1283.0;13.74;-18.96;-35.4;347.49;-83.15;10.12;0.0;996.17;50.494;23.03154;72.53712;8.73;NaN;;3.81;12.903226;23.9;18 / 19;191031;2018-06-12 12:23:18:947
-1.0846;10.0416;-0.012;-0.4412;9.7353;1.0955;-0.6434;0.3063;-1.1075;0.0789;0.4233;-0.2388;1149.0;15.18;-19.92;-35.34;358.64;-83.08;21.93;0.0;996.16;59.352;23.03154;72.53712;8.73;NaN;;3.81;12.903226;23.9;18 / 19;191531;2018-06-12 12:23:19:447
-0.2466;5.8947;0.68;-0.3022;9.7207;1.2597;-0.2126;-3.8571;-0.4145;-0.0549;0.1667;0.3152;1270.0;12.36;-18.42;-36.24;354.67;-82.41;13.49;0.0;996.15;52.974;23.03154;72.53712;8.73;NaN;;3.81;12.903226;23.9;18 / 19;192031;2018-06-12 12:23:19:947
1.3839;5.0495;-0.6225;0.2787;9.5834;2.0618;0.5545;-4.4596;-1.3603;-0.4031;-1.4649;0.2547;1471.0;11.16;-16.62;-37.62;333.27;-77.75;-7.7;0.0;996.15;60.093;23.03154;72.53712;8.73;NaN;;3.81;12.903226;23.9;18 / 19;192532;2018-06-12 12:23:20:448
-1.9394;10.2954;4.3193;-0.4454;9.735;1.0966;-0.079;0.6011;0.4166;-0.7201;0.383;-0.306;1364.0;5.76;-18.36;-36.66;13.78;-83.07;22.11;0.0;996.16;49.823;23.03154;72.53712;8.73;NaN;;3.81;12.903226;23.9;18 / 19;193032;2018-06-12 12:23:20:948
-1.8053;9.3592;6.6058;-0.4178;9.654;1.6719;-1.3874;-0.2948;4.9339;0.0869;0.2846;0.1429;1082.0;9.66;-16.2;-37.08;358.8;-79.88;14.03;0.0;996.16;47.015;23.03154;72.53712;8.73;NaN;;3.81;12.903226;23.9;18 / 19;193532;2018-06-12 12:23:21:448
-0.4884;12.3281;1.3121;-0.3488;9.673;1.5753;-0.1396;2.6551;-0.2633;0.0728;0.251;-0.0299;1612.0;11.34;-18.0;-36.66;353.29;-79.16;10.56;0.0;996.17;47.351;23.03154;72.53712;8.73;NaN;;3.81;12.903226;23.9;18 / 19;194031;2018-06-12 12:23:21:947
0.9146;12.1366;1.1756;0.0222;9.685;1.5395;0.7081;2.3725;0.0958;0.4882;0.1948;-0.0055;1702.0;12.36;-18.66;-35.88;338.87;-80.97;-0.83;0.0;996.15;48.155;23.03154;72.53712;8.73;NaN;;3.81;12.903226;23.9;18 / 19;194531;2018-06-12 12:23:22:447
-1.2905;11.4279;0.9146;-0.3351;9.6939;1.4447;-0.546;0.7955;-1.1119;0.0154;0.2926;-0.4282;1357.0;12.66;-18.18;-34.92;352.01;-81.3;13.06;0.0;996.17;47.293;23.03154;72.53712;8.73;NaN;;3.81;12.903226;23.9;19 / 22;195032;2018-06-12 12:23:22:948
0.3089;6.8476;-0.6321;-0.4108;9.7488;0.9812;-0.6259;-2.5971;-0.895;-0.3236;-0.1045;0.3543;1107.0;11.46;-20.46;-34.32;5.13;-83.77;22.72;0.0;996.17;48.272;23.03154;72.53712;8.73;NaN;;3.81;12.903226;23.9;19 / 22;195533;2018-06-12 12:23:23:449
-0.5028;7.4175;2.6912;-0.0074;9.7553;1.0024;-0.9551;-1.6387;2.2083;-0.9143;0.0684;0.3897;1313.0;12.48;-19.56;-34.5;339.76;-84.13;0.42;0.0;996.17;48.114;23.03154;72.53712;8.73;NaN;;3.81;12.903226;23.9;18 / 20;196032;2018-06-12 12:23:23:948
-0.9553;8.7942;2.4398;-0.5487;9.711;1.2514;-0.4067;-0.9168;1.1884;0.2249;0.3946;-0.4661;921.0;11.82;-18.72;-35.16;5.17;-81.99;23.67;0.0;996.16;47.921;23.03154;72.53712;8.73;NaN;;3.81;12.903226;23.9;18 / 20;196533;2018-06-12 12:23:24:449
-0.3113;9.6992;0.4262;-0.2801;9.7058;1.3742;-1.791;1.1977;4.0201;0.7509;0.0348;0.0641;1298.0;13.2;-18.66;-35.22;350.35;-81.78;11.52;0.0;996.17;50.857;23.031666;72.53708;8.54;NaN;;4.03;9.677419;345.76;17 / 21;197031;2018-06-12 12:23:24:947
-1.6449;11.6242;2.7774;-0.7095;9.7548;0.7146;-0.7726;2.6068;1.3349;0.2084;0.3323;-0.1729;1612.0;15.48;-19.68;-33.36;21.65;-84.11;44.79;0.0;996.17;48.976;23.031666;72.53708;8.54;NaN;;4.03;9.677419;345.76;17 / 21;197532;2018-06-12 12:23:25:448
-1.4318;12.4598;2.3464;-0.7773;9.7271;0.9749;-0.8747;3.2164;1.5822;0.1779;0.3243;-0.1521;1224.0;16.14;-18.24;-34.2;14.34;-82.7;38.57;0.0;996.17;50.829;23.031666;72.53708;8.54;NaN;;4.03;9.677419;345.76;18 / 21;198031;2018-06-12 12:23:25:947
-0.2322;11.1573;2.253;-0.3216;9.7108;1.3292;-0.0567;1.2574;0.1433;-0.0518;-0.2053;0.1729;1072.0;13.74;-18.06;-35.22;351.13;-81.98;13.6;0.0;996.18;49.522;23.031666;72.53708;8.54;NaN;;4.03;9.677419;345.76;18 / 21;198532;2018-06-12 12:23:26:448
0.6249;8.6577;0.2011;-0.1673;9.7845;0.6375;0.7922;-1.1268;-0.4364;0.2017;0.4373;-0.0623;1001.0;14.82;-20.88;-34.44;1.67;-86.02;25.4;0.0;996.19;48.519;23.031666;72.53708;8.54;NaN;;4.03;9.677419;345.76;18 / 22;199031;2018-06-12 12:23:26:947
0.3951;6.4693;-1.9849;0.054;9.7925;0.5233;0.341;-3.3232;-2.5082;0.3391;-0.2144;-0.2028;1294.0;14.34;-21.78;-33.0;330.14;-86.92;-5.89;0.0;996.19;49.09;23.031666;72.53708;8.54;NaN;;4.03;9.677419;345.76;18 / 22;199531;2018-06-12 12:23:27:447
-1.0726;7.0056;0.5507;-0.3459;9.7935;0.3723;-0.7267;-2.7878;0.1784;0.0734;0.0177;-0.0892;1179.0;15.06;-21.66;-33.66;19.7;-87.03;42.89;0.0;996.18;50.397;23.031666;72.53708;8.54;NaN;;4.03;9.677419;345.76;18 / 21;200032;2018-06-12 12:23:27:948
-0.1796;9.2778;-0.7734;-0.1306;9.804;0.1865;-0.049;-0.5262;-0.9599;-0.5576;0.2132;0.0764;1098.0;16.56;-23.04;-31.26;353.8;-87.65;22.71;0.0;996.19;51.316;23.031666;72.53708;8.54;NaN;;4.03;9.677419;345.76;18 / 21;200532;2018-06-12 12:23:28:448
1.5347;8.5308;-1.0535;-0.1149;9.8027;-0.2531;-0.6512;0.6914;1.4957;-0.2601;-0.6891;0.2859;1045.0;16.98;-23.76;-30.12;126.93;-88.38;155.58;0.0;996.17;52.675;23.031666;72.53708;8.54;NaN;;4.03;9.677419;345.76;18 / 20;201031;2018-06-12 12:23:28:947
0.0503;10.8868;-1.3312;0.2815;9.7998;-0.2326;-1.347;1.2641;0.4241;0.0349;-0.0239;-0.1374;971.0;16.44;-24.72;-31.14;214.95;-88.31;-117.07;0.0;996.18;50.049;23.031666;72.53708;8.54;NaN;;4.03;9.677419;345.76;18 / 20;201531;2018-06-12 12:23:29:447
0.6465;14.2938;1.1947;0.0384;9.7839;0.6658;0.608;4.5099;0.5289;-0.1062;-0.2792;-0.2792;1305.0;18.06;-21.54;-32.4;325.97;-86.1;-3.3;0.0;996.17;49.556;23.031666;72.53708;8.54;NaN;;4.03;9.677419;345.76;17 / 19;202031;2018-06-12 12:23:29:947
-0.316;12.8261;0.7877;-0.3418;9.8003;-0.0878;0.0066;2.6715;0.3584;-0.4342;0.1203;0.2462;1049.0;16.74;-23.76;-31.08;77.04;-87.94;104.41;0.0;996.19;51.655;23.031666;72.53708;8.54;NaN;;4.03;9.677419;345.76;17 / 19;202531;2018-06-12 12:23:30:447
-0.6081;12.0432;1.7742;-0.1987;9.7913;0.511;-0.1484;1.141;0.5545;-0.2876;0.2584;-0.0519;1213.0;19.08;-21.24;-30.84;349.39;-86.8;21.25;0.0;996.19;49.355;23.031666;72.53708;8.54;NaN;;4.03;9.677419;345.76;18 / 21;203031;2018-06-12 12:23:30:947
1.075;7.3073;-2.763;-0.6736;9.7819;-0.1778;0.8843;-3.9039;-1.4862;0.2206;-0.4643;0.1063;1599.0;21.6;-23.7;-29.4;70.18;-85.93;104.78;0.0;996.19;48.747;23.031666;72.53708;8.54;NaN;;4.03;9.677419;345.76;18 / 21;203531;2018-06-12 12:23:31:447
0.7781;6.0862;-0.8595;-0.2866;9.7716;0.7772;0.1669;-3.738;-0.8203;-0.4086;-0.3299;0.3274;1307.0;20.82;-21.3;-31.98;346.29;-85.15;20.24;0.0;996.19;49.314;23.031666;72.53708;8.54;NaN;;4.03;9.677419;345.76;18 / 21;204031;2018-06-12 12:23:31:947
-1.1493;5.9546;0.0024;-0.5551;9.7834;0.3842;-0.6995;-3.6612;-0.5638;0.479;0.0073;-0.0788;1859.0;20.46;-21.06;-31.44;351.78;-84.42;25.1;0.0;996.2;50.378;23.031666;72.53708;8.54;NaN;;4.03;9.677419;345.76;18 / 21;204532;2018-06-12 12:23:32:448
-1.4437;7.0966;2.3129;0.0468;9.7679;0.8691;-0.7291;-0.4303;1.0368;0.3294;0.7611;-0.2602;1114.0;18.96;-21.48;-32.1;324.44;-84.91;-3.08;3.1;996.18;49.729;23.031666;72.53708;8.54;NaN;;4.03;9.677419;345.76;18 / 22;205035;2018-06-12 12:23:32:951
2.004;7.7838;-0.7518;0.3377;9.7628;0.8618;1.7094;-1.5026;-1.7046;0.0325;-0.6549;0.1729;1724.0;18.96;-22.14;-31.92;305.16;-84.58;-21.4;3.1;996.19;49.878;23.031666;72.53708;8.54;NaN;;4.03;9.677419;345.76;18 / 22;205531;2018-06-12 12:23:33:447
-0.7757;11.4542;3.2011;0.3324;9.7721;0.7524;-0.1217;2.3573;0.4591;-0.6138;-0.2829;0.193;1838.0;21.24;-22.5;-30.24;298.55;-85.19;-23.83;3.1;996.16;49.181;23.031754;72.53703;8.42;NaN;;3.77;9.677419;351.75;19 / 22;206032;2018-06-12 12:23:33:948
0.6081;12.6298;0.7422;0.1243;9.7502;1.043;-0.5672;3.1621;2.2683;0.1962;-0.1821;0.1857;1888.0;23.64;-21.54;-29.94;311.75;-83.85;-6.79;3.1;996.17;48.889;23.031754;72.53703;8.42;NaN;;3.77;9.677419;351.75;19 / 22;206532;2018-06-12 12:23:34:448
1.6353;11.9331;-0.5698;0.4451;9.7864;0.4458;0.6778;2.8841;-0.1944;0.3709;0.8252;-0.1936;1618.0;19.38;-24.12;-31.68;301.68;-84.13;-24.26;3.1;996.16;48.006;23.031754;72.53703;8.42;NaN;;3.77;9.677419;351.75;17 / 19;207031;2018-06-12 12:23:34:947
-1.415;12.2707;0.9386;-0.4595;9.7396;1.048;-0.9555;2.531;-0.1095;0.0869;0.2767;0.1704;1592.0;25.2;-19.8;-29.04;341.7;-83.3;23.68;3.1;996.16;48.285;23.031754;72.53703;8.42;NaN;;3.77;9.677419;351.75;17 / 19;207532;2018-06-12 12:23:35:448
0.3687;8.6457;-1.1995;0.01;9.8047;0.1922;0.2175;-1.918;-1.7772;-0.0652;0.3738;0.1668;1207.0;26.4;-24.48;-24.54;310.32;-88.88;-2.98;3.1;996.16;49.419;23.031754;72.53703;8.42;NaN;;3.77;9.677419;351.75;19 / 21;208032;2018-06-12 12:23:35:948
1.5036;6.2993;-1.0343;-0.0931;9.7495;1.0528;1.1897;-3.6297;-1.7591;-0.0042;0.1392;-0.0195;1672.0;32.76;-22.32;-20.34;303.16;-83.81;5.06;3.1;996.16;48.446;23.031754;72.53703;8.42;NaN;;3.77;9.677419;351.75;19 / 21;208531;2018-06-12 12:23:36:447
-1.0343;7.5372;0.589;-0.1107;9.7609;0.9393;-1.2421;-1.7281;0.3057;0.0019;0.2742;-0.1637;1991.0;32.52;-22.98;-21.3;306.44;-84.47;6.72;3.1;996.16;48.725;23.031754;72.53703;8.42;NaN;;3.77;9.677419;351.75;19 / 21;209031;2018-06-12 12:23:36:947
-2.0543;10.5731;-0.419;0.0503;9.7787;0.7385;-1.1804;0.6771;-1.8566;0.6977;0.4141;-0.4209;2231.0;35.1;-24.06;-15.9;288.05;-85.67;-3.9;3.1;996.16;50.243;23.031754;72.53703;8.42;NaN;;3.77;9.677419;351.75;19 / 21;209531;2018-06-12 12:23:37:447
1.5299;10.0153;0.4549;-0.0743;9.7459;1.0874;1.5324;0.1042;-0.0866;-0.1239;-0.7154;-0.1741;2139.0;34.68;-22.86;-14.16;291.96;-83.62;3.91;3.1;996.17;49.643;23.031754;72.53703;8.42;NaN;;3.77;9.677419;351.75;17 / 20;210032;2018-06-12 12:23:37:948
-0.6967;10.6976;5.9737;0.2203;9.6045;1.9686;-0.1604;1.888;1.7066;-0.6816;-0.11;0.1991;2771.0;34.8;-22.74;-16.62;282.44;-78.35;-6.38;3.1;996.18;49.819;23.031754;72.53703;8.42;NaN;;3.77;9.677419;351.75;17 / 20;210532;2018-06-12 12:23:38:448
0.9266;12.9842;-0.012;-0.1821;9.7291;1.217;1.1087;3.255;-1.229;0.4485;-0.1393;0.1057;2534.0;37.02;-23.88;-12.72;293.64;-82.79;8.51;3.1;996.19;52.578;23.031754;72.53703;8.42;NaN;;3.77;9.677419;351.75;18 / 22;211031;2018-06-12 12:23:38:947
-0.1724;13.0225;2.8396;-0.2958;9.763;0.8757;0.3222;3.4223;1.4707;-0.0213;0.9126;-0.0336;2410.0;38.52;-23.52;-10.44;300.14;-84.59;18.67;3.1;996.19;57.359;23.031754;72.53703;8.42;NaN;;3.77;9.677419;351.75;18 / 22;211531;2018-06-12 12:23:39:447
-0.9745;11.9833;2.1333;-0.0014;9.6938;1.4835;-0.9372;1.4612;0.2835;0.2713;0.6206;-0.2309;2788.0;37.5;-24.66;-10.5;279.18;-81.3;0.05;3.1;996.18;51.705;23.031754;72.53703;8.42;NaN;;3.77;9.677419;351.75;18 / 22;212031;2018-06-12 12:23:39:947
0.7853;6.5627;-1.1804;-0.1725;9.7111;1.3548;0.3377;-3.5913;-1.9869;-0.0145;-0.5187;0.0666;2687.0;37.44;-23.7;-12.9;291.84;-81.99;7.26;3.1;996.16;60.546;23.031754;72.53703;8.42;NaN;;3.77;9.677419;351.75;18 / 22;212532;2018-06-12 12:23:40:448
0.2538;7.0248;-1.6161;-0.5148;9.7163;1.2243;0.7686;-2.6915;-2.8405;0.1076;-0.449;-0.0965;2420.0;38.88;-22.56;-12.12;301.82;-81.71;18.98;3.1;996.17;52.661;23.031754;72.53703;8.42;NaN;;3.77;9.677419;351.75;18 / 20;213031;2018-06-12 12:23:40:947
-0.5411;6.6369;0.7877;-0.1572;9.729;1.221;-0.3839;-3.0921;-0.4333;-0.0872;0.0;0.0318;2462.0;39.3;-24.84;-13.74;292.89;-82.79;7.34;3.1;996.17;51.092;23.031754;72.53703;8.42;NaN;;3.77;9.677419;351.75;18 / 20;213532;2018-06-12 12:23:41:448
-2.0208;8.9618;1.664;-0.345;9.7762;0.6899;-1.2065;0.1911;-0.3188;-0.1776;0.3451;-0.1381;2594.0;40.2;-25.14;-8.04;305.54;-85.49;26.57;3.1;996.18;51.684;23.031754;72.53703;8.42;NaN;;3.77;9.677419;351.75;18 / 20;214031;2018-06-12 12:23:41:947
0.1197;10.02;1.5515;-0.1466;9.7418;1.1157;1.473;0.3596;-0.7638;0.1938;-0.3849;-0.1796;2747.0;40.08;-24.6;-11.46;288.97;-83.41;7.48;3.1;996.18;48.442;23.031754;72.53703;8.42;NaN;;3.77;9.677419;351.75;18 / 20;214531;2018-06-12 12:23:42:447
-1.257;11.1477;5.2411;0.1213;9.7312;1.2081;-0.8995;2.1325;2.3737;-1.053;-0.0972;0.2382;2789.0;39.18;-25.56;-11.52;276.79;-82.89;-5.73;3.1;996.17;49.333;23.03182;72.536934;8.38;NaN;;3.57;9.677419;294.16;19 / 21;215032;2018-06-12 12:23:42:948
-0.9673;11.8517;3.4238;-0.1564;9.7522;1.0195;-0.8109;2.0994;2.4043;-0.0488;-0.0122;0.0244;3215.0;40.56;-25.44;-7.68;286.19;-83.96;8.72;3.1;996.18;49.507;23.03182;72.536934;8.38;NaN;;3.57;9.677419;294.16;19 / 21;215532;2018-06-12 12:23:43:448
-0.6656;12.1509;0.51;-0.3819;9.7816;0.5871;-0.5854;2.7261;0.0163;-0.0439;0.0757;0.2279;3172.0;41.46;-24.48;-5.4;308.05;-85.9;33.04;3.1;996.19;50.205;23.03182;72.536934;8.38;NaN;;3.57;9.677419;294.16;17 / 19;216031;2018-06-12 12:23:43:947
-0.3831;12.6154;0.5052;-0.3993;9.7725;0.7139;0.0162;2.843;-0.2087;0.0551;0.0024;0.1704;3523.0;42.24;-25.02;-0.84;297.98;-85.22;29.22;3.1;996.19;52.881;23.03182;72.536934;8.38;NaN;;3.57;9.677419;294.16;17 / 19;216532;2018-06-12 12:23:44:448
1.3743;9.9769;0.5555;0.1176;9.7564;0.9847;1.52;-1.5201;-1.9616;0.2377;-0.0819;0.0403;3651.0;40.02;-27.72;-5.82;267.7;-84.2;-6.81;3.1;996.18;50.658;23.03182;72.536934;8.38;NaN;;3.57;9.677419;294.16;18 / 20;217032;2018-06-12 12:23:44:948
-0.0335;7.4869;-0.7398;0.2177;9.6935;1.4692;-0.4907;-2.5897;0.2906;0.4583;-0.2334;-0.3091;3577.0;40.14;-26.04;-8.04;267.31;-81.29;-8.43;3.1;996.18;49.582;23.03182;72.536934;8.38;NaN;;3.57;9.677419;294.16;18 / 20;217531;2018-06-12 12:23:45:447
-1.1828;7.9729;0.3544;-0.0022;9.7701;0.8456;0.2751;-0.1499;0.8328;0.0514;0.2413;-0.5296;3188.0;41.52;-24.78;-8.82;279.36;-85.05;0.15;3.1;996.17;50.005;23.03182;72.536934;8.38;NaN;;3.57;9.677419;294.16;19 / 22;218032;2018-06-12 12:23:45:948
-1.403;9.2922;-0.1844;0.0304;9.7851;0.6485;-1.4334;-0.4929;-0.8328;-0.0805;0.6212;-0.0983;2934.0;38.94;-25.32;-8.64;267.76;-83.81;-11.37;3.1;996.17;54.173;23.03182;72.536934;8.38;NaN;;3.57;9.677419;294.16;19 / 22;218531;2018-06-12 12:23:46:447
-0.6201;11.3848;0.7614;-0.2248;9.8037;0.0875;-0.3953;1.5811;0.6739;0.3611;0.0128;-0.4643;2711.0;39.66;-24.78;-5.04;345.64;-88.59;68.74;3.1;996.17;49.858;23.03182;72.536934;8.38;NaN;;3.57;9.677419;294.16;19 / 23;219031;2018-06-12 12:23:46:947
-0.34;13.0296;5.1836;0.3424;9.7484;1.0107;0.8379;3.3387;-0.3594;-0.9125;-0.1418;0.2743;2335.0;38.52;-25.32;-11.64;264.59;-83.75;-18.72;3.1;996.19;53.303;23.03182;72.536934;8.38;NaN;;3.57;9.677419;294.16;19 / 23;219531;2018-06-12 12:23:47:447
0.9194;11.7224;1.6568;0.559;9.6094;1.8755;0.2168;2.18;0.4924;0.0801;-0.5871;0.1637;2507.0;34.62;-23.76;-18.66;274.78;-78.49;-16.6;3.1;996.19;58.178;23.03182;72.536934;8.38;NaN;;3.57;9.677419;294.16;19 / 23;220031;2018-06-12 12:23:47:947
0.8021;11.8349;4.1708;0.2969;9.6172;1.8953;0.5052;1.6742;1.2196;-0.4104;0.5772;0.0367;2409.0;34.2;-21.06;-21.48;286.74;-78.72;-8.9;3.1;996.19;55.158;23.03182;72.536934;8.38;NaN;;3.57;9.677419;294.16;19 / 23;220531;2018-06-12 12:23:48:447
-0.8117;9.9027;2.7055;0.633;9.2659;3.1483;-1.4447;0.6368;-0.4427;0.3007;0.3714;-0.1863;4068.0;31.56;-18.96;-25.74;288.06;-70.89;-11.37;3.1;996.21;58.556;23.03182;72.536934;8.38;NaN;;3.57;9.677419;294.16;18 / 22;221031;2018-06-12 12:23:48:947
0.2586;6.4837;2.2075;0.6029;9.0425;3.747;0.0363;-2.2643;-1.0367;-0.3151;-0.3201;-0.0886;5174.0;32.04;-16.5;-27.66;292.14;-68.35;-9.68;3.1;996.21;58.729;23.03182;72.536934;8.38;NaN;;3.57;9.677419;294.16;18 / 22;221532;2018-06-12 12:23:49:448
0.2706;6.7088;2.8971;0.5667;8.8259;4.2369;-0.3393;-1.8778;-0.5713;-0.0371;0.0097;0.0067;6626.0;32.34;-16.2;-26.4;289.43;-64.16;-7.62;3.1;996.2;53.212;23.03182;72.536934;8.38;NaN;;3.57;9.677419;294.16;19 / 23;222031;2018-06-12 12:23:49:947
0.1532;8.2363;4.7574;0.3294;8.8482;4.2155;0.6834;-0.5545;-0.3918;-0.2283;0.2223;-0.3042;7677.0;33.0;-15.12;-27.18;293.89;-64.46;-4.47;3.1;996.18;47.798;23.03182;72.536934;8.38;NaN;;3.57;9.677419;294.16;19 / 23;222531;2018-06-12 12:23:50:447
-0.0072;9.4358;5.7463;0.4594;8.789;4.3259;-1.2926;1.7482;2.3972;-0.1251;0.2156;0.1613;7136.0;32.76;-15.78;-25.44;288.78;-63.67;-6.06;3.1;996.16;48.577;23.03182;72.536934;8.38;NaN;;3.57;9.677419;294.16;18 / 22;223031;2018-06-12 12:23:50:947
-0.5076;10.1134;9.2299;0.4447;8.913;4.0658;0.3837;2.3137;0.5767;-0.1147;-0.187;0.1845;6414.0;33.3;-18.18;-23.52;287.13;-65.35;-6.24;3.1;996.17;58.073;23.03182;72.536934;8.38;NaN;;3.57;9.677419;294.16;18 / 22;223531;2018-06-12 12:23:51:447
0.68;9.6729;6.4813;0.7276;8.7746;4.3183;-0.0141;1.1521;1.0569;0.115;0.0177;-0.0305;6001.0;32.76;-17.22;-23.64;284.13;-64.47;-9.39;3.1;996.23;66.722;23.031864;72.53683;8.34;NaN;;3.7;9.677419;299.01;19 / 21;224031;2018-06-12 12:23:51:947
0.4118;8.5021;4.8963;0.6442;8.5598;4.7418;-0.2324;-0.0577;0.1545;0.1247;-0.1857;0.1203;6213.0;34.26;-17.64;-21.12;278.8;-60.72;-7.24;3.1;996.22;63.619;23.031864;72.53683;8.34;NaN;;3.7;9.677419;299.01;19 / 21;224531;2018-06-12 12:23:52:447
0.3184;8.6577;3.0479;0.485;8.6668;4.5632;-0.0803;-0.5238;-2.267;0.4149;0.5785;0.0837;4899.0;35.04;-19.56;-19.8;277.63;-62.1;-6.07;3.1;996.2;70.121;23.031864;72.53683;8.34;NaN;;3.7;9.677419;299.01;18 / 22;225031;2018-06-12 12:23:52:947
-0.4932;7.3001;1.8867;0.2091;8.6166;4.6777;-0.7023;-1.3165;-2.791;0.3691;0.3952;0.113;5532.0;36.54;-21.78;-11.76;267.83;-61.48;-2.56;3.1;996.23;64.773;23.031864;72.53683;8.34;NaN;;3.7;9.677419;299.01;18 / 22;225531;2018-06-12 12:23:53:447
-0.8667;7.3265;4.8867;-0.0251;8.7189;4.489;-0.4681;0.3099;1.5422;-0.3707;0.9016;-0.0739;6755.0;35.46;-25.08;-5.34;258.96;-62.76;0.32;3.1;996.21;56.095;23.031864;72.53683;8.34;NaN;;3.7;9.677419;299.01;21 / 23;226031;2018-06-12 12:23:53:947
-1.0678;9.2443;8.9043;-0.2023;8.631;4.6513;-1.7945;1.1472;6.5874;-0.7531;0.3921;0.4789;9328.0;32.64;-28.56;2.46;246.66;-61.66;2.49;3.1;996.19;56.183;23.031864;72.53683;8.34;NaN;;3.7;9.677419;299.01;21 / 23;226531;2018-06-12 12:23:54:447