sep=;
ACCELEROMETER X (m/s²);ACCELEROMETER Y (m/s²);ACCELEROMETER Z (m/s²);GRAVITY X (m/s²);GRAVITY Y (m/s²);GRAVITY Z (m/s²);LINEAR ACCELERATION X (m/s²);LINEAR ACCELERATION Y (m/s²);LINEAR ACCELERATION Z (m/s²);GYROSCOPE X (rad/s);GYROSCOPE Y (rad/s);GYROSCOPE Z (rad/s);LIGHT (lux);MAGNETIC FIELD X (μT);MAGNETIC FIELD Y (μT);MAGNETIC FIELD Z (μT);ORIENTATION Z (azimuth °);ORIENTATION X (pitch °);ORIENTATION Y (roll °);PROXIMITY (i);ATMOSPHERIC PRESSURE (hPa);SOUND LEVEL (dB);LOCATION Latitude : ;LOCATION Longitude : ;LOCATION Altitude ( m);LOCATION Altitude-google ( m);LOCATION Altitude-atmospheric pressure ( m);LOCATION Speed ( Kmh);LOCATION Accuracy ( m);LOCATION ORIENTATION (°);Satellites in range;Time since start in ms ;YYYY-MO-DD HH-MI-SS_SSS
0.764;7.52;0.857;1.016;9.615;1.637;-0.466;-1.913;-1.022;0.029;-0.231;-0.533;8.0;29.4;-26.5;-20.0;262.3;-78.3;-33.8;3.0;1001.2;61.65;23.02592;72.54061;-2.0;157.10551631491586;;4.1;9.67742;295.1;18 / 21;7;2018-08-23 20:57:11:934
-0.273;7.456;1.178;0.694;9.645;1.632;-0.941;-2.208;-0.317;-0.054;0.364;-0.095;8.0;29.9;-25.0;-20.6;272.6;-79.6;-25.9;3.0;1001.2;61.65;23.02592;72.54061;-2.0;157.10551631491586;;4.1;9.67742;295.1;18 / 21;107;2018-08-23 20:57:12:034
1.432;8.521;0.517;0.84;9.625;1.683;0.642;-1.154;-1.068;-0.143;-0.578;0.185;12.0;30.2;-25.2;-20.2;271.7;-79.4;-24.5;3.0;1001.2;61.65;23.02592;72.54061;-2.0;157.10551631491586;;4.1;9.67742;295.1;18 / 21;206;2018-08-23 20:57:12:133
1.767;11.835;0.836;0.855;9.668;1.403;1.527;1.575;-1.185;0.232;0.16;-0.531;12.0;29.0;-25.2;-21.7;269.3;-79.8;-30.8;3.0;1001.2;66.81;23.02592;72.54061;-2.0;157.10551631491586;;4.1;9.67742;295.1;18 / 21;306;2018-08-23 20:57:12:233
0.453;14.488;0.979;0.521;9.734;1.075;-0.154;4.816;-0.198;0.058;-0.158;0.078;17.0;30.1;-24.3;-21.8;275.8;-83.0;-25.9;3.0;1001.2;66.81;23.02592;72.54061;-2.0;157.10551631491586;;4.1;9.67742;295.1;18 / 21;406;2018-08-23 20:57:12:333
0.22;10.623;1.772;0.743;9.715;1.116;-0.438;0.844;0.395;0.011;-0.511;0.337;17.0;29.2;-25.4;-21.2;266.8;-82.1;-33.6;3.0;1001.2;66.81;23.02592;72.54059;-2.0;157.10551631491586;;4.2;9.67742;289.9;19 / 22;506;2018-08-23 20:57:12:433
1.063;6.299;2.617;0.943;9.64;1.535;0.276;-3.139;0.795;-0.189;0.126;-0.229;16.0;28.4;-25.7;-23.0;268.4;-79.8;-33.6;3.0;1001.2;65.87;23.02592;72.54059;-2.0;157.10551631491586;;4.2;9.67742;289.9;19 / 22;606;2018-08-23 20:57:12:533
0.546;6.589;-0.273;0.697;9.708;1.201;-0.311;-3.011;-1.347;0.364;-0.453;0.019;16.0;28.1;-24.9;-23.3;274.4;-80.9;-28.0;3.0;1001.2;65.87;23.02592;72.54059;-2.0;157.10551631491586;;4.2;9.67742;289.9;19 / 22;706;2018-08-23 20:57:12:633
0.263;9.694;-0.678;0.752;9.719;1.066;-0.539;-0.897;-1.95;-0.021;-0.125;0.061;22.0;27.6;-24.9;-23.6;269.5;-82.3;-34.6;3.0;1001.2;65.87;23.02592;72.54059;-2.0;157.10551631491586;;4.2;9.67742;289.9;19 / 22;806;2018-08-23 20:57:12:733
0.362;13.655;2.852;0.801;9.716;1.063;-0.425;3.984;1.906;-0.118;-0.585;0.099;23.0;26.1;-25.0;-25.0;271.4;-82.2;-37.0;3.0;1001.2;64.73;23.02592;72.54059;-2.0;157.10551631491586;;4.2;9.67742;289.9;19 / 22;906;2018-08-23 20:57:12:833
1.295;11.777;2.327;1.065;9.702;0.952;0.137;2.976;0.315;0.115;-0.104;0.28;23.0;24.5;-25.3;-26.5;265.7;-81.9;-45.9;3.0;1001.2;64.73;23.02592;72.54059;-2.0;157.10551631491586;;4.2;9.67742;289.9;19 / 22;1006;2018-08-23 20:57:12:933
2.088;9.237;-0.366;1.269;9.698;0.716;0.774;-0.549;-1.13;-0.375;-0.555;-0.076;31.0;23.7;-25.8;-27.0;256.6;-81.5;-57.0;3.0;1001.2;64.73;23.02592;72.54059;-2.0;157.10551631491586;;4.2;9.67742;289.9;19 / 22;1106;2018-08-23 20:57:13:033
0.323;6.884;2.349;1.131;9.688;1.014;-0.808;-2.805;1.335;0.216;0.343;-0.32;31.0;22.7;-25.7;-28.1;264.5;-80.8;-49.5;3.0;1001.2;67.21;23.02592;72.54059;-2.0;157.10551631491586;;4.2;9.67742;289.9;19 / 22;1206;2018-08-23 20:57:13:133
-0.34;8.421;0.06;0.943;9.713;0.973;-1.28;-1.27;-0.958;-0.451;-0.147;0.287;32.0;24.5;-25.1;-28.0;267.7;-82.5;-45.5;3.0;1001.2;67.21;23.02592;72.54059;-2.0;157.10551631491586;;4.2;9.67742;289.9;19 / 22;1307;2018-08-23 20:57:13:234
1.475;9.591;-0.069;1.27;9.639;1.287;0.205;-0.047;-1.356;-0.554;-0.361;0.178;32.0;22.9;-24.4;-29.2;269.7;-80.4;-45.6;3.0;1001.2;67.21;23.02592;72.54059;-2.0;157.10551631491586;;4.2;9.67742;289.9;19 / 22;1406;2018-08-23 20:57:13:333
1.274;12.022;2.89;1.277;9.626;1.373;0.322;1.587;1.543;0.309;0.346;-0.266;32.0;22.0;-24.1;-30.7;273.9;-78.8;-43.5;3.0;1001.2;67.21;23.02593;72.54058;-2.1;157.10551631491586;;4.3;9.67742;300.0;17 / 21;1506;2018-08-23 20:57:13:433
1.846;11.871;1.226;1.066;9.694;1.026;0.78;2.176;0.2;0.149;-0.198;-0.026;32.0;23.5;-24.8;-28.5;269.3;-81.2;-45.1;3.0;1001.2;68.92;23.02593;72.54058;-2.1;157.10551631491586;;4.3;9.67742;300.0;17 / 21;1606;2018-08-23 20:57:13:533
0.553;10.36;1.908;1.009;9.709;0.945;-0.394;0.592;1.267;0.092;0.08;-0.074;32.0;23.6;-25.0;-28.0;269.6;-81.5;-46.4;3.0;1001.2;68.92;23.02593;72.54058;-2.1;157.10551631491586;;4.3;9.67742;300.0;17 / 21;1706;2018-08-23 20:57:13:633
0.448;7.748;2.67;1.022;9.658;1.359;-0.567;-1.92;1.272;-0.068;-0.045;-0.023;29.0;23.6;-24.8;-27.1;272.9;-80.3;-38.7;3.0;1001.2;68.92;23.02593;72.54058;-2.1;157.10551631491586;;4.3;9.67742;300.0;17 / 21;1806;2018-08-23 20:57:13:733
0.601;7.745;0.065;0.828;9.671;1.396;0.115;-2.67;-1.636;-0.201;-0.207;-0.405;29.0;23.2;-23.2;-28.5;283.8;-80.5;-30.7;3.0;1001.2;64.55;23.02593;72.54058;-2.1;157.10551631491586;;4.3;9.67742;300.0;17 / 21;1906;2018-08-23 20:57:13:833
0.053;9.232;0.579;0.67;9.704;1.246;-0.644;-0.366;-0.604;0.157;0.114;-0.009;31.0;23.8;-23.0;-29.5;289.2;-81.1;-26.9;3.0;1001.2;64.55;23.02593;72.54058;-2.1;157.10551631491586;;4.3;9.67742;300.0;17 / 21;2006;2018-08-23 20:57:13:933
0.68;11.533;0.761;0.694;9.726;1.041;-0.055;1.759;-0.115;0.095;0.417;0.079;31.0;24.1;-23.3;-28.1;284.1;-82.3;-30.5;3.0;1001.2;64.55;23.02593;72.54058;-2.1;157.10551631491586;;4.3;9.67742;300.0;17 / 21;2106;2018-08-23 20:57:14:033
0.453;13.267;0.089;0.527;9.766;0.715;-0.096;3.572;-0.67;-0.093;-0.023;0.2;31.0;24.4;-23.9;-27.1;279.9;-83.7;-33.2;3.0;1001.2;65.69;23.02593;72.54058;-2.1;157.10551631491586;;4.3;9.67742;300.0;17 / 21;2206;2018-08-23 20:57:14:133
1.14;10.398;0.254;0.67;9.757;0.723;0.525;0.543;0.151;0.343;-0.373;0.034;31.0;24.8;-24.3;-26.6;273.9;-83.8;-37.9;3.0;1001.2;65.69;23.02593;72.54058;-2.1;157.10551631491586;;4.3;9.67742;300.0;17 / 21;2306;2018-08-23 20:57:14:233
-0.498;7.822;2.847;0.771;9.725;0.995;-1.252;-1.87;1.885;0.01;0.294;0.063;28.0;24.8;-25.4;-27.2;271.5;-83.6;-43.5;3.0;1001.2;65.69;23.02593;72.54058;-2.1;157.10551631491586;;4.3;9.67742;300.0;17 / 21;2406;2018-08-23 20:57:14:333
1.051;7.508;-0.306;0.818;9.712;1.081;0.233;-2.204;-1.388;-0.228;0.149;0.067;28.0;23.8;-24.4;-26.1;274.3;-82.3;-37.7;3.0;1001.2;63.68;23.02594;72.54057;-2.1;157.10551631491586;;4.3;9.67742;300.1;18 / 23;2506;2018-08-23 20:57:14:433
0.505;9.077;1.099;0.676;9.711;1.191;-0.059;-0.725;0.184;0.066;0.204;-0.101;28.0;25.3;-24.8;-25.9;279.8;-81.9;-30.6;3.0;1001.2;63.68;23.02594;72.54057;-2.1;157.10551631491586;;4.3;9.67742;300.1;18 / 23;2606;2018-08-23 20:57:14:533
0.737;10.848;1.123;0.547;9.713;1.238;0.274;1.03;-0.194;-0.078;0.255;-0.156;27.0;25.1;-24.1;-25.3;282.7;-82.1;-27.2;3.0;1001.2;63.68;23.02594;72.54057;-2.1;157.10551631491586;;4.3;9.67742;300.1;18 / 23;2706;2018-08-23 20:57:14:633
0.771;12.56;0.096;0.372;9.744;1.042;0.401;2.587;-0.659;0.201;-0.117;-0.172;27.0;26.7;-24.1;-25.4;287.4;-82.5;-21.8;3.0;1001.2;63.93;23.02594;72.54057;-2.1;157.10551631491586;;4.3;9.67742;300.1;18 / 23;2806;2018-08-23 20:57:14:733
0.496;10.772;2.033;0.41;9.725;1.194;0.658;1.066;0.42;-0.592;0.115;-0.055;25.0;27.0;-24.1;-25.1;288.1;-83.2;-20.3;3.0;1001.2;63.93;23.02594;72.54057;-2.1;157.10551631491586;;4.3;9.67742;300.1;18 / 23;2907;2018-08-23 20:57:14:834
-0.85;9.089;2.265;0.263;9.701;1.413;-1.154;-0.557;0.284;0.047;-0.632;-0.034;25.0;27.7;-23.5;-24.8;295.6;-81.5;-13.4;3.0;1001.2;63.93;23.02594;72.54057;-2.1;157.10551631491586;;4.3;9.67742;300.1;18 / 23;3006;2018-08-23 20:57:14:933
0.412;8.495;-0.002;0.331;9.693;1.449;-0.128;-1.206;-1.42;0.053;-0.007;0.169;25.0;26.5;-23.5;-25.8;297.2;-81.2;-12.4;3.0;1001.2;63.93;23.02594;72.54057;-2.1;157.10551631491586;;4.3;9.67742;300.1;18 / 23;3106;2018-08-23 20:57:15:033
0.158;8.84;1.214;0.467;9.702;1.349;-0.326;-0.91;-0.283;0.035;0.006;0.047;25.0;26.2;-23.3;-26.0;293.1;-81.5;-16.5;3.0;1001.2;65.74;23.02594;72.54057;-2.1;157.10551631491586;;4.3;9.67742;300.1;18 / 23;3206;2018-08-23 20:57:15:133
0.658;10.48;0.371;0.42;9.742;1.045;0.251;0.764;-0.698;0.557;-0.075;-0.118;26.0;25.6;-24.0;-25.7;289.6;-82.7;-20.7;3.0;1001.2;65.74;23.02594;72.54057;-2.1;157.10551631491586;;4.3;9.67742;300.1;18 / 23;3306;2018-08-23 20:57:15:233
0.642;11.217;1.252;0.351;9.781;0.612;0.276;1.448;0.669;0.35;-0.119;-0.033;26.0;25.6;-24.9;-25.6;285.5;-85.3;-26.3;3.0;1001.2;65.74;23.02594;72.54057;-2.1;157.10551631491586;;4.3;9.67742;300.1;18 / 23;3406;2018-08-23 20:57:15:333
1.01;11.263;2.006;0.327;9.784;0.588;0.602;1.81;0.866;-0.139;0.078;0.035;26.0;25.0;-25.0;-25.8;279.5;-86.4;-33.0;3.0;1001.2;68.06;23.02595;72.54056;-2.1;157.10551631491586;;4.4;9.67742;309.8;20 / 23;3506;2018-08-23 20:57:15:433
1.59;10.338;-0.175;0.307;9.784;0.588;1.287;0.693;-0.667;-0.31;-0.551;0.109;27.0;25.6;-25.2;-25.1;284.1;-86.3;-27.3;3.0;1001.2;68.06;23.02595;72.54056;-2.1;157.10551631491586;;4.4;9.67742;309.8;20 / 23;3606;2018-08-23 20:57:15:533
0.146;8.322;2.389;0.488;9.753;0.905;0.041;-1.236;1.511;0.077;0.147;-0.167;27.0;24.4;-24.0;-27.7;284.4;-84.6;-30.5;3.0;1001.2;68.06;23.02595;72.54056;-2.1;157.10551631491586;;4.4;9.67742;309.8;20 / 23;3706;2018-08-23 20:57:15:633
0.527;7.767;-0.419;0.433;9.749;0.965;0.015;-1.975;-1.242;-0.016;-0.509;-0.052;27.0;24.0;-24.5;-27.7;291.2;-83.8;-24.2;3.0;1001.2;65.59;23.02595;72.54056;-2.1;157.10551631491586;;4.4;9.67742;309.8;20 / 23;3806;2018-08-23 20:57:15:733
0.771;8.193;-0.204;0.387;9.754;0.941;0.51;-1.505;-1.295;-0.2;-0.029;-0.065;27.0;23.8;-23.2;-28.2;293.3;-84.1;-22.6;3.0;1001.2;65.59;23.02595;72.54056;-2.1;157.10551631491586;;4.4;9.67742;309.8;20 / 23;3906;2018-08-23 20:57:15:833
0.529;11.643;-0.187;0.24;9.757;0.953;0.227;2.027;-1.088;-0.33;-0.214;-0.177;28.0;24.3;-22.7;-28.1;298.4;-84.4;-16.7;3.0;1001.2;65.59;23.02595;72.54056;-2.1;157.10551631491586;;4.4;9.67742;309.8;20 / 23;4006;2018-08-23 20:57:15:933
0.46;12.757;0.951;0.097;9.739;1.147;0.391;3.044;-0.235;-0.291;-0.121;-0.119;28.0;24.4;-22.0;-28.7;309.0;-83.6;-8.3;3.0;1001.2;69.17;23.02595;72.54056;-2.1;157.10551631491586;;4.4;9.67742;309.8;20 / 23;4106;2018-08-23 20:57:16:033
-1.944;10.453;3.864;-0.158;9.719;1.297;-1.626;0.99;2.889;0.769;0.864;-0.335;27.0;24.2;-20.8;-28.6;319.7;-82.0;2.3;3.0;1001.2;69.17;23.02595;72.54056;-2.1;157.10551631491586;;4.4;9.67742;309.8;20 / 23;4206;2018-08-23 20:57:16:133
0.86;7.966;-0.393;-0.154;9.745;1.087;0.101;-0.977;-1.305;-0.71;-0.492;0.561;27.0;26.3;-21.3;-27.3;323.0;-83.8;11.4;3.0;1001.2;69.17;23.02595;72.54056;-2.1;157.10551631491586;;4.4;9.67742;309.8;20 / 23;4306;2018-08-23 20:57:16:233
0.072;8.263;1.216;0.092;9.694;1.482;0.107;-1.654;-0.172;-0.03;0.14;-0.062;26.0;24.6;-19.7;-29.3;310.5;-81.5;-4.8;3.0;1001.2;69.17;23.02595;72.54056;-2.1;157.10551631491586;;4.4;9.67742;309.8;20 / 23;4406;2018-08-23 20:57:16:333
0.575;9.122;0.704;0.234;9.677;1.571;0.34;-0.555;-0.867;-0.064;-0.143;0.178;26.0;26.1;-21.2;-29.5;307.9;-80.7;-6.9;3.0;1001.2;63.12;23.02595;72.54055;-2.1;157.10551631491586;;4.3;9.67742;309.1;18 / 23;4506;2018-08-23 20:57:16:433
0.151;11.282;1.293;0.263;9.694;1.46;-0.134;1.358;-0.172;0.292;-0.269;-0.081;26.0;24.5;-20.6;-29.6;306.6;-81.0;-10.4;3.0;1001.2;63.12;23.02595;72.54055;-2.1;157.10551631491586;;4.3;9.67742;309.1;18 / 23;4606;2018-08-23 20:57:16:533
0.639;12.879;1.159;0.391;9.729;1.167;0.617;2.85;0.093;0.077;-0.279;0.082;26.0;24.2;-22.0;-30.1;304.8;-82.2;-13.6;3.0;1001.2;63.12;23.02595;72.54055;-2.1;157.10551631491586;;4.3;9.67742;309.1;18 / 23;4706;2018-08-23 20:57:16:633
0.872;9.299;3.249;0.714;9.694;1.298;0.241;-0.447;1.659;0.175;-0.746;0.144;26.0;23.0;-21.7;-30.3;290.9;-81.4;-26.7;3.0;1001.2;62.47;23.02595;72.54055;-2.1;157.10551631491586;;4.3;9.67742;309.1;18 / 23;4806;2018-08-23 20:57:16:733
0.828;9.86;-0.46;0.641;9.734;1.0;0.187;0.125;-1.459;0.07;0.158;-0.247;25.0;21.1;-22.7;-32.5;289.3;-82.2;-33.0;3.0;1001.2;62.47;23.02595;72.54055;-2.1;157.10551631491586;;4.3;9.67742;309.1;18 / 23;4906;2018-08-23 20:57:16:833
-0.165;7.099;1.858;0.641;9.726;1.079;-0.818;-2.634;0.875;0.014;-0.318;0.009;25.0;20.9;-21.9;-32.1;291.8;-82.7;-30.9;3.0;1001.2;62.47;23.02595;72.54055;-2.1;157.10551631491586;;4.3;9.67742;309.1;18 / 23;5006;2018-08-23 20:57:16:933
0.108;8.251;0.089;0.602;9.751;0.848;-0.509;-1.553;-0.771;0.398;0.156;-0.034;14.0;20.9;-22.1;-31.6;289.8;-83.3;-33.2;3.0;1001.2;62.54;23.02595;72.54055;-2.1;157.10551631491586;;4.3;9.67742;309.1;18 / 23;5106;2018-08-23 20:57:17:033
1.379;10.547;-0.939;0.651;9.777;0.393;0.728;0.77;-1.332;0.278;0.24;0.105;14.0;21.8;-23.8;-30.2;280.0;-84.7;-42.6;3.0;1001.2;62.54;23.02595;72.54055;-2.1;157.10551631491586;;4.3;9.67742;309.1;18 / 23;5206;2018-08-23 20:57:17:133
-0.479;13.331;1.97;0.502;9.773;0.641;-0.651;3.243;1.396;-0.189;0.342;-0.712;12.0;22.0;-24.3;-29.9;263.7;-85.2;-56.9;3.0;1001.2;62.54;23.02595;72.54055;-2.1;157.10551631491586;;4.3;9.67742;309.1;18 / 23;5306;2018-08-23 20:57:17:233
-1.19;11.263;3.534;0.313;9.763;0.866;-1.786;2.103;2.773;-0.432;0.089;0.444;22.0;23.4;-21.8;-29.9;302.6;-85.2;-17.5;3.0;1001.2;62.82;23.02595;72.54055;-2.1;157.10551631491586;;4.3;9.67742;309.1;18 / 23;5406;2018-08-23 20:57:17:333
-1.281;7.133;0.455;0.509;9.727;1.139;-1.847;-2.247;-0.572;-0.165;0.495;0.343;22.0;24.1;-22.2;-29.9;289.2;-83.2;-27.3;3.0;1001.2;62.82;23.02596;72.54054;-2.1;157.10551631491586;;4.3;9.67742;308.7;16 / 21;5506;2018-08-23 20:57:17:433
-0.132;6.769;-1.015;0.438;9.729;1.155;-0.52;-2.831;-2.192;0.212;1.022;-0.059;22.0;24.8;-23.1;-27.8;292.1;-82.5;-21.7;3.0;1001.2;62.82;23.02596;72.54054;-2.1;157.10551631491586;;4.3;9.67742;308.7;16 / 21;5606;2018-08-23 20:57:17:533
-0.364;9.939;2.354;0.266;9.723;1.248;-0.72;0.342;1.206;0.092;1.024;-0.071;22.0;27.7;-22.0;-25.6;295.0;-82.4;-14.6;3.0;1001.2;62.82;23.02596;72.54054;-2.1;157.10551631491586;;4.3;9.67742;308.7;16 / 21;5706;2018-08-23 20:57:17:633
-0.419;13.353;1.013;0.064;9.759;0.967;-0.519;3.644;0.166;0.191;0.503;0.116;20.0;30.5;-22.9;-22.0;299.4;-84.1;-3.5;3.0;1001.2;63.36;23.02596;72.54054;-2.1;157.10551631491586;;4.3;9.67742;308.7;16 / 21;5806;2018-08-23 20:57:17:733
0.208;12.189;1.592;0.184;9.755;0.99;0.153;2.501;0.406;-0.073;0.454;-0.019;20.0;30.6;-22.9;-21.5;291.1;-84.3;-10.9;3.0;1001.2;63.36;23.02596;72.54054;-2.1;157.10551631491586;;4.3;9.67742;308.7;16 / 21;5906;2018-08-23 20:57:17:833
1.178;9.84;0.742;0.195;9.769;0.836;1.179;0.05;0.496;0.048;-0.632;-0.024;17.0;30.7;-23.6;-20.0;287.8;-84.9;-11.8;3.0;1001.2;63.36;23.02596;72.54054;-2.1;157.10551631491586;;4.3;9.67742;308.7;16 / 21;6006;2018-08-23 20:57:17:933
-1.398;7.686;1.614;0.034;9.776;0.778;-1.523;-2.167;0.855;0.301;0.803;-0.226;17.0;31.2;-23.0;-20.2;289.1;-84.9;-11.8;3.0;1001.2;62.89;23.02596;72.54054;-2.1;157.10551631491586;;4.3;9.67742;308.7;16 / 21;6106;2018-08-23 20:57:18:033
-0.426;7.197;-0.529;-0.025;9.771;0.832;-0.399;-2.505;-1.224;-0.103;0.296;0.007;16.0;32.2;-23.2;-18.2;298.8;-85.3;2.1;3.0;1001.2;62.89;23.02596;72.54054;-2.1;157.10551631491586;;4.3;9.67742;308.7;16 / 21;6207;2018-08-23 20:57:18:134
0.158;10.142;-0.117;-0.05;9.775;0.786;0.304;0.518;-0.867;-0.195;0.13;0.139;14.0;32.7;-22.8;-17.2;299.5;-85.4;4.8;3.0;1001.2;62.89;23.02596;72.54054;-2.1;157.10551631491586;;4.3;9.67742;308.7;16 / 21;6306;2018-08-23 20:57:18:233
0.01;11.902;2.193;0.053;9.783;0.675;-0.048;2.25;1.446;0.182;0.432;0.064;14.0;33.3;-24.2;-16.2;289.7;-85.9;-3.6;3.0;1001.2;62.44;23.02596;72.54054;-2.1;157.10551631491586;;4.3;9.67742;308.7;16 / 21;6406;2018-08-23 20:57:18:333
-0.338;11.186;1.235;0.085;9.786;0.625;-0.286;1.563;0.144;0.003;0.503;-0.027;14.0;33.2;-24.3;-15.4;287.0;-86.4;-6.5;3.0;1001.2;62.44;23.02597;72.54053;-2.1;157.10551631491586;;4.3;9.67742;301.6;19 / 23;6506;2018-08-23 20:57:18:433
-1.008;9.51;0.395;-0.006;9.79;0.565;-1.057;-0.034;-0.229;-0.322;0.191;0.137;14.0;33.3;-23.9;-13.1;290.2;-86.9;0.7;3.0;1001.2;62.44;23.02597;72.54053;-2.1;157.10551631491586;;4.3;9.67742;301.6;19 / 23;6606;2018-08-23 20:57:18:533
-0.56;7.635;1.41;-0.09;9.759;0.959;-0.458;-2.133;0.425;-0.124;0.307;-0.013;13.0;34.4;-23.0;-13.5;290.8;-85.2;1.4;3.0;1001.2;63.84;23.02597;72.54053;-2.1;157.10551631491586;;4.3;9.67742;301.6;19 / 23;6706;2018-08-23 20:57:18:633
0.419;8.143;-0.62;-0.037;9.758;0.973;0.611;-1.876;-1.51;0.011;0.005;0.054;13.0;34.1;-24.1;-13.1;289.4;-84.3;2.2;3.0;1001.2;63.84;23.02597;72.54053;-2.1;157.10551631491586;;4.3;9.67742;301.6;19 / 23;6807;2018-08-23 20:57:18:734
-0.153;10.796;1.065;0.024;9.782;0.697;-0.17;1.158;0.373;0.219;-0.253;0.132;11.0;34.0;-24.2;-13.6;288.9;-85.5;-0.6;3.0;1001.2;63.84;23.02597;72.54053;-2.1;157.10551631491586;;4.3;9.67742;301.6;19 / 23;6906;2018-08-23 20:57:18:833
0.23;13.061;0.924;0.086;9.799;0.385;0.144;3.262;0.54;0.369;-0.043;-0.048;11.0;33.8;-25.1;-12.6;277.7;-87.3;-11.4;3.0;1001.2;63.84;23.02597;72.54053;-2.1;157.10551631491586;;4.3;9.67742;301.6;19 / 23;7006;2018-08-23 20:57:18:933
1.013;10.688;1.707;0.122;9.803;0.24;0.877;0.923;1.463;0.228;-0.21;0.014;8.0;33.2;-24.7;-13.0;268.5;-88.3;-21.8;3.0;1001.2;65.37;23.02597;72.54053;-2.1;157.10551631491586;;4.3;9.67742;301.6;19 / 23;7106;2018-08-23 20:57:19:033
0.271;9.453;0.304;0.006;9.806;0.068;0.585;0.101;-0.592;-0.237;0.156;-0.044;9.0;34.4;-25.4;-12.7;276.0;-89.6;-14.7;3.0;1001.2;65.37;23.02597;72.54053;-2.1;157.10551631491586;;4.3;9.67742;301.6;19 / 23;7206;2018-08-23 20:57:19:133
-0.333;6.864;0.192;0.088;9.8;0.363;-0.569;-2.679;0.607;0.045;-0.355;0.181;9.0;32.8;-24.7;-13.2;281.2;-88.3;-9.7;3.0;1001.2;65.37;23.02597;72.54053;-2.1;157.10551631491586;;4.3;9.67742;301.6;19 / 23;7306;2018-08-23 20:57:19:233
0.974;7.116;-0.644;0.221;9.798;0.345;0.341;-3.788;-1.453;0.0;-0.078;-0.144;11.0;31.7;-24.8;-14.9;260.7;-87.6;-32.7;3.0;1001.2;66.57;23.02597;72.54053;-2.1;157.10551631491586;;4.3;9.67742;301.6;19 / 23;7410;2018-08-23 20:57:19:337
0.541;10.834;0.503;0.082;9.805;0.167;0.471;1.115;0.377;0.123;0.1;-0.082;11.0;32.6;-25.7;-14.3;270.7;-88.4;-21.2;3.0;1001.2;66.57;23.02597;72.54052;-2.1;157.10551631491586;;4.3;9.67742;296.4;18 / 21;7506;2018-08-23 20:57:19:433
0.273;13.458;0.158;-0.011;9.806;0.095;0.226;3.714;0.197;0.16;-0.147;-0.031;9.0;32.8;-25.4;-14.0;281.5;-89.0;-10.8;3.0;1001.2;66.57;23.02597;72.54052;-2.1;157.10551631491586;;4.3;9.67742;296.4;18 / 21;7606;2018-08-23 20:57:19:533
-1.324;10.662;2.629;-0.022;9.806;0.053;-1.656;1.463;2.847;0.558;0.856;0.184;9.0;33.5;-24.8;-13.1;310.9;-89.2;19.8;3.0;1001.2;67.09;23.02597;72.54052;-2.1;157.10551631491586;;4.3;9.67742;296.4;18 / 21;7706;2018-08-23 20:57:19:633
-0.163;7.841;0.704;0.165;9.8;0.31;-0.471;-1.696;0.124;-0.625;0.185;0.235;8.0;33.5;-26.0;-11.1;190.2;-89.5;-98.2;3.0;1001.2;67.09;23.02597;72.54052;-2.1;157.10551631491586;;4.3;9.67742;296.4;18 / 21;7806;2018-08-23 20:57:19:733
0.752;7.159;-0.498;0.16;9.788;0.575;0.592;-2.63;-1.073;-0.174;-0.036;0.019;8.0;32.9;-25.8;-11.8;271.5;-86.7;-17.5;3.0;1001.2;67.09;23.02597;72.54052;-2.1;157.10551631491586;;4.3;9.67742;296.4;18 / 21;7906;2018-08-23 20:57:19:833
0.036;9.86;0.936;0.169;9.773;0.796;-0.1;-0.023;0.03;0.068;0.338;-0.063;10.0;33.4;-25.8;-13.3;274.4;-85.4;-13.6;3.0;1001.2;65.94;23.02597;72.54052;-2.1;157.10551631491586;;4.3;9.67742;296.4;18 / 21;8006;2018-08-23 20:57:19:933
-0.089;10.992;0.951;0.217;9.777;0.726;-0.315;1.272;0.349;0.12;-0.162;0.006;8.0;33.2;-24.8;-11.5;269.4;-85.5;-15.8;3.0;1001.2;65.94;23.02597;72.54052;-2.1;157.10551631491586;;4.3;9.67742;296.4;18 / 21;8106;2018-08-23 20:57:20:033
-0.134;13.152;0.668;0.106;9.788;0.597;-0.316;3.268;0.257;-0.255;0.14;0.07;8.0;32.8;-25.5;-12.0;275.1;-86.7;-12.4;3.0;1001.2;65.94;23.02597;72.54052;-2.1;157.10551631491586;;4.3;9.67742;296.4;18 / 21;8206;2018-08-23 20:57:20:133
1.281;10.022;1.872;0.255;9.784;0.614;1.026;0.238;1.259;-0.238;-0.621;0.048;7.0;33.6;-25.5;-12.1;267.9;-86.2;-19.4;3.0;1001.2;65.94;23.02597;72.54052;-2.1;157.10551631491586;;4.3;9.67742;296.4;18 / 21;8306;2018-08-23 20:57:20:233
-0.019;7.578;1.973;0.289;9.759;0.926;-0.32;-2.241;0.954;-0.207;-0.19;-0.075;7.0;32.6;-25.3;-12.7;268.6;-84.7;-19.2;3.0;1001.2;66.42;23.02597;72.54052;-2.1;157.10551631491586;;4.3;9.67742;296.4;18 / 21;8407;2018-08-23 20:57:20:334
-0.029;8.552;-0.512;0.104;9.771;0.825;-0.108;-1.209;-1.367;0.288;0.037;-0.082;9.0;33.2;-25.4;-13.7;277.5;-84.4;-10.0;3.0;1001.2;66.42;23.02598;72.54051;-2.1;157.10551631491586;;4.3;9.67742;295.4;19 / 22;8506;2018-08-23 20:57:20:433
1.238;9.158;0.156;0.275;9.778;0.7;0.977;-0.605;-0.482;-0.018;0.105;0.153;9.0;32.9;-25.5;-13.2;271.2;-85.6;-17.1;3.0;1001.2;66.42;23.02598;72.54051;-2.1;157.10551631491586;;4.3;9.67742;295.4;19 / 22;8606;2018-08-23 20:57:20:533
-0.022;11.157;1.815;0.32;9.788;0.514;-0.342;1.369;1.301;0.175;-0.229;-0.008;3.0;33.2;-25.4;-12.2;259.3;-86.1;-29.5;3.0;1001.2;65.65;23.02598;72.54051;-2.1;157.10551631491586;;4.3;9.67742;295.4;19 / 22;8706;2018-08-23 20:57:20:633
0.998;12.572;-0.359;0.283;9.796;0.36;0.771;2.848;-0.843;-0.007;0.004;-0.012;3.0;33.0;-25.9;-13.1;251.4;-86.9;-36.4;3.0;1001.2;65.65;23.02598;72.54051;-2.1;157.10551631491586;;4.3;9.67742;295.4;19 / 22;8806;2018-08-23 20:57:20:733
-0.275;10.633;0.903;0.195;9.798;0.368;-0.597;0.909;-0.052;0.16;-0.291;-0.195;3.0;33.1;-25.6;-12.7;257.7;-87.4;-32.0;3.0;1001.2;65.65;23.02598;72.54051;-2.1;157.10551631491586;;4.3;9.67742;295.4;19 / 22;8906;2018-08-23 20:57:20:833
-0.079;8.306;0.713;0.247;9.78;0.682;-0.273;-1.476;-0.026;-0.341;-0.068;0.09;5.0;32.6;-26.2;-13.6;269.1;-86.5;-22.0;3.0;1001.2;65.1;23.02598;72.54051;-2.1;157.10551631491586;;4.3;9.67742;295.4;19 / 22;9006;2018-08-23 20:57:20:933
1.065;8.624;-0.297;0.331;9.764;0.853;0.708;-1.07;-1.159;-0.112;-0.17;0.005;5.0;32.9;-25.9;-13.9;268.6;-84.7;-20.5;3.0;1001.2;65.1;23.02598;72.54051;-2.1;157.10551631491586;;4.3;9.67742;295.4;19 / 22;9106;2018-08-23 20:57:21:033
-0.551;9.8;0.165;0.275;9.777;0.707;-0.914;0.193;-0.49;0.263;0.028;-0.121;3.0;32.8;-24.8;-15.8;269.6;-84.8;-21.9;3.0;1001.2;65.1;23.02598;72.54051;-2.1;157.10551631491586;;4.3;9.67742;295.4;19 / 22;9206;2018-08-23 20:57:21:133
0.141;10.69;0.769;0.309;9.787;0.53;-0.172;0.853;0.277;0.306;-0.217;0.043;3.0;32.8;-25.9;-15.4;267.6;-86.2;-24.3;3.0;1001.2;64.42;23.02598;72.54051;-2.1;157.10551631491586;;4.3;9.67742;295.4;19 / 22;9306;2018-08-23 20:57:21:233
0.572;11.756;-0.694;0.323;9.793;0.401;0.294;1.92;-1.22;-0.293;-0.256;-0.144;4.0;31.6;-25.8;-15.0;248.2;-87.2;-45.0;3.0;1001.2;64.42;23.02598;72.54051;-2.1;157.10551631491586;;4.3;9.67742;295.4;19 / 22;9409;2018-08-23 20:57:21:336
0.704;10.793;0.721;0.219;9.795;0.413;0.604;1.024;0.032;-0.146;-0.727;-0.005;4.0;31.7;-25.0;-15.2;264.0;-87.3;-29.2;3.0;1001.2;64.42;23.02598;72.54051;-2.1;157.10551631491586;;4.3;9.67742;281.9;19 / 23;9506;2018-08-23 20:57:21:433
0.371;9.024;1.152;0.312;9.784;0.581;0.361;-0.701;0.602;-0.062;0.064;-0.018;4.0;31.1;-23.8;-16.4;266.7;-86.3;-28.0;3.0;1001.2;64.42;23.02598;72.54051;-2.1;157.10551631491586;;4.3;9.67742;281.9;19 / 23;9606;2018-08-23 20:57:21:533
0.486;7.257;0.491;0.484;9.771;0.687;0.05;-2.523;-0.263;0.028;-0.357;0.195;4.0;30.7;-24.7;-18.2;266.8;-85.6;-28.8;3.0;1001.2;64.01;23.02598;72.54051;-2.1;157.10551631491586;;4.3;9.67742;281.9;19 / 23;9707;2018-08-23 20:57:21:634
1.171;8.361;-0.474;0.59;9.772;0.577;0.595;-1.423;-1.01;0.099;0.062;0.088;4.0;29.5;-25.2;-18.5;254.2;-85.1;-43.4;3.0;1001.2;64.01;23.02598;72.54051;-2.1;157.10551631491586;;4.3;9.67742;281.9;19 / 23;9806;2018-08-23 20:57:21:733
0.728;10.827;1.18;0.592;9.778;0.461;0.171;1.147;0.885;0.135;0.367;-0.086;3.0;29.9;-25.5;-18.2;246.6;-85.5;-51.4;3.0;1001.2;64.01;23.02598;72.54051;-2.1;157.10551631491586;;4.3;9.67742;281.9;19 / 23;9906;2018-08-23 20:57:21:833
0.912;13.427;-0.148;0.488;9.791;0.248;0.424;3.636;-0.396;0.136;-0.286;-0.133;3.0;29.8;-25.6;-17.5;234.6;-86.8;-63.1;3.0;1001.2;64.09;23.02598;72.54051;-2.1;157.10551631491586;;4.3;9.67742;281.9;19 / 23;10006;2018-08-23 20:57:21:933
-0.376;10.54;1.69;0.441;9.79;0.357;-0.745;0.69;1.417;0.378;0.158;-0.348;5.0;30.1;-24.7;-18.0;247.8;-86.7;-51.0;3.0;1001.2;64.09;23.02598;72.54051;-2.1;157.10551631491586;;4.3;9.67742;281.9;19 / 23;10107;2018-08-23 20:57:22:034
-0.455;8.928;-0.103;0.342;9.796;0.297;-0.809;-0.784;-0.41;-0.381;0.254;0.193;5.0;30.7;-25.3;-16.3;241.1;-87.7;-54.8;3.0;1001.2;64.09;23.02598;72.54051;-2.1;157.10551631491586;;4.3;9.67742;281.9;19 / 23;10206;2018-08-23 20:57:22:133
0.8;8.052;0.704;0.488;9.771;0.676;0.335;-1.755;0.044;-0.179;0.33;0.158;4.0;30.4;-25.7;-16.4;258.6;-85.1;-35.8;3.0;1001.2;67.2;23.02598;72.54051;-2.1;157.10551631491586;;4.3;9.67742;281.9;19 / 23;10306;2018-08-23 20:57:22:233
-0.007;9.309;-0.089;0.499;9.773;0.637;-0.504;-0.488;-0.76;0.111;0.155;0.068;4.0;30.3;-24.9;-15.2;258.3;-85.0;-35.6;3.0;1001.2;67.2;23.02598;72.54051;-2.1;157.10551631491586;;4.3;9.67742;281.9;19 / 23;10406;2018-08-23 20:57:22:333
0.575;10.86;0.29;0.483;9.784;0.465;0.048;1.228;-0.039;0.278;0.111;-0.103;3.0;31.6;-25.9;-15.2;250.3;-85.6;-43.3;3.0;1001.2;67.2;23.02599;72.54049;-2.1;157.10551631491586;;4.3;9.67742;287.2;19 / 22;10506;2018-08-23 20:57:22:433
0.979;11.665;0.271;0.411;9.796;0.187;0.732;1.986;-0.156;0.125;-0.513;-0.063;3.0;30.8;-26.3;-13.8;231.5;-87.1;-58.9;3.0;1001.2;66.07;23.02599;72.54049;-2.1;157.10551631491586;;4.3;9.67742;287.2;19 / 22;10606;2018-08-23 20:57:22:533
1.52;9.994;2.655;0.353;9.798;0.199;1.249;-0.042;2.705;0.026;0.044;-0.015;3.0;32.8;-26.0;-15.2;232.4;-87.7;-62.1;3.0;1001.2;66.07;23.02599;72.54049;-2.1;157.10551631491586;;4.3;9.67742;287.2;19 / 22;10706;2018-08-23 20:57:22:633
1.164;9.469;-0.814;0.314;9.799;0.219;0.727;-0.588;-0.77;-0.152;-0.34;-0.063;3.0;30.7;-24.7;-15.5;239.5;-87.9;-56.6;3.0;1001.2;66.07;23.02599;72.54049;-2.1;157.10551631491586;;4.3;9.67742;287.2;19 / 22;10806;2018-08-23 20:57:22:733
-0.304;7.575;-0.778;0.216;9.803;0.179;-0.47;-2.191;-1.017;0.061;-0.27;-0.178;3.0;31.1;-24.2;-16.3;245.4;-88.1;-52.2;3.0;1001.2;66.56;23.02599;72.54049;-2.1;157.10551631491586;;4.3;9.67742;287.2;19 / 22;10906;2018-08-23 20:57:22:833
0.455;8.768;-0.848;0.142;9.803;0.205;0.282;-0.949;-1.069;-0.001;-0.183;-0.076;3.0;30.8;-23.8;-17.9;259.3;-88.4;-39.8;3.0;1001.2;66.56;23.02599;72.54049;-2.1;157.10551631491586;;4.3;9.67742;287.2;19 / 22;11006;2018-08-23 20:57:22:933
0.804;11.129;-0.005;0.191;9.805;0.003;0.458;1.736;-0.032;0.21;-0.078;-0.051;3.0;30.6;-23.6;-16.9;222.3;-88.8;-75.9;3.0;1001.2;66.56;23.02599;72.54049;-2.1;157.10551631491586;;4.3;9.67742;287.2;19 / 22;11106;2018-08-23 20:57:23:033
0.656;12.455;0.464;0.351;9.8;-0.045;0.327;2.533;1.098;0.064;-0.933;0.009;3.0;30.2;-24.7;-17.4;196.9;-88.4;-101.5;3.0;1001.2;66.56;23.02599;72.54049;-2.1;157.10551631491586;;4.3;9.67742;287.2;19 / 22;11206;2018-08-23 20:57:23:133
-1.451;10.54;2.184;0.315;9.797;-0.31;-1.809;0.808;2.491;0.563;0.403;0.052;3.0;29.1;-24.8;-19.5;179.2;-87.8;-124.0;3.0;1001.2;67.34;23.02599;72.54049;-2.1;157.10551631491586;;4.3;9.67742;287.2;19 / 22;11306;2018-08-23 20:57:23:233
-0.017;8.033;-0.678;0.445;9.793;-0.249;-0.481;-1.495;-0.744;-0.322;0.241;0.25;3.0;28.5;-25.9;-18.8;183.8;-87.0;-119.3;3.0;1001.2;67.34;23.02599;72.54049;-2.1;157.10551631491586;;4.3;9.67742;287.2;19 / 22;11406;2018-08-23 20:57:23:333
-0.445;8.641;-0.115;0.4;9.798;-0.048;-0.879;-1.107;-0.11;-0.014;0.239;-0.079;3.0;29.8;-24.9;-18.8;199.9;-87.1;-100.4;3.0;1001.2;67.34;23.02599;72.54049;-2.1;157.10551631491586;;4.4;9.67742;307.8;17 / 21;11506;2018-08-23 20:57:23:433
-1.659;9.153;0.227;0.213;9.803;-0.132;-1.872;-0.65;0.359;0.185;0.472;-0.04;3.0;29.8;-24.7;-16.3;185.8;-88.3;-112.1;3.0;1001.2;63.94;23.02599;72.54049;-2.1;157.10551631491586;;4.4;9.67742;307.8;17 / 21;11606;2018-08-23 20:57:23:533
-1.987;10.303;-0.239;-0.16;9.801;-0.282;-1.834;0.453;0.047;0.379;1.104;-0.191;3.0;29.8;-25.2;-14.9;101.9;-88.7;164.4;3.0;1001.2;63.94;23.02599;72.54049;-2.1;157.10551631491586;;4.4;9.67742;307.8;17 / 21;11706;2018-08-23 20:57:23:633
0.699;10.47;-0.565;-0.322;9.796;-0.322;1.071;1.045;-0.499;-0.252;0.981;-0.185;3.0;32.6;-25.0;-9.0;72.6;-87.1;142.1;3.0;1001.2;63.94;23.02599;72.54049;-2.1;157.10551631491586;;4.4;9.67742;307.8;17 / 21;11806;2018-08-23 20:57:23:733
-0.424;11.916;1.501;-0.544;9.782;-0.429;0.003;1.95;2.758;0.4;1.369;-0.325;2.0;33.8;-24.8;-6.8;48.3;-86.6;124.8;3.0;1001.2;61.53;23.02599;72.54049;-2.1;157.10551631491586;;4.4;9.67742;307.8;17 / 21;11906;2018-08-23 20:57:23:833
-0.407;9.802;1.223;-0.539;9.789;-0.252;0.089;-0.075;1.605;-0.324;1.792;0.017;2.0;34.3;-23.7;-0.2;30.1;-86.3;118.8;3.0;1001.2;61.53;23.02599;72.54049;-2.1;157.10551631491586;;4.4;9.67742;307.8;17 / 21;12006;2018-08-23 20:57:23:933
1.98;7.846;-0.757;-0.457;9.795;0.125;2.471;-1.954;-0.97;-0.203;0.83;-0.115;4.0;33.2;-24.1;4.4;337.0;-87.2;74.7;3.0;1001.2;61.53;23.02599;72.54049;-2.1;157.10551631491586;;4.4;9.67742;307.8;17 / 21;12107;2018-08-23 20:57:24:034
1.535;8.689;-1.48;-0.448;9.795;0.158;1.993;-0.838;-1.693;-0.244;0.426;-0.145;4.0;33.4;-23.0;7.4;329.4;-87.2;72.0;3.0;1001.2;60.27;23.02599;72.54049;-2.1;157.10551631491586;;4.4;9.67742;307.8;17 / 21;12207;2018-08-23 20:57:24:134
2.366;10.456;-0.117;-0.088;9.804;0.22;2.444;0.745;-0.325;-0.205;-0.134;-0.128;6.0;33.4;-22.4;7.9;303.4;-88.2;47.6;3.0;1001.2;60.27;23.02599;72.54049;-2.1;157.10551631491586;;4.4;9.67742;307.8;17 / 21;12306;2018-08-23 20:57:24:233
3.177;11.117;0.69;0.236;9.801;0.253;2.925;1.242;0.645;-0.077;-1.032;0.045;6.0;34.3;-22.1;7.3;214.7;-88.0;-43.0;3.0;1001.2;60.27;23.02599;72.54049;-2.1;157.10551631491586;;4.4;9.67742;307.8;17 / 21;12406;2018-08-23 20:57:24:333
0.623;12.283;0.8;0.288;9.801;-0.167;0.433;2.779;0.986;0.238;-2.028;0.236;6.0;35.2;-21.7;2.3;178.3;-88.3;-86.8;3.0;1001.2;59.74;23.026;72.54048;-2.1;157.10551631491586;;4.4;9.67742;297.8;18 / 22;12506;2018-08-23 20:57:24:433
-0.206;9.855;1.106;0.413;9.792;-0.334;-0.549;0.041;1.172;0.311;-2.142;0.097;4.0;34.9;-22.2;-6.0;152.7;-86.8;-127.9;3.0;1001.2;59.74;23.026;72.54048;-2.1;157.10551631491586;;4.4;9.67742;297.8;18 / 22;12607;2018-08-23 20:57:24:534
-1.034;9.603;1.137;0.297;9.801;-0.156;-1.37;-0.006;1.528;-0.066;-1.649;0.178;4.0;34.1;-22.3;-11.9;164.4;-87.8;-121.9;3.0;1001.2;59.74;23.026;72.54048;-2.1;157.10551631491586;;4.4;9.67742;297.8;18 / 22;12706;2018-08-23 20:57:24:633
0.074;7.987;-0.338;0.405;9.798;0.121;-0.405;-1.607;-0.53;0.021;-1.564;0.064;2.0;31.4;-23.4;-19.3;229.2;-87.6;-71.2;3.0;1001.2;59.74;23.026;72.54048;-2.1;157.10551631491586;;4.4;9.67742;297.8;18 / 22;12807;2018-08-23 20:57:24:734
-0.474;9.137;-0.175;0.429;9.797;0.055;-0.898;-0.653;-0.24;-0.082;-1.114;0.196;2.0;28.9;-23.3;-22.7;225.3;-87.6;-82.1;3.0;1001.2;57.44;23.026;72.54048;-2.1;157.10551631491586;;4.4;9.67742;297.8;18 / 22;12906;2018-08-23 20:57:24:833
-0.634;10.123;-0.929;0.405;9.797;-0.133;-1.111;0.62;-0.971;0.328;-0.522;-0.114;3.0;26.2;-24.4;-25.9;216.3;-87.4;-97.7;3.0;1001.2;57.44;23.026;72.54048;-2.1;157.10551631491586;;4.4;9.67742;297.8;18 / 22;13006;2018-08-23 20:57:24:933
-2.313;12.587;-0.242;0.091;9.801;-0.325;-2.39;2.381;-0.068;-0.106;0.458;-0.329;3.0;25.3;-25.0;-27.3;161.3;-88.0;-156.3;3.0;1001.2;57.44;23.026;72.54048;-2.1;157.10551631491586;;4.4;9.67742;297.8;18 / 22;13106;2018-08-23 20:57:25:033
-0.206;10.535;0.405;-0.29;9.802;-0.074;0.017;1.08;-0.218;0.248;1.064;-0.53;3.0;27.1;-23.2;-25.4;55.4;-89.0;102.0;3.0;1001.2;57.38;23.026;72.54048;-2.1;157.10551631491586;;4.4;9.67742;297.8;18 / 22;13206;2018-08-23 20:57:25:133
0.316;8.933;2.181;-0.308;9.799;0.216;0.531;-0.455;1.711;-0.702;1.154;0.332;3.0;30.5;-22.0;-22.6;51.8;-87.6;99.9;3.0;1001.2;57.38;23.026;72.54048;-2.1;157.10551631491586;;4.4;9.67742;297.8;18 / 22;13306;2018-08-23 20:57:25:233
0.441;7.573;-0.371;-0.219;9.786;0.594;0.64;-2.268;-0.598;-0.013;0.924;-0.091;3.0;32.3;-21.5;-20.3;320.9;-86.3;20.2;3.0;1001.2;57.38;23.026;72.54048;-2.1;157.10551631491586;;4.4;9.67742;297.8;18 / 22;13406;2018-08-23 20:57:25:333
1.147;8.928;-1.166;-0.321;9.778;0.679;1.472;-0.677;-1.663;-0.226;0.985;-0.06;2.0;34.6;-20.4;-17.0;319.8;-85.7;25.5;3.0;1001.2;67.4;23.02601;72.54047;-2.1;157.10551631491586;;4.3;9.67742;299.1;20 / 23;13506;2018-08-23 20:57:25:433
0.915;10.978;1.082;-0.187;9.787;0.596;1.351;1.033;0.455;0.059;0.538;-0.087;2.0;36.1;-20.2;-13.6;309.0;-86.2;19.4;3.0;1001.2;67.4;23.02601;72.54047;-2.1;157.10551631491586;;4.3;9.67742;299.1;20 / 23;13606;2018-08-23 20:57:25:533
-0.73;12.132;0.56;-0.246;9.797;0.353;-0.597;2.43;0.124;0.346;0.446;-0.141;2.0;37.3;-20.6;-11.2;312.6;-87.2;27.2;3.0;1001.2;67.4;23.02601;72.54047;-2.1;157.10551631491586;;4.3;9.67742;299.1;20 / 23;13706;2018-08-23 20:57:25:633
-1.52;11.16;2.559;-0.15;9.797;0.405;-1.38;1.626;1.97;-0.185;0.817;0.422;2.0;37.7;-20.5;-10.6;317.5;-87.6;31.8;3.0;1001.2;60.21;23.02601;72.54047;-2.1;157.10551631491586;;4.3;9.67742;299.1;20 / 23;13806;2018-08-23 20:57:25:733
-0.611;8.579;1.152;0.069;9.779;0.737;-0.998;-0.985;0.867;-0.518;0.21;0.368;2.0;37.6;-21.4;-8.0;275.4;-86.4;-4.6;3.0;1001.2;60.21;23.02601;72.54047;-2.1;157.10551631491586;;4.3;9.67742;299.1;20 / 23;13906;2018-08-23 20:57:25:833
0.824;7.707;0.215;0.179;9.735;1.169;0.769;-2.04;-0.857;-0.027;0.58;0.108;2.0;37.0;-22.0;-7.9;269.8;-83.1;-8.4;3.0;1001.2;60.21;23.02601;72.54047;-2.1;157.10551631491586;;4.3;9.67742;299.1;20 / 23;14006;2018-08-23 20:57:25:933
1.765;8.828;0.417;0.357;9.717;1.276;1.427;-0.855;-1.037;-0.2;0.1;0.106;4.0;36.7;-22.7;-7.3;263.1;-82.4;-13.1;3.0;1001.2;60.24;23.02601;72.54047;-2.1;157.10551631491586;;4.3;9.67742;299.1;20 / 23;14106;2018-08-23 20:57:26:033
0.35;10.971;1.472;0.452;9.724;1.189;0.048;0.73;0.666;0.337;-0.304;-0.239;4.0;36.4;-23.7;-7.4;255.5;-82.5;-20.8;3.0;1001.2;60.24;23.02601;72.54047;-2.1;157.10551631491586;;4.3;9.67742;299.1;20 / 23;14206;2018-08-23 20:57:26:133
0.5;12.687;0.311;0.453;9.757;0.875;-0.108;2.722;-0.374;-0.088;-0.691;0.067;4.0;36.7;-22.8;-7.9;253.4;-84.2;-25.4;3.0;1001.2;60.24;23.02601;72.54047;-2.1;157.10551631491586;;4.3;9.67742;299.1;20 / 23;14306;2018-08-23 20:57:26:233
0.505;10.492;4.365;0.56;9.74;0.992;-0.098;0.775;3.454;0.299;-0.611;-0.048;4.0;36.2;-23.5;-8.8;253.1;-83.5;-27.2;3.0;1001.2;60.24;23.02601;72.54047;-2.1;157.10551631491586;;4.3;9.67742;299.1;20 / 23;14406;2018-08-23 20:57:26:333
-0.929;9.613;2.622;0.465;9.752;0.925;-1.351;-0.05;1.627;0.079;0.158;-0.01;4.0;36.0;-23.6;-10.6;255.5;-83.9;-27.8;3.0;1001.2;62.01;23.02601;72.54046;-2.1;157.10551631491586;;4.3;9.67742;299.5;19 / 22;14506;2018-08-23 20:57:26:433
-0.524;6.998;0.481;0.451;9.737;1.08;-0.923;-2.709;-0.082;0.259;-0.112;0.052;3.0;35.4;-23.6;-10.8;259.0;-83.4;-23.9;3.0;1001.2;62.01;23.02601;72.54046;-2.1;157.10551631491586;;4.3;9.67742;299.5;19 / 22;14606;2018-08-23 20:57:26:533
-0.23;7.88;-0.093;0.455;9.751;0.942;-0.795;-2.065;-1.253;-0.08;0.6;0.108;3.0;35.6;-24.2;-10.3;257.5;-84.0;-25.8;3.0;1001.2;62.01;23.02601;72.54046;-2.1;157.10551631491586;;4.3;9.67742;299.5;19 / 22;14706;2018-08-23 20:57:26:633
0.68;9.975;-0.158;0.457;9.746;0.987;0.192;-0.001;-0.995;-0.078;0.749;-0.018;3.0;35.4;-25.1;-8.2;255.0;-83.5;-25.2;3.0;1001.2;67.22;23.02601;72.54046;-2.1;157.10551631491586;;4.3;9.67742;299.5;19 / 22;14806;2018-08-23 20:57:26:733
-0.175;13.032;0.879;0.24;9.749;1.037;-0.226;3.475;-0.675;0.147;0.607;-0.059;3.0;36.3;-24.4;-5.3;258.7;-83.3;-16.5;3.0;1001.2;67.22;23.02601;72.54046;-2.1;157.10551631491586;;4.3;9.67742;299.5;19 / 22;14906;2018-08-23 20:57:26:833
-1.188;10.973;2.847;0.344;9.701;1.391;-1.532;1.272;1.455;-0.321;1.414;0.134;4.0;35.8;-25.0;-3.1;257.6;-82.9;-13.9;3.0;1001.2;67.22;23.02601;72.54046;-2.1;157.10551631491586;;4.3;9.67742;299.5;19 / 22;15006;2018-08-23 20:57:26:933
-1.441;7.844;0.259;0.209;9.688;1.506;-1.667;-1.832;-1.224;-0.512;0.656;0.322;4.0;35.4;-26.4;0.5;254.5;-81.5;-9.6;3.0;1001.2;65.79;23.02601;72.54046;-2.1;157.10551631491586;;4.3;9.67742;299.5;19 / 22;15106;2018-08-23 20:57:27:033
-0.781;7.923;2.452;-0.031;9.599;2.007;-0.803;-1.506;0.309;-0.175;0.758;-0.031;5.0;34.0;-26.6;2.5;255.6;-78.4;-0.6;3.0;1001.2;65.79;23.02601;72.54046;-2.1;157.10551631491586;;4.3;9.67742;299.5;19 / 22;15206;2018-08-23 20:57:27:133
-1.243;9.16;1.666;-0.164;9.567;2.148;-1.098;-0.411;-0.515;-0.127;0.445;0.277;2.0;33.9;-27.3;5.0;256.6;-77.4;4.5;3.0;1001.2;65.79;23.02601;72.54046;-2.1;157.10551631491586;;4.3;9.67742;299.5;19 / 22;15306;2018-08-23 20:57:27:233
-1.044;9.958;0.637;-0.112;9.584;2.075;-1.219;0.307;-1.531;-0.029;0.423;0.461;2.0;32.9;-28.6;6.5;255.9;-77.3;3.8;3.0;1001.2;55.68;23.02601;72.54046;-2.1;157.10551631491586;;4.3;9.67742;299.5;19 / 22;15406;2018-08-23 20:57:27:333
-0.68;12.584;1.061;-0.158;9.659;1.687;-0.584;2.726;-0.394;0.568;0.543;0.063;2.0;31.2;-29.7;7.8;250.3;-79.3;4.0;3.0;1001.2;55.68;23.02602;72.54045;-2.1;157.10551631491586;;4.3;9.67742;298.1;20 / 23;15506;2018-08-23 20:57:27:433
0.464;12.433;1.635;-0.214;9.706;1.382;1.068;2.531;0.002;0.423;0.734;-0.333;2.0;30.9;-29.6;10.5;249.2;-81.6;5.8;3.0;1001.2;55.68;23.02602;72.54045;-2.1;157.10551631491586;;4.3;9.67742;298.1;20 / 23;15607;2018-08-23 20:57:27:534
2.998;9.144;1.281;-0.296;9.718;1.28;3.261;-0.601;0.085;-0.324;-0.728;-0.04;4.0;30.5;-28.1;13.6;260.5;-83.0;19.8;3.0;1001.2;55.68;23.02602;72.54045;-2.1;157.10551631491586;;4.3;9.67742;298.1;20 / 23;15706;2018-08-23 20:57:27:633
1.183;9.453;3.129;0.065;9.676;1.594;1.564;0.018;1.032;-0.242;0.665;0.061;4.0;31.0;-27.2;11.3;247.4;-81.3;5.1;3.0;1001.2;67.12;23.02602;72.54045;-2.1;157.10551631491586;;4.3;9.67742;298.1;20 / 23;15806;2018-08-23 20:57:27:733
1.07;6.723;0.374;0.489;9.617;1.855;0.61;-2.988;-1.62;-0.254;-0.424;0.271;4.0;30.2;-28.5;12.4;228.6;-79.1;-13.0;3.0;1001.2;67.12;23.02602;72.54045;-2.1;157.10551631491586;;4.3;9.67742;298.1;20 / 23;15907;2018-08-23 20:57:27:834
1.178;8.811;0.036;0.452;9.611;1.894;0.884;-1.231;-1.987;0.001;0.258;-0.189;4.0;30.4;-29.0;11.3;225.2;-78.3;-15.8;3.0;1001.2;67.12;23.02602;72.54045;-2.1;157.10551631491586;;4.3;9.67742;298.1;20 / 23;16007;2018-08-23 20:57:27:934
0.958;10.995;2.478;0.44;9.616;1.876;0.616;1.101;0.595;0.212;0.141;-0.062;4.0;30.4;-29.5;12.4;227.9;-78.6;-12.9;3.0;1001.2;61.1;23.02602;72.54045;-2.1;157.10551631491586;;4.3;9.67742;298.1;20 / 23;16107;2018-08-23 20:57:28:034
1.286;12.347;0.35;0.34;9.715;1.292;0.934;2.678;-0.882;0.618;0.044;-0.012;4.0;29.9;-28.1;14.1;226.0;-80.2;-13.4;3.0;1001.2;61.1;23.02602;72.54045;-2.1;157.10551631491586;;4.3;9.67742;298.1;20 / 23;16207;2018-08-23 20:57:28:134
0.955;11.378;0.498;0.399;9.754;0.935;0.556;1.624;-0.437;0.07;-0.034;0.323;5.0;29.8;-27.3;15.6;216.2;-84.0;-23.1;3.0;1001.2;61.1;23.02602;72.54045;-2.1;157.10551631491586;;4.3;9.67742;298.1;20 / 23;16307;2018-08-23 20:57:28:234
0.28;7.872;3.407;0.61;9.709;1.236;0.381;-0.855;1.149;-0.446;-0.049;-0.088;2.0;30.1;-27.8;15.6;211.9;-82.3;-26.9;3.0;1001.2;61.1;23.02602;72.54045;-2.1;157.10551631491586;;4.3;9.67742;298.1;20 / 23;16406;2018-08-23 20:57:28:333
0.927;6.378;0.108;0.546;9.665;1.567;0.381;-3.287;-1.459;-0.128;-0.24;0.005;2.0;29.9;-28.8;13.1;220.5;-80.4;-19.4;3.0;1001.2;58.66;23.02602;72.54044;-2.1;157.10551631491586;;4.3;9.67742;298.0;18 / 21;16506;2018-08-23 20:57:28:433
1.42;8.38;0.869;0.669;9.631;1.724;0.775;-1.507;-1.09;-0.174;-0.308;0.048;2.0;30.0;-29.0;12.8;220.1;-79.4;-20.9;3.0;1001.2;58.66;23.02602;72.54044;-2.1;157.10551631491586;;4.3;9.67742;298.0;18 / 21;16606;2018-08-23 20:57:28:533
0.948;13.389;3.137;0.718;9.645;1.622;0.261;3.552;1.359;0.241;-0.404;0.006;2.0;30.6;-29.3;12.2;219.6;-79.6;-23.9;3.0;1001.2;58.66;23.02602;72.54044;-2.1;157.10551631491586;;4.3;9.67742;298.0;18 / 21;16707;2018-08-23 20:57:28:634
2.021;13.525;1.573;0.862;9.649;1.522;1.082;3.78;0.2;-0.176;-0.406;0.007;3.0;30.8;-29.0;10.4;217.9;-79.9;-29.1;3.0;1001.2;61.83;23.02602;72.54044;-2.1;157.10551631491586;;4.3;9.67742;298.0;18 / 21;16806;2018-08-23 20:57:28:733
3.271;9.704;0.639;0.892;9.631;1.619;2.678;-0.214;-0.472;-0.238;-1.299;-0.743;3.0;32.1;-29.5;7.4;218.7;-79.4;-31.0;3.0;1001.2;61.83;23.02602;72.54044;-2.1;157.10551631491586;;4.3;9.67742;298.0;18 / 21;16906;2018-08-23 20:57:28:833
0.108;8.291;3.043;0.739;9.604;1.838;-0.23;-0.961;1.102;-0.141;-0.854;-0.424;3.0;33.5;-27.4;4.4;232.8;-78.6;-23.4;3.0;1001.2;61.83;23.02602;72.54044;-2.1;157.10551631491586;;4.3;9.67742;298.0;18 / 21;17005;2018-08-23 20:57:28:932
1.599;6.548;0.682;0.712;9.641;1.649;0.761;-3.114;-0.899;0.336;-1.005;-0.105;3.0;35.3;-26.0;0.1;239.7;-79.1;-22.1;3.0;1001.2;55.16;23.02602;72.54044;-2.1;158.08146808805284;;4.3;9.67742;298.0;18 / 21;17106;2018-08-23 20:57:29:033
1.286;10.142;1.693;0.699;9.695;1.3;0.671;0.335;0.354;0.27;-0.503;-0.131;6.0;35.3;-25.9;-2.7;242.2;-81.0;-27.0;3.0;1001.2;55.16;23.02602;72.54044;-2.1;158.08146808805284;;4.3;9.67742;298.0;18 / 21;17206;2018-08-23 20:57:29:133
1.839;12.941;1.209;0.882;9.678;1.315;0.815;3.005;0.298;-0.276;-1.182;0.054;5.0;35.3;-25.8;-4.3;236.9;-81.0;-32.7;3.0;1001.2;55.16;23.02602;72.54044;-2.1;158.08146808805284;;4.3;9.67742;298.0;18 / 21;17306;2018-08-23 20:57:29:233
-0.129;11.212;5.888;0.829;9.667;1.423;-0.958;1.545;4.465;0.517;-0.214;-0.297;5.0;35.5;-24.7;-8.1;246.5;-80.0;-30.1;3.0;1001.2;61.15;23.02602;72.54044;-2.1;158.08146808805284;;4.3;9.67742;298.0;18 / 21;17407;2018-08-23 20:57:29:334
1.444;7.439;1.166;0.833;9.68;1.334;0.29;-1.427;-0.096;-0.454;-0.688;0.231;5.0;34.9;-26.0;-9.4;247.4;-81.4;-31.5;3.0;1001.2;61.15;23.02602;72.54043;-2.0;158.08146808805284;;4.3;9.67742;281.6;19 / 22;17506;2018-08-23 20:57:29:433
1.063;6.85;1.082;0.935;9.628;1.613;0.094;-2.792;-0.517;-0.143;-0.34;-0.064;5.0;35.3;-25.3;-12.0;250.8;-79.3;-31.5;3.0;1001.2;61.15;23.02602;72.54043;-2.0;158.08146808805284;;4.3;9.67742;281.6;19 / 22;17606;2018-08-23 20:57:29:533
1.154;8.835;0.723;0.984;9.584;1.831;0.17;-0.749;-1.108;-0.022;-0.245;-0.097;4.0;34.1;-25.0;-15.1;257.5;-77.9;-28.5;3.0;1001.2;61.15;23.02602;72.54043;-2.0;158.08146808805284;;4.3;9.67742;281.6;19 / 22;17706;2018-08-23 20:57:29:633
1.338;12.046;1.712;0.897;9.624;1.655;0.436;2.338;0.076;0.207;-0.69;-0.187;4.0;33.5;-23.5;-16.4;259.9;-78.7;-28.2;3.0;1001.2;65.12;23.02602;72.54043;-2.0;158.08146808805284;;4.3;9.67742;281.6;19 / 22;17806;2018-08-23 20:57:29:733
1.81;13.683;0.503;0.854;9.688;1.259;0.956;3.995;-0.756;0.019;-0.861;-0.082;3.0;32.9;-24.6;-17.3;260.7;-80.4;-31.9;3.0;1001.2;65.12;23.02602;72.54043;-2.0;158.08146808805284;;4.3;9.67742;281.6;19 / 22;17906;2018-08-23 20:57:29:833
3.046;9.919;2.866;1.017;9.68;1.193;2.016;0.11;2.152;0.269;-1.425;-0.269;3.0;31.7;-24.0;-20.1;258.5;-80.3;-37.5;3.0;1001.2;65.12;23.02602;72.54043;-2.0;158.08146808805284;;4.3;9.67742;281.6;19 / 22;18006;2018-08-23 20:57:29:933
1.604;7.942;2.064;1.137;9.666;1.203;0.467;-1.724;0.861;-0.07;-0.959;-0.073;2.0;29.3;-23.9;-23.8;259.0;-81.0;-41.6;3.0;1001.2;56.79;23.02602;72.54043;-2.0;158.08146808805284;;4.3;9.67742;281.6;19 / 22;18107;2018-08-23 20:57:30:034
0.651;6.053;1.219;1.22;9.673;1.054;-0.569;-3.62;0.164;0.075;-1.134;-0.104;2.0;27.9;-24.3;-26.5;261.4;-80.2;-45.5;3.0;1001.2;56.79;23.02602;72.54043;-2.0;158.08146808805284;;4.3;9.67742;281.6;19 / 22;18207;2018-08-23 20:57:30:134
0.79;8.579;-0.814;1.146;9.719;0.635;-0.356;-1.14;-1.449;0.138;-0.761;0.009;2.0;24.2;-24.4;-27.7;257.1;-81.5;-53.8;3.0;1001.2;56.79;23.02602;72.54043;-2.0;158.08146808805284;;4.3;9.67742;281.6;19 / 22;18306;2018-08-23 20:57:30:233
0.374;11.653;1.717;1.176;9.722;0.519;-0.807;1.835;1.09;-0.059;-0.251;0.03;2.0;22.0;-24.5;-30.4;251.5;-82.4;-65.6;3.0;1001.2;65.55;23.02602;72.54043;-2.0;158.08146808805284;;4.3;9.67742;281.6;19 / 22;18406;2018-08-23 20:57:30:333
0.819;12.781;0.007;1.256;9.674;0.999;-0.437;3.106;-0.991;-0.609;-0.553;-0.155;2.0;20.9;-23.8;-32.2;269.2;-80.6;-51.5;3.0;1001.2;65.55;23.02602;72.54042;-2.0;158.08146808805284;;4.4;9.67742;289.6;19 / 22;18506;2018-08-23 20:57:30:433
-0.479;9.793;3.524;1.184;9.672;1.101;-1.663;0.12;2.423;-0.194;-0.046;0.297;2.0;20.8;-23.2;-33.2;276.7;-80.8;-46.5;3.0;1001.2;65.55;23.02602;72.54042;-2.0;158.08146808805284;;4.4;9.67742;289.6;19 / 22;18606;2018-08-23 20:57:30:533
0.4;6.299;0.544;1.258;9.605;1.526;-0.858;-3.306;-0.982;0.02;0.317;0.185;2.0;20.0;-22.9;-33.4;280.8;-78.9;-41.4;3.0;1001.2;70.85;23.02602;72.54042;-2.0;158.08146808805284;;4.4;9.67742;289.6;19 / 22;18706;2018-08-23 20:57:30:633
0.713;8.222;-0.144;1.302;9.6;1.521;-0.61;-1.404;-1.672;-0.117;0.244;0.219;2.0;21.3;-22.6;-32.5;280.2;-78.4;-40.3;3.0;1001.2;70.85;23.02602;72.54042;-2.0;158.08146808805284;;4.4;9.67742;289.6;19 / 22;18806;2018-08-23 20:57:30:733
0.802;10.892;4.089;1.414;9.558;1.676;-0.717;1.3;2.344;0.085;0.198;0.232;2.0;21.5;-22.3;-32.0;277.6;-77.3;-40.1;3.0;1001.2;70.85;23.02602;72.54042;-2.0;158.08146808805284;;4.4;9.67742;289.6;19 / 22;18906;2018-08-23 20:57:30:833
2.315;11.912;0.709;1.431;9.605;1.362;0.956;2.414;-0.278;0.659;-0.121;-0.288;2.0;21.4;-24.1;-31.7;276.5;-77.2;-42.1;3.0;1001.2;53.38;23.02602;72.54042;-2.0;158.08146808805284;;4.4;9.67742;289.6;19 / 22;19006;2018-08-23 20:57:30:933
1.405;11.464;3.302;1.105;9.688;1.041;0.339;1.687;2.356;-0.053;0.348;0.051;1.0;22.1;-24.2;-31.1;271.2;-81.1;-47.7;3.0;1001.2;53.38;23.02602;72.54042;-2.0;158.08146808805284;;4.4;9.67742;289.6;19 / 22;19106;2018-08-23 20:57:31:033
2.002;9.721;1.475;1.012;9.683;1.18;0.99;0.038;0.294;-0.004;0.238;-0.402;1.0;22.0;-24.1;-31.3;276.1;-80.9;-42.7;3.0;1001.2;53.38;23.02602;72.54042;-2.0;158.08146808805284;;4.4;9.67742;289.6;19 / 22;19206;2018-08-23 20:57:31:133
-0.302;7.659;0.438;0.819;9.697;1.209;-1.121;-2.038;-0.771;-0.107;-0.304;-0.042;2.0;23.2;-22.8;-31.5;282.3;-81.3;-35.9;3.0;1001.2;53.38;23.02602;72.54042;-2.0;158.08146808805284;;4.4;9.67742;289.6;19 / 22;19310;2018-08-23 20:57:31:237
0.907;7.772;0.419;0.905;9.697;1.149;-0.007;-2.37;-0.627;0.384;-0.175;-0.088;2.0;22.3;-22.7;-31.7;283.3;-81.2;-36.9;3.0;1001.2;55.01;23.02602;72.54042;-2.0;158.08146808805284;;4.4;9.67742;289.6;19 / 22;19406;2018-08-23 20:57:31:333
1.628;10.25;0.457;0.948;9.73;0.778;0.68;0.52;-0.321;0.049;0.01;0.091;1.0;21.4;-24.0;-32.0;275.1;-82.8;-47.2;3.0;1001.2;55.01;23.02602;72.5404;-2.0;158.08146808805284;;4.5;9.67742;289.3;18 / 21;19506;2018-08-23 20:57:31:433
1.408;12.398;0.718;0.945;9.731;0.767;0.403;2.748;-0.056;-0.155;-0.263;-0.217;1.0;22.7;-24.4;-31.0;266.6;-82.8;-52.3;3.0;1001.2;55.01;23.02602;72.5404;-2.0;158.08146808805284;;4.5;9.67742;289.3;18 / 21;19606;2018-08-23 20:57:31:533
-1.195;11.83;2.337;0.802;9.721;1.013;-1.997;2.109;1.324;-0.09;-0.268;0.183;2.0;21.5;-23.5;-31.7;283.6;-82.5;-38.5;3.0;1001.2;52.48;23.02602;72.5404;-2.0;158.08146808805284;;4.5;9.67742;289.3;18 / 21;19706;2018-08-23 20:57:31:633
0.448;8.691;3.127;1.02;9.663;1.328;-0.573;-0.971;1.799;0.009;1.054;0.211;2.0;20.9;-22.8;-32.6;283.3;-80.4;-38.5;3.0;1001.2;52.48;23.02602;72.5404;-2.0;158.08146808805284;;4.5;9.67742;289.3;18 / 21;19806;2018-08-23 20:57:31:733
0.706;7.101;-0.615;1.038;9.613;1.64;-0.331;-2.511;-2.255;0.169;0.373;0.047;1.0;22.7;-22.3;-32.3;286.0;-78.6;-31.9;3.0;1001.2;52.48;23.02602;72.5404;-2.0;158.08146808805284;;4.5;9.67742;289.3;18 / 21;19906;2018-08-23 20:57:31:833
0.802;8.694;1.044;1.061;9.646;1.415;-0.259;-0.952;-0.372;0.32;0.542;0.23;2.0;24.0;-23.2;-30.1;280.2;-79.3;-34.6;3.0;1001.2;62.72;23.02602;72.5404;-2.0;158.08146808805284;;4.5;9.67742;289.3;18 / 21;20006;2018-08-23 20:57:31:933
2.054;10.511;0.955;1.321;9.652;1.12;0.733;0.796;-0.148;0.161;-0.093;0.254;2.0;24.1;-25.1;-29.5;269.3;-80.0;-44.7;3.0;1001.2;62.72;23.02602;72.5404;-2.0;158.08146808805284;;4.5;9.67742;289.3;18 / 21;20106;2018-08-23 20:57:32:033
0.587;12.848;0.836;1.224;9.688;0.907;-0.539;2.997;-0.064;0.025;-0.078;-0.523;2.0;24.5;-25.9;-28.2;258.6;-80.3;-54.5;3.0;1001.2;62.72;23.02602;72.5404;-2.0;158.08146808805284;;4.5;9.67742;289.3;18 / 21;20206;2018-08-23 20:57:32:133
0.443;11.394;2.306;0.809;9.742;0.781;-0.395;1.707;1.596;0.493;0.18;-0.118;2.0;25.9;-25.6;-26.9;267.9;-82.3;-43.8;3.0;1001.2;64.2;23.02602;72.5404;-2.0;158.08146808805284;;4.5;9.67742;289.3;18 / 21;20306;2018-08-23 20:57:32:233
0.773;7.025;1.334;1.014;9.706;0.965;-0.346;-1.92;0.064;-0.284;0.297;0.406;2.0;25.4;-24.9;-27.1;262.3;-83.4;-48.3;3.0;1001.2;64.2;23.02602;72.5404;-2.0;158.08146808805284;;4.5;9.67742;289.3;18 / 21;20406;2018-08-23 20:57:32:333
0.024;7.93;-0.079;0.991;9.708;0.968;-0.85;-1.948;-1.102;0.124;0.385;-0.126;2.0;25.0;-25.3;-27.1;265.3;-81.7;-46.2;3.0;1001.2;64.2;23.02603;72.54038;-2.0;158.08146808805284;;4.5;9.67742;290.3;18 / 21;20506;2018-08-23 20:57:32:433
0.544;9.414;0.122;0.984;9.714;0.915;-0.58;-0.393;-0.8;-0.013;0.199;0.201;3.0;27.4;-25.8;-25.3;261.0;-82.2;-46.3;3.0;1001.2;64.2;23.02603;72.54038;-2.0;158.08146808805284;;4.5;9.67742;290.3;18 / 21;20606;2018-08-23 20:57:32:533
0.062;11.253;1.087;0.965;9.74;0.614;-0.812;1.312;0.645;0.744;0.548;-0.138;3.0;27.5;-25.9;-23.6;253.2;-82.7;-53.6;3.0;1001.2;69.91;23.02603;72.54038;-2.0;158.08146808805284;;4.5;9.67742;290.3;18 / 21;20707;2018-08-23 20:57:32:634
1.882;11.495;-1.425;0.852;9.769;0.119;0.965;1.697;-1.536;-0.109;0.37;0.02;3.0;28.1;-27.0;-20.7;222.5;-85.0;-81.9;3.0;1001.2;69.91;23.02603;72.54038;-2.0;158.08146808805284;;4.5;9.67742;290.3;18 / 21;20806;2018-08-23 20:57:32:733
-1.132;9.852;3.479;0.75;9.766;0.49;-1.861;0.192;2.883;-0.057;1.973;-0.042;2.0;30.5;-26.7;-18.8;230.1;-84.8;-69.5;3.0;1001.2;69.91;23.02603;72.54038;-2.0;158.08146808805284;;4.5;9.67742;290.3;18 / 21;20906;2018-08-23 20:57:32:833
0.029;8.279;-0.8;0.452;9.736;1.087;-0.378;-1.435;-2.109;-0.643;0.081;0.028;2.0;31.9;-26.6;-14.9;262.0;-84.1;-28.7;3.0;1001.2;71.38;23.02603;72.54038;-2.0;158.08146808805284;;4.5;9.67742;290.3;18 / 21;21007;2018-08-23 20:57:32:934
1.437;8.16;-0.053;0.466;9.693;1.411;0.752;-1.694;-1.47;-0.332;0.804;0.188;2.0;32.8;-25.4;-14.5;269.7;-81.8;-18.8;3.0;1001.2;71.38;23.02603;72.54038;-2.0;158.08146808805284;;4.5;9.67742;290.3;18 / 21;21106;2018-08-23 20:57:33:033
1.429;9.79;1.844;0.671;9.64;1.67;0.758;0.15;0.173;-0.14;0.816;0.067;2.0;32.8;-26.2;-13.8;266.0;-80.0;-19.7;3.0;1001.2;71.38;23.02603;72.54038;-2.0;158.08146808805284;;4.5;9.67742;290.3;18 / 21;21206;2018-08-23 20:57:33:133
1.645;12.611;1.183;0.669;9.648;1.626;1.026;2.757;-0.812;-0.352;-0.038;0.055;2.0;33.5;-26.5;-11.7;260.0;-79.9;-22.3;3.0;1001.2;63.45;23.02603;72.54038;-2.0;158.08146808805284;;4.5;9.67742;290.3;18 / 21;21306;2018-08-23 20:57:33:233
0.431;11.516;3.204;0.573;9.624;1.795;0.069;1.641;1.677;0.104;0.533;-0.06;2.0;33.8;-26.6;-12.0;262.5;-78.8;-18.7;3.0;1001.2;63.45;23.02603;72.54038;-2.0;158.08146808805284;;4.5;9.67742;290.3;18 / 21;21406;2018-08-23 20:57:33:333
1.64;10.082;3.747;0.555;9.598;1.935;1.358;0.832;1.671;-0.269;-0.515;-0.225;2.0;34.3;-25.0;-11.9;263.5;-78.4;-16.4;3.0;1001.2;63.45;23.02603;72.54037;-2.1;158.08146808805284;;4.5;9.67742;273.8;20 / 23;21509;2018-08-23 20:57:33:436
-0.836;7.044;2.356;0.243;9.637;1.799;-1.081;-2.584;0.592;0.565;0.128;-0.45;2.0;34.9;-24.0;-13.0;272.8;-78.9;-10.3;3.0;1001.2;63.57;23.02603;72.54037;-2.1;158.08146808805284;;4.5;9.67742;273.8;20 / 23;21606;2018-08-23 20:57:33:533
0.656;6.795;-0.129;0.088;9.678;1.581;0.568;-2.883;-1.71;-0.072;-0.775;-0.133;2.0;35.2;-24.3;-11.5;278.5;-80.7;-2.7;3.0;1001.2;63.57;23.02603;72.54037;-2.1;158.08146808805284;;4.5;9.67742;273.8;20 / 23;21706;2018-08-23 20:57:33:633
0.594;10.286;0.273;-0.076;9.68;1.567;0.626;0.395;-1.689;0.004;0.347;-0.101;2.0;35.0;-23.2;-13.3;287.7;-80.6;1.6;3.0;1001.2;63.57;23.02603;72.54037;-2.1;158.08146808805284;;4.5;9.67742;273.8;20 / 23;21806;2018-08-23 20:57:33:733
-0.089;13.607;2.351;-0.147;9.669;1.633;-0.1;3.744;0.944;-0.342;0.037;0.111;2.0;35.6;-22.1;-13.4;289.5;-80.4;5.1;3.0;1001.2;63.57;23.02603;72.54037;-2.1;158.08146808805284;;4.5;9.67742;273.8;20 / 23;21906;2018-08-23 20:57:33:833
-2.097;10.762;7.2;-0.048;9.538;2.28;-1.821;1.692;4.875;0.3;0.477;-0.071;2.0;35.3;-22.4;-14.8;285.2;-78.2;0.9;3.0;1001.2;70.14;23.02603;72.54037;-2.1;158.08146808805284;;4.5;9.67742;273.8;20 / 23;22006;2018-08-23 20:57:33:933
-0.967;7.573;2.014;0.12;9.54;2.267;-0.877;-2.269;-0.39;-0.372;-0.631;0.644;2.0;35.7;-22.4;-13.3;281.3;-77.3;-1.0;3.0;1001.2;70.14;23.02603;72.54037;-2.1;158.08146808805284;;4.5;9.67742;273.8;20 / 23;22106;2018-08-23 20:57:34:033
0.742;6.278;0.747;0.429;9.425;2.676;0.421;-3.358;-2.022;-0.061;0.139;-0.186;2.0;34.2;-23.8;-16.6;277.0;-74.3;-9.2;3.0;1001.2;70.14;23.02603;72.54037;-2.1;158.08146808805284;;4.5;9.67742;273.8;20 / 23;22206;2018-08-23 20:57:34:133
-1.279;9.57;1.314;0.087;9.466;2.559;-1.442;-0.021;-1.372;-0.083;0.345;0.084;2.0;34.7;-22.7;-16.7;284.4;-74.7;-2.9;3.0;1001.2;62.85;23.02603;72.54037;-2.1;158.08146808805284;;4.5;9.67742;273.8;20 / 23;22306;2018-08-23 20:57:34:233
0.266;11.421;2.691;0.019;9.441;2.654;0.285;2.181;0.03;0.052;-0.096;-0.205;2.0;34.5;-22.8;-16.5;285.5;-74.3;-1.1;3.0;1001.2;62.85;23.02603;72.54037;-2.1;158.08146808805284;;4.5;9.67742;273.8;20 / 23;22406;2018-08-23 20:57:34:333
1.221;12.893;3.555;-0.05;9.453;2.608;1.28;3.49;0.895;-0.423;-0.24;0.125;2.0;35.6;-22.7;-15.7;286.2;-74.8;1.5;3.0;1001.2;62.85;23.02603;72.54036;-2.1;158.08146808805284;;4.4;9.67742;280.9;20 / 23;22507;2018-08-23 20:57:34:434
2.521;9.606;3.165;0.07;9.459;2.587;2.018;-0.346;1.634;-0.073;-1.272;-0.061;0.0;35.5;-22.9;-15.9;284.2;-74.5;-0.6;3.0;1001.2;68.7;23.02603;72.54036;-2.1;158.08146808805284;;4.4;9.67742;280.9;20 / 23;22606;2018-08-23 20:57:34:533
0.754;7.178;4.006;0.456;9.379;2.829;0.837;-1.633;1.143;0.196;0.042;-0.32;0.0;33.7;-22.7;-19.1;280.5;-73.3;-8.2;3.0;1001.2;68.7;23.02603;72.54036;-2.1;158.08146808805284;;4.4;9.67742;280.9;20 / 23;22706;2018-08-23 20:57:34:633
-1.528;6.912;1.228;0.113;9.547;2.24;-1.602;-2.68;-1.026;0.795;0.588;0.018;0.0;35.2;-21.4;-18.4;286.5;-76.3;-3.1;3.0;1001.2;68.7;23.02603;72.54036;-2.1;158.08146808805284;;4.4;9.67742;280.9;20 / 23;22807;2018-08-23 20:57:34:734
-0.496;8.583;0.041;0.168;9.527;2.319;-0.663;-0.943;-2.279;-0.313;-0.202;0.07;2.0;34.9;-22.7;-18.2;285.7;-76.9;-3.6;3.0;1001.2;67.76;23.02603;72.54036;-2.1;158.08146808805284;;4.4;9.67742;280.9;20 / 23;22907;2018-08-23 20:57:34:834
-1.238;13.034;4.796;-0.077;9.544;2.252;-1.166;3.493;2.62;0.109;0.673;-0.076;2.0;34.3;-22.0;-17.8;290.6;-76.7;-0.6;3.0;1001.2;67.76;23.02603;72.54036;-2.1;158.08146808805284;;4.4;9.67742;280.9;20 / 23;23007;2018-08-23 20:57:34:934
0.292;12.939;1.472;-0.103;9.611;1.948;0.395;3.328;-0.476;0.152;0.234;0.061;2.0;35.9;-21.9;-16.0;291.0;-77.8;3.2;3.0;1001.2;67.76;23.02603;72.54036;-2.1;158.08146808805284;;4.4;9.67742;280.9;20 / 23;23106;2018-08-23 20:57:35:033
0.481;9.283;1.353;-0.094;9.669;1.636;0.616;-0.307;-0.168;0.402;-0.186;-0.016;2.0;37.1;-22.7;-14.9;289.8;-80.0;3.5;3.0;1001.2;67.76;23.02603;72.54036;-2.1;158.08146808805284;;4.4;9.67742;280.9;20 / 23;23206;2018-08-23 20:57:35:133
-0.721;6.318;0.74;-0.042;9.674;1.607;-0.679;-3.355;-0.867;-0.07;-0.127;0.102;0.0;35.7;-23.3;-13.7;288.0;-80.6;2.3;3.0;1001.2;56.31;23.02603;72.54036;-2.1;158.08146808805284;;4.4;9.67742;280.9;20 / 23;23306;2018-08-23 20:57:35:233
0.378;7.518;-0.546;0.183;9.607;1.96;0.228;-2.269;-2.552;-0.469;-0.226;0.062;0.0;36.2;-22.6;-14.7;281.1;-79.0;-4.8;3.0;1001.2;56.31;23.02603;72.54036;-2.1;158.08146808805284;;4.4;9.67742;280.9;20 / 23;23408;2018-08-23 20:57:35:335
-0.864;9.948;2.471;0.194;9.564;2.161;-1.058;0.385;0.31;-0.116;0.593;0.112;2.0;35.9;-23.0;-16.7;282.5;-77.2;-5.1;3.0;1001.2;56.31;23.02603;72.54035;-2.1;158.08146808805284;;4.4;9.67742;287.5;19 / 22;23506;2018-08-23 20:57:35:433
-0.558;12.108;3.125;0.321;9.583;2.057;-0.742;2.589;0.874;0.573;0.011;0.139;2.0;35.3;-23.4;-14.9;277.1;-76.9;-6.4;3.0;1001.2;60.39;23.02603;72.54035;-2.1;158.08146808805284;;4.4;9.67742;287.5;19 / 22;23606;2018-08-23 20:57:35:533
0.831;10.822;4.073;0.493;9.581;2.034;0.108;1.366;1.708;-0.038;0.175;0.164;2.0;34.6;-24.7;-15.8;273.8;-78.1;-12.9;3.0;1001.2;60.39;23.02603;72.54035;-2.1;158.08146808805284;;4.4;9.67742;287.5;19 / 22;23707;2018-08-23 20:57:35:634
1.3;10.353;2.392;0.52;9.581;2.025;1.19;0.997;-0.062;-0.057;0.129;-0.216;2.0;34.7;-25.4;-15.8;270.5;-77.7;-14.9;3.0;1001.2;60.39;23.02603;72.54035;-2.1;158.08146808805284;;4.4;9.67742;287.5;19 / 22;23808;2018-08-23 20:57:35:735
-0.919;6.716;1.097;0.165;9.682;1.55;-1.134;-2.822;-0.293;0.913;0.568;-0.382;2.0;35.4;-24.8;-13.9;276.2;-79.9;-8.8;3.0;1001.2;67.74;23.02603;72.54035;-2.1;158.08146808805284;;4.4;9.67742;287.5;19 / 22;23907;2018-08-23 20:57:35:834
-0.804;7.504;-1.013;-0.249;9.787;0.565;-0.556;-2.284;-1.577;0.304;-0.147;-0.15;1.0;37.4;-23.6;-8.4;297.7;-85.6;14.1;3.0;1001.2;67.74;23.02603;72.54035;-2.1;158.08146808805284;;4.4;9.67742;287.5;19 / 22;24006;2018-08-23 20:57:35:933
0.656;10.868;0.601;0.174;9.772;0.806;0.482;1.108;-0.083;-0.273;-0.239;0.524;1.0;37.0;-24.8;-10.7;279.0;-85.4;-4.6;3.0;1001.2;67.74;23.02603;72.54035;-2.1;158.08146808805284;;4.4;9.67742;287.5;19 / 22;24106;2018-08-23 20:57:36:033
1.82;14.133;0.098;0.238;9.795;0.406;1.708;4.269;-0.43;0.383;0.388;-0.358;2.0;36.0;-25.0;-9.8;251.9;-86.4;-31.4;3.0;1001.2;67.28;23.02603;72.54035;-2.1;158.08146808805284;;4.4;9.67742;287.5;19 / 22;24206;2018-08-23 20:57:36:133
-2.454;11.595;2.734;-0.021;9.796;-0.46;-2.433;1.8;3.194;0.909;-0.498;0.137;2.0;36.9;-24.6;-4.6;89.6;-89.2;169.9;3.0;1001.2;67.28;23.02603;72.54035;-2.1;158.08146808805284;;4.4;9.67742;287.5;19 / 22;24306;2018-08-23 20:57:36:233
-1.633;7.015;-0.596;0.127;9.801;-0.308;-1.736;-2.666;-0.257;-0.253;0.364;0.255;2.0;36.7;-26.0;-5.6;119.2;-87.7;-161.4;3.0;1001.2;67.28;23.02603;72.54035;-2.1;158.08146808805284;;4.4;9.67742;287.5;19 / 22;24406;2018-08-23 20:57:36:333
1.013;6.189;-2.492;0.386;9.796;0.259;0.682;-3.503;-2.706;-0.881;-0.373;0.316;2.0;35.6;-26.7;-6.9;195.0;-88.4;-85.7;3.0;1001.2;67.28;23.02604;72.54034;-2.1;158.08146808805284;;4.3;9.67742;291.4;18 / 22;24506;2018-08-23 20:57:36:433
1.384;9.256;0.836;0.704;9.738;0.917;0.709;-0.688;-0.249;-0.474;0.048;0.238;2.0;35.3;-27.9;-10.1;243.9;-84.0;-38.0;3.0;1001.2;66.64;23.02604;72.54034;-2.1;158.08146808805284;;4.3;9.67742;291.4;18 / 22;24606;2018-08-23 20:57:36:533
0.417;13.051;2.061;0.805;9.725;0.968;-0.173;3.295;1.009;0.21;0.086;0.086;2.0;33.9;-27.9;-10.4;245.7;-82.4;-36.9;3.0;1001.2;66.64;23.02604;72.54034;-2.1;158.08146808805284;;4.3;9.67742;291.4;18 / 22;24706;2018-08-23 20:57:36:633
1.556;11.081;-0.544;0.914;9.738;0.717;0.451;1.599;-1.11;-0.101;-0.553;0.114;2.0;34.1;-28.1;-9.8;231.9;-83.2;-50.4;3.0;1001.2;66.64;23.02604;72.54034;-2.1;158.08146808805284;;4.3;9.67742;291.4;18 / 22;24806;2018-08-23 20:57:36:733
3.797;11.074;1.37;0.996;9.711;0.936;2.828;1.305;0.312;-0.506;-0.6;-0.24;2.0;33.7;-29.6;-11.5;234.3;-82.2;-48.8;3.0;1001.2;70.18;23.02604;72.54034;-2.1;158.08146808805284;;4.3;9.67742;291.4;18 / 22;24906;2018-08-23 20:57:36:833
-0.043;8.454;3.905;0.783;9.714;1.093;-0.546;-0.484;3.923;0.582;-0.256;-0.263;2.0;34.1;-27.2;-13.5;249.5;-81.7;-35.8;3.0;1001.2;70.18;23.02604;72.54034;-2.1;158.08146808805284;;4.3;9.67742;291.4;18 / 22;25006;2018-08-23 20:57:36:933
0.364;5.629;-1.693;0.712;9.741;0.881;-0.382;-4.033;-2.435;0.246;-0.389;-0.191;2.0;34.0;-26.4;-13.9;250.0;-82.7;-36.0;3.0;1001.2;70.18;23.02604;72.54034;-2.1;158.08146808805284;;4.3;9.67742;291.4;18 / 22;25110;2018-08-23 20:57:37:037
0.213;9.388;-0.572;0.409;9.768;0.773;-0.191;-0.25;-1.206;0.012;0.229;-0.211;2.0;33.5;-25.7;-14.2;257.3;-84.6;-31.9;3.0;1001.2;63.33;23.02604;72.54034;-2.1;158.08146808805284;;4.3;9.67742;291.4;18 / 22;25206;2018-08-23 20:57:37:133
0.721;11.392;1.757;0.306;9.769;0.805;0.408;1.652;1.128;-0.007;-0.043;-0.095;3.0;35.2;-25.0;-14.2;266.8;-85.0;-21.7;3.0;1001.2;63.33;23.02604;72.54034;-2.1;158.08146808805284;;4.3;9.67742;291.4;18 / 22;25306;2018-08-23 20:57:37:233
0.582;13.379;-0.35;0.149;9.768;0.86;0.581;3.645;-1.351;-0.368;-0.048;-0.139;3.0;35.4;-24.4;-13.4;273.5;-85.2;-15.1;3.0;1001.2;63.33;23.02604;72.54034;-2.1;158.08146808805284;;4.3;9.67742;291.4;18 / 22;25406;2018-08-23 20:57:37:333
-1.724;10.93;3.438;0.109;9.769;0.855;-1.859;1.511;3.084;0.524;0.236;0.261;3.0;36.2;-23.9;-14.3;283.8;-83.9;-5.1;3.0;1001.2;58.36;23.02604;72.54032;-2.1;158.08146808805284;;4.3;9.67742;291.7;19 / 22;25506;2018-08-23 20:57:37:433
0.802;5.619;-1.31;0.556;9.73;1.089;0.318;-4.128;-2.492;-0.503;-0.503;0.469;3.0;34.7;-25.6;-13.7;264.8;-84.0;-22.9;3.0;1001.2;58.36;23.02604;72.54032;-2.1;158.08146808805284;;4.3;9.67742;291.7;19 / 22;25606;2018-08-23 20:57:37:533
1.501;8.308;-0.553;0.554;9.691;1.397;0.947;-1.383;-1.95;-0.281;0.119;-0.344;3.0;33.6;-27.1;-15.4;265.8;-81.2;-21.6;3.0;1001.2;58.36;23.02604;72.54032;-2.1;158.08146808805284;;4.3;9.67742;291.7;19 / 22;25706;2018-08-23 20:57:37:633
0.101;11.205;3.443;0.486;9.679;1.504;-0.558;1.5;1.659;-0.107;-0.234;0.16;3.0;35.0;-25.4;-16.6;272.6;-80.9;-17.3;3.0;1001.2;66.51;23.02604;72.54032;-2.1;158.08146808805284;;4.3;9.67742;291.7;19 / 22;25806;2018-08-23 20:57:37:733
0.855;11.351;1.123;0.553;9.712;1.24;0.294;1.61;0.036;0.924;-0.6;-0.279;3.0;33.5;-25.4;-16.9;267.9;-81.1;-22.6;3.0;1001.2;66.51;23.02604;72.54032;-2.1;158.08146808805284;;4.3;9.67742;291.7;19 / 22;25906;2018-08-23 20:57:37:833
2.016;10.856;-0.151;0.528;9.753;0.878;1.564;1.356;-1.438;-0.65;-1.055;0.029;3.0;32.9;-26.3;-18.2;262.7;-84.6;-32.2;3.0;1001.2;66.51;23.02604;72.54032;-2.1;158.08146808805284;;4.3;9.67742;291.7;19 / 22;26006;2018-08-23 20:57:37:933
1.872;10.535;0.357;0.416;9.754;0.926;1.456;0.781;-0.569;-0.035;-0.822;-0.429;3.0;31.3;-25.9;-22.3;273.9;-84.0;-26.0;3.0;1001.2;70.5;23.02604;72.54032;-2.1;158.08146808805284;;4.3;9.67742;291.7;19 / 22;26108;2018-08-23 20:57:38:035
-0.041;7.801;1.872;0.466;9.738;1.059;-0.507;-1.612;1.069;-0.087;-0.484;0.153;3.0;32.0;-23.9;-23.8;279.0;-83.5;-22.7;3.0;1001.2;70.5;23.02604;72.54032;-2.1;158.08146808805284;;4.3;9.67742;291.7;19 / 22;26207;2018-08-23 20:57:38:134
0.18;7.923;0.297;0.611;9.733;1.032;-0.534;-2.126;-0.567;0.389;-0.132;0.055;3.0;30.3;-23.8;-26.5;277.1;-83.0;-30.6;3.0;1001.2;70.5;23.02604;72.54032;-2.1;158.08146808805284;;4.3;9.67742;291.7;19 / 22;26306;2018-08-23 20:57:38:233
0.285;10.061;-0.627;0.621;9.772;0.544;-0.475;0.078;-1.006;0.53;0.13;0.043;3.0;31.6;-25.9;-29.0;265.5;-84.7;-43.5;3.0;1001.2;70.5;23.02604;72.54032;-2.1;158.08146808805284;;4.3;9.67742;291.7;19 / 22;26406;2018-08-23 20:57:38:333
1.35;11.751;-0.498;0.679;9.779;0.287;0.714;2.147;-0.874;-0.206;-0.392;0.15;2.0;31.4;-27.4;-29.2;242.0;-85.9;-68.0;3.0;1001.2;68.44;23.02605;72.54031;-2.1;158.08146808805284;;4.3;9.67742;297.5;19 / 21;26506;2018-08-23 20:57:38:433
-0.084;10.844;2.988;0.678;9.761;0.66;-0.808;1.073;2.411;-0.005;1.012;-0.166;2.0;30.3;-26.9;-29.3;261.6;-84.4;-48.9;3.0;1001.2;68.44;23.02605;72.54031;-2.1;158.08146808805284;;4.3;9.67742;297.5;19 / 21;26606;2018-08-23 20:57:38:533
-0.333;9.125;0.395;0.553;9.774;0.576;-0.881;-0.52;-0.174;0.044;0.497;0.116;2.0;32.5;-26.4;-26.5;262.0;-85.4;-45.4;3.0;1001.2;68.44;23.02605;72.54031;-2.1;158.08146808805284;;4.3;9.67742;297.5;19 / 21;26706;2018-08-23 20:57:38:633
0.776;6.893;-1.185;0.712;9.744;0.843;0.064;-2.851;-2.028;-0.556;0.221;0.283;2.0;33.0;-26.5;-26.7;261.3;-84.6;-42.9;3.0;1001.2;68.67;23.02605;72.54031;-2.1;158.08146808805284;;4.3;9.67742;297.5;19 / 21;26806;2018-08-23 20:57:38:733
0.728;8.404;0.646;0.686;9.697;1.294;-0.028;-1.173;-0.654;-0.127;0.641;-0.285;3.0;33.5;-26.3;-26.3;269.0;-81.7;-34.1;3.0;1001.2;68.67;23.02605;72.54031;-2.1;158.08146808805284;;4.3;9.67742;297.5;19 / 21;26906;2018-08-23 20:57:38:833
0.709;11.54;1.463;0.636;9.685;1.405;-0.262;1.784;0.268;-0.204;-0.275;0.343;3.0;34.4;-25.5;-25.1;278.3;-81.2;-23.0;3.0;1001.2;68.67;23.02605;72.54031;-2.1;158.08146808805284;;4.3;9.67742;297.5;19 / 21;27006;2018-08-23 20:57:38:933
1.839;12.989;1.688;0.86;9.664;1.429;1.08;3.158;0.206;0.328;0.114;-0.065;3.0;33.4;-25.9;-26.4;271.1;-80.2;-31.0;3.0;1001.2;60.91;23.02605;72.54031;-2.1;158.08146808805284;;4.3;9.67742;297.5;19 / 21;27106;2018-08-23 20:57:39:033
1.489;9.481;3.17;0.848;9.696;1.199;0.105;0.389;2.443;0.309;-0.324;0.236;3.0;33.4;-26.6;-25.5;268.3;-81.2;-32.6;3.0;1001.2;60.91;23.02605;72.54031;-2.1;158.08146808805284;;4.3;9.67742;297.5;19 / 21;27206;2018-08-23 20:57:39:133
3.328;8.593;-0.666;1.151;9.659;1.247;2.177;-1.066;-1.912;-0.445;-0.873;-0.099;3.0;31.5;-27.3;-27.5;262.4;-80.7;-41.8;3.0;1001.2;60.91;23.02605;72.54031;-2.1;158.08146808805284;;4.3;9.67742;297.5;19 / 21;27306;2018-08-23 20:57:39:233
0.625;7.147;0.62;1.202;9.633;1.389;-0.225;-2.853;-0.477;-0.044;-0.347;-0.382;3.0;31.7;-25.9;-29.8;264.6;-79.1;-42.7;3.0;1001.2;60.91;23.02605;72.54031;-2.1;158.08146808805284;;4.3;9.67742;297.5;19 / 21;27406;2018-08-23 20:57:39:333
-0.141;9.321;0.266;0.79;9.691;1.275;-1.013;-0.018;-1.088;0.288;0.029;-0.308;3.0;30.4;-24.1;-29.0;277.1;-81.2;-31.8;3.0;1001.2;59.4;23.02605;72.5403;-2.1;158.08146808805284;;4.4;9.67742;295.0;19 / 21;27506;2018-08-23 20:57:39:433
0.172;11.538;0.862;0.64;9.754;0.784;-0.467;1.784;0.078;0.408;0.335;0.199;3.0;31.9;-25.0;-27.8;271.7;-83.5;-34.6;3.0;1001.2;59.4;23.02605;72.5403;-2.1;158.08146808805284;;4.4;9.67742;295.0;19 / 21;27606;2018-08-23 20:57:39:533
1.686;12.884;0.354;0.757;9.752;0.7;1.013;3.067;-0.336;-0.091;0.16;-0.062;3.0;30.8;-25.6;-24.8;258.8;-84.1;-46.7;3.0;1001.2;59.4;23.02605;72.5403;-2.1;158.08146808805284;;4.4;9.67742;295.0;19 / 21;27706;2018-08-23 20:57:39:633
-1.271;11.248;3.857;0.623;9.775;0.484;-1.88;1.416;3.175;0.954;0.304;-0.002;4.0;32.3;-25.8;-23.2;258.4;-84.7;-43.9;3.0;1001.2;58.34;23.02605;72.5403;-2.1;158.08146808805284;;4.4;9.67742;295.0;19 / 21;27806;2018-08-23 20:57:39:733
-0.757;6.017;0.062;0.747;9.765;0.513;-1.504;-3.748;-0.451;-0.295;0.465;0.463;4.0;30.6;-26.5;-19.3;235.6;-85.4;-63.9;3.0;1001.2;58.34;23.02605;72.5403;-2.1;158.08146808805284;;4.4;9.67742;295.0;19 / 21;27906;2018-08-23 20:57:39:833
0.845;6.022;-1.398;0.949;9.718;0.908;-0.252;-4.152;-2.574;-0.692;0.456;0.096;3.0;31.3;-26.5;-18.7;248.5;-82.6;-48.1;3.0;1001.2;58.34;23.02605;72.5403;-2.1;158.08146808805284;;4.4;9.67742;295.0;19 / 21;28006;2018-08-23 20:57:39:933
0.302;11.028;2.172;0.816;9.636;1.63;-0.526;1.536;0.754;-0.222;1.004;-0.014;3.0;32.0;-26.5;-18.9;266.3;-79.3;-26.6;3.0;1001.2;57.69;23.02605;72.5403;-2.1;158.08146808805284;;4.4;9.67742;295.0;19 / 21;28106;2018-08-23 20:57:40:033
1.14;13.046;3.204;0.824;9.653;1.519;0.414;3.396;1.577;0.358;-0.173;0.156;3.0;32.5;-25.6;-16.9;263.6;-79.6;-26.4;3.0;1001.2;57.69;23.02605;72.5403;-2.1;158.08146808805284;;4.4;9.67742;295.0;19 / 21;28207;2018-08-23 20:57:40:134
2.531;12.362;-1.092;0.955;9.703;1.052;1.622;2.697;-2.148;-0.004;-0.136;0.136;2.0;32.6;-27.3;-16.5;248.1;-81.7;-42.2;3.0;1001.2;57.69;23.02605;72.5403;-2.1;158.08146808805284;;4.4;9.67742;295.0;19 / 21;28306;2018-08-23 20:57:40:233
3.156;9.311;0.838;1.37;9.634;1.216;1.786;-0.323;-0.378;-0.088;-1.008;-0.027;2.0;31.8;-27.2;-17.8;246.8;-80.1;-44.6;3.0;1001.2;62.67;23.02605;72.5403;-2.1;158.08146808805284;;4.4;9.67742;295.0;19 / 21;28406;2018-08-23 20:57:40:333
0.453;7.422;0.639;1.368;9.654;1.045;-0.949;-2.335;-0.552;0.114;-0.446;-0.155;2.0;30.2;-27.4;-18.6;245.8;-79.2;-49.1;3.0;1001.2;62.67;23.02606;72.54028;-2.1;158.08146808805284;;4.4;9.67742;307.0;20 / 22;28506;2018-08-23 20:57:40:433
1.393;7.805;0.251;1.375;9.636;1.194;0.055;-1.821;-0.902;-0.329;-0.688;0.061;2.0;30.3;-26.9;-20.3;247.2;-79.6;-49.5;3.0;1001.2;62.67;23.02606;72.54028;-2.1;158.08146808805284;;4.4;9.67742;307.0;20 / 22;28606;2018-08-23 20:57:40:533
2.138;9.596;0.225;1.48;9.63;1.117;0.67;0.048;-0.844;0.1;-0.163;-0.003;3.0;28.9;-27.1;-23.3;252.3;-78.9;-50.0;3.0;1001.2;66.51;23.02606;72.54028;-2.1;158.08146808805284;;4.4;9.67742;307.0;20 / 22;28706;2018-08-23 20:57:40:633
2.727;11.37;1.571;1.586;9.628;0.978;1.215;1.915;0.633;-0.035;-0.441;0.02;3.0;28.7;-27.2;-24.0;247.4;-79.2;-54.9;3.0;1001.2;66.51;23.02606;72.54028;-2.1;158.08146808805284;;4.4;9.67742;307.0;20 / 22;28806;2018-08-23 20:57:40:733
-1.516;11.823;3.558;1.351;9.684;0.747;-2.045;2.371;2.162;0.676;0.558;-0.46;3.0;27.4;-26.2;-24.4;245.3;-80.6;-60.4;3.0;1001.2;66.51;23.02606;72.54028;-2.1;158.08146808805284;;4.4;9.67742;307.0;20 / 22;28906;2018-08-23 20:57:40:833
-0.093;9.477;-1.786;1.197;9.727;0.343;-1.23;-0.385;-2.11;-0.539;-0.493;0.44;3.0;28.3;-27.3;-21.8;224.2;-83.0;-78.3;3.0;1001.2;66.51;23.02606;72.54028;-2.1;158.08146808805284;;4.4;9.67742;307.0;20 / 22;29006;2018-08-23 20:57:40:933
2.301;6.951;0.711;1.446;9.67;0.76;0.654;-2.791;-0.252;-0.217;0.109;0.221;3.0;26.6;-27.7;-24.7;241.7;-81.0;-64.3;3.0;1001.2;67.51;23.02606;72.54028;-2.1;158.08146808805284;;4.4;9.67742;307.0;20 / 22;29106;2018-08-23 20:57:41:033
2.387;8.653;0.582;1.633;9.617;1.009;0.77;-0.78;-0.463;-0.205;-0.247;0.084;3.0;26.1;-26.0;-26.0;248.1;-78.9;-58.6;3.0;1001.2;67.51;23.02606;72.54028;-2.1;158.08146808805284;;4.4;9.67742;307.0;20 / 22;29206;2018-08-23 20:57:41:133
1.738;10.576;3.077;1.779;9.585;1.064;-0.112;0.761;2.094;-0.141;-0.431;0.177;3.0;26.0;-27.1;-26.8;248.0;-78.3;-59.3;3.0;1001.2;67.51;23.02606;72.54028;-2.1;158.08146808805284;;4.4;9.67742;307.0;20 / 22;29307;2018-08-23 20:57:41:234
0.055;12.003;0.601;1.759;9.603;0.922;-1.543;2.169;-0.282;0.633;0.531;-0.36;3.0;24.4;-27.2;-28.1;250.3;-77.7;-60.9;3.0;1001.2;69.04;23.02606;72.54028;-2.1;158.08146808805284;;4.4;9.67742;307.0;20 / 22;29406;2018-08-23 20:57:41:333
2.246;9.182;1.482;1.653;9.625;0.89;0.593;-0.443;0.592;-0.194;0.149;0.205;3.0;26.1;-27.2;-25.9;245.6;-79.2;-62.5;3.0;1001.2;69.04;23.02606;72.54028;-2.1;158.08146808805284;;4.4;9.67742;311.9;19 / 21;29506;2018-08-23 20:57:41:433
4.006;9.67;3.347;1.755;9.568;1.246;3.074;0.101;0.71;-0.186;0.679;-0.423;3.0;26.0;-25.9;-26.6;253.3;-77.3;-54.6;3.0;1001.2;69.04;23.02606;72.54028;-2.1;158.08146808805284;;4.4;9.67742;311.9;19 / 21;29606;2018-08-23 20:57:41:533
0.012;8.425;1.729;1.473;9.588;1.44;-1.511;-0.83;0.676;-0.083;-0.28;-0.125;3.0;27.9;-24.8;-24.9;256.2;-77.7;-48.7;3.0;1001.2;67.5;23.02606;72.54028;-2.1;158.08146808805284;;4.4;9.67742;311.9;19 / 21;29706;2018-08-23 20:57:41:633
1.532;8.299;-0.175;1.37;9.635;1.21;0.102;-1.149;-1.318;0.684;0.412;-0.203;3.0;27.8;-25.0;-24.8;256.4;-79.3;-48.5;3.0;1001.2;67.5;23.02606;72.54028;-2.1;158.08146808805284;;4.4;9.67742;311.9;19 / 21;29806;2018-08-23 20:57:41:733
2.548;9.187;0.644;1.489;9.654;0.873;0.728;-0.414;0.214;0.302;-0.279;0.244;3.0;28.2;-25.7;-24.3;247.5;-80.1;-56.9;3.0;1001.2;67.5;23.02606;72.54028;-2.1;158.08146808805284;;4.4;9.67742;311.9;19 / 21;29906;2018-08-23 20:57:41:833
2.466;11.071;-0.019;1.646;9.652;0.543;0.806;1.287;-0.448;0.063;-0.23;-0.085;3.0;28.2;-26.6;-22.6;235.2;-79.7;-68.4;3.0;1001.2;62.8;23.02606;72.54028;-2.1;158.08146808805284;;4.4;9.67742;311.9;19 / 21;30006;2018-08-23 20:57:41:933
0.376;10.714;1.501;1.556;9.666;0.569;-0.876;1.075;0.498;0.234;1.164;-0.514;3.0;27.9;-26.9;-23.3;233.0;-80.0;-70.9;3.0;1001.2;62.8;23.02606;72.54028;-2.1;158.08146808805284;;4.4;9.67742;311.9;19 / 21;30106;2018-08-23 20:57:42:033
-1.707;10.525;0.093;1.142;9.73;0.438;-2.399;0.343;-0.369;-0.682;-0.357;0.426;3.0;30.8;-26.3;-21.0;228.0;-82.9;-73.4;3.0;1001.2;62.8;23.02606;72.54028;-2.1;158.08146808805284;;4.4;9.67742;311.9;19 / 21;30206;2018-08-23 20:57:42:133
0.733;8.119;0.67;1.178;9.693;0.914;-0.446;-1.574;-0.243;0.083;0.67;-0.133;3.0;29.0;-26.1;-21.7;248.1;-81.1;-53.4;3.0;1001.2;63.31;23.02606;72.54028;-2.1;158.08146808805284;;4.4;9.67742;311.9;19 / 21;30306;2018-08-23 20:57:42:233
0.158;8.708;-0.048;1.038;9.706;0.941;-0.88;-1.039;-0.936;0.147;0.316;-0.057;3.0;31.3;-25.4;-21.2;251.0;-81.6;-47.9;3.0;1001.2;63.31;23.02606;72.54028;-2.1;158.08146808805284;;4.4;9.67742;311.9;19 / 21;30406;2018-08-23 20:57:42:333
1.082;10.288;-0.603;0.965;9.734;0.701;-0.347;0.164;-0.804;0.13;0.09;0.213;3.0;30.7;-25.9;-20.0;245.6;-82.9;-52.8;3.0;1001.2;63.31;23.02606;72.54027;-2.1;158.08146808805284;;4.3;9.67742;308.0;19 / 21;30506;2018-08-23 20:57:42:433
2.765;11.234;0.019;1.207;9.721;0.467;0.888;1.48;0.402;0.112;-0.049;0.44;3.0;30.3;-26.9;-18.7;232.9;-82.7;-65.2;3.0;1001.2;63.31;23.02606;72.54027;-2.1;158.08146808805284;;4.3;9.67742;308.0;19 / 21;30606;2018-08-23 20:57:42:533
1.81;10.542;4.669;1.422;9.679;0.682;0.261;1.462;3.552;0.338;0.351;0.025;3.0;28.3;-27.8;-17.5;226.0;-81.3;-70.3;3.0;1001.2;69.88;23.02606;72.54027;-2.1;158.08146808805284;;4.3;9.67742;308.0;19 / 21;30706;2018-08-23 20:57:42:633
1.13;9.793;0.644;1.393;9.686;0.645;0.077;0.631;-0.219;0.093;0.303;-0.09;3.0;29.3;-27.5;-18.6;228.6;-81.0;-67.3;3.0;1001.2;69.88;23.02606;72.54027;-2.1;158.08146808805284;;4.3;9.67742;308.0;19 / 21;30806;2018-08-23 20:57:42:733
-0.093;7.492;0.713;1.299;9.695;0.695;-1.419;-2.103;-0.006;-0.206;-0.247;0.061;3.0;28.9;-27.1;-17.4;232.6;-81.4;-62.6;3.0;1001.2;69.88;23.02606;72.54027;-2.1;158.08146808805284;;4.3;9.67742;308.0;19 / 21;30906;2018-08-23 20:57:42:833
0.773;8.847;-0.752;1.268;9.704;0.636;-0.523;-1.139;-1.158;0.197;-0.072;-0.056;3.0;27.5;-26.9;-17.6;236.1;-81.2;-61.0;3.0;1001.2;68.12;23.02606;72.54027;-2.1;158.08146808805284;;4.3;9.67742;308.0;19 / 21;31006;2018-08-23 20:57:42:933
2.38;10.094;0.577;1.359;9.698;0.518;1.002;0.238;-0.003;0.048;-0.07;-0.052;3.0;27.5;-27.3;-18.8;231.7;-81.6;-67.5;3.0;1001.2;68.12;23.02606;72.54027;-2.1;158.08146808805284;;4.3;9.67742;308.0;19 / 21;31106;2018-08-23 20:57:43:033
1.468;13.348;-0.146;1.226;9.727;0.238;0.352;3.099;-0.056;0.293;0.097;-0.265;3.0;27.5;-27.1;-17.4;224.4;-82.0;-74.9;3.0;1001.2;68.12;23.02606;72.54027;-2.1;158.08146808805284;;4.3;9.67742;308.0;19 / 21;31206;2018-08-23 20:57:43:133
0.431;10.245;2.686;1.296;9.711;0.425;-0.896;0.548;2.517;0.048;0.214;0.07;3.0;27.1;-26.4;-16.1;221.1;-82.6;-75.7;3.0;1001.2;58.1;23.02606;72.54027;-2.1;158.08146808805284;;4.3;9.67742;308.0;19 / 21;31306;2018-08-23 20:57:43:233
-0.539;8.289;0.611;1.273;9.705;0.599;-1.812;-1.416;0.012;-0.398;0.4;0.207;3.0;27.7;-27.4;-15.1;224.8;-82.0;-69.6;3.0;1001.2;58.1;23.02606;72.54027;-2.1;158.08146808805284;;4.3;9.67742;308.0;19 / 21;31406;2018-08-23 20:57:43:333
1.832;6.809;-1.01;1.377;9.649;1.081;0.453;-2.727;-2.067;-0.299;0.197;0.01;3.0;26.6;-26.2;-15.3;238.9;-80.1;-54.3;3.0;1001.2;58.1;23.02607;72.54026;-2.1;158.08146808805284;;4.3;9.67742;304.0;20 / 22;31506;2018-08-23 20:57:43:433
1.276;10.056;1.523;1.338;9.626;1.314;-0.148;0.588;0.379;-0.018;0.431;-0.029;3.0;27.5;-24.9;-14.8;245.1;-79.0;-45.9;3.0;1001.2;59.48;23.02607;72.54026;-2.1;158.08146808805284;;4.3;9.67742;304.0;20 / 22;31606;2018-08-23 20:57:43:533
2.301;11.983;1.367;1.428;9.641;1.084;0.638;2.411;0.484;0.23;-0.36;0.383;2.0;28.1;-24.6;-13.0;241.2;-79.5;-46.6;3.0;1001.2;59.48;23.02607;72.54026;-2.1;158.08146808805284;;4.3;9.67742;304.0;20 / 22;31706;2018-08-23 20:57:43:633
3.34;10.666;0.316;1.66;9.625;0.88;1.68;1.041;-0.564;-0.108;-0.036;0.079;2.0;26.5;-25.3;-12.7;228.1;-79.1;-61.9;3.0;1001.3;59.48;23.02607;72.54026;-2.1;158.08146808805284;;4.3;9.67742;304.0;20 / 22;31811;2018-08-23 20:57:43:738
3.627;10.149;0.46;1.646;9.631;0.835;1.651;0.578;-0.378;-0.152;-0.532;-0.071;2.0;26.6;-24.4;-12.8;227.4;-79.1;-62.4;3.0;1001.3;64.45;23.02607;72.54026;-2.1;158.08146808805284;;4.3;9.67742;304.0;20 / 22;31906;2018-08-23 20:57:43:833
1.805;8.093;3.05;1.82;9.566;1.16;0.048;-1.392;1.919;-0.027;-0.12;-0.147;2.0;27.4;-24.8;-14.5;231.4;-77.6;-58.6;3.0;1001.3;64.45;23.02607;72.54026;-2.1;158.08146808805284;;4.3;9.67742;304.0;20 / 22;32007;2018-08-23 20:57:43:934
1.523;6.963;0.345;1.806;9.566;1.185;-0.283;-2.603;-0.84;-0.046;-0.652;-0.045;2.0;27.1;-23.5;-14.3;233.2;-77.3;-56.1;3.0;1001.2;64.45;23.02607;72.54026;-2.1;158.08146808805284;;4.3;9.67742;304.0;20 / 22;32106;2018-08-23 20:57:44:033
2.049;9.788;0.951;1.714;9.594;1.094;0.379;-0.388;-0.641;0.217;0.035;-0.206;2.0;27.8;-21.9;-17.3;237.7;-77.9;-57.2;3.0;1001.2;64.45;23.02607;72.54026;-2.1;158.08146808805284;;4.3;9.67742;304.0;20 / 22;32206;2018-08-23 20:57:44:133
1.999;11.212;0.994;1.623;9.632;0.87;0.297;1.434;0.076;0.009;-0.219;-0.046;3.0;28.9;-22.1;-17.0;234.0;-79.1;-61.1;3.0;1001.2;72.67;23.02607;72.54026;-2.1;158.08146808805284;;4.3;9.67742;304.0;20 / 22;32306;2018-08-23 20:57:44:233
1.022;12.161;1.116;1.527;9.654;0.797;-0.401;2.566;0.065;-0.223;0.297;-0.027;3.0;29.4;-22.1;-18.5;233.4;-79.7;-63.3;3.0;1001.2;72.67;23.02607;72.54026;-2.1;158.08146808805284;;4.3;9.67742;304.0;20 / 22;32406;2018-08-23 20:57:44:333
0.723;9.261;0.685;1.59;9.649;0.736;-0.855;-0.266;-0.027;0.114;0.163;0.259;3.0;30.0;-23.1;-18.4;233.1;-79.8;-64.6;3.0;1001.2;72.67;23.02607;72.54026;-2.1;158.08146808805284;;4.2;9.67742;300.4;18 / 20;32506;2018-08-23 20:57:44:433
0.737;7.077;0.232;1.651;9.614;1.003;-0.945;-2.41;-0.825;-0.331;0.304;0.086;3.0;29.2;-24.0;-18.7;233.6;-79.2;-62.6;3.0;1001.2;63.81;23.02607;72.54026;-2.1;158.08146808805284;;4.2;9.67742;300.4;18 / 20;32606;2018-08-23 20:57:44:533
1.501;8.248;-0.067;1.609;9.572;1.397;-0.098;-1.575;-1.553;-0.41;0.232;-0.092;3.0;29.9;-24.1;-18.5;242.6;-77.7;-51.3;3.0;1001.3;63.81;23.02607;72.54026;-2.1;158.08146808805284;;4.2;9.67742;300.4;18 / 20;32706;2018-08-23 20:57:44:633
1.911;11.052;2.617;1.493;9.564;1.574;0.374;1.27;0.837;-0.113;0.202;-0.135;2.0;30.5;-22.9;-18.4;249.0;-77.2;-44.5;3.0;1001.2;63.81;23.02607;72.54026;-2.1;158.08146808805284;;4.2;9.67742;300.4;18 / 20;32806;2018-08-23 20:57:44:733
2.471;12.438;1.049;1.405;9.626;1.24;1.002;3.104;0.299;0.695;0.296;-0.016;2.0;30.3;-23.3;-18.7;248.9;-78.1;-45.0;3.0;1001.2;66.31;23.02607;72.54026;-2.1;158.08146808805284;;4.2;9.67742;300.4;18 / 20;32907;2018-08-23 20:57:44:834
2.03;10.71;3.177;1.38;9.657;0.999;0.332;1.581;2.175;0.383;-0.142;0.251;2.0;30.6;-24.2;-17.4;241.0;-80.0;-52.2;3.0;1001.2;66.31;23.02607;72.54026;-2.1;158.08146808805284;;4.2;9.67742;300.4;18 / 20;33006;2018-08-23 20:57:44:933
2.741;9.553;0.637;1.542;9.646;0.863;1.628;-0.062;-0.147;-0.187;-0.922;-0.285;2.0;30.7;-24.8;-18.6;233.5;-80.0;-61.5;3.0;1001.2;66.31;23.02607;72.54026;-2.1;158.08146808805284;;4.2;9.67742;300.4;18 / 20;33106;2018-08-23 20:57:45:033
-0.424;7.695;0.249;1.379;9.685;0.679;-1.7;-1.952;-0.461;0.263;-0.005;-0.286;3.0;29.6;-25.9;-19.7;235.1;-80.8;-63.4;3.0;1001.2;63.39;23.02607;72.54026;-2.1;158.08146808805284;;4.2;9.67742;300.4;18 / 20;33207;2018-08-23 20:57:45:134
1.123;7.71;-1.099;1.26;9.713;0.493;-0.493;-2.19;-1.317;-0.15;-0.647;0.03;3.0;29.2;-25.1;-20.0;232.0;-82.1;-68.5;3.0;1001.2;63.39;23.02607;72.54026;-2.1;158.08146808805284;;4.2;9.67742;300.4;18 / 20;33307;2018-08-23 20:57:45:234
1.959;10.303;0.414;1.353;9.698;0.534;0.517;0.451;-0.015;0.202;0.001;0.096;3.0;28.1;-25.1;-21.2;235.5;-81.5;-66.6;3.0;1001.2;63.39;23.02607;72.54026;-2.1;158.08146808805284;;4.2;9.67742;300.4;18 / 20;33406;2018-08-23 20:57:45:333
1.262;12.881;2.65;1.441;9.689;0.463;-0.231;3.141;2.116;0.138;-0.005;0.106;4.0;27.5;-25.7;-21.8;232.7;-81.3;-71.6;3.0;1001.2;63.39;23.02607;72.54025;-2.1;158.08146808805284;;4.1;9.67742;301.0;18 / 20;33506;2018-08-23 20:57:45:433
-0.45;11.43;2.811;1.529;9.68;0.349;-2.216;2.104;2.673;0.462;0.109;0.222;4.0;27.4;-27.2;-20.8;227.8;-81.0;-75.1;3.0;1001.2;62.81;23.02607;72.54025;-2.1;158.08146808805284;;4.1;9.67742;301.0;18 / 20;33606;2018-08-23 20:57:45:533
0.797;7.3;-0.244;1.674;9.658;0.295;-0.675;-2.102;-0.29;-0.174;0.733;-0.055;4.0;26.0;-29.0;-20.3;219.7;-80.2;-83.4;3.0;1001.2;62.81;23.02607;72.54025;-2.1;158.08146808805284;;4.1;9.67742;301.0;18 / 20;33706;2018-08-23 20:57:45:633
0.527;7.662;-0.388;1.48;9.675;0.615;-0.905;-2.073;-1.077;-0.332;0.046;0.13;4.0;28.5;-27.8;-19.1;228.9;-80.8;-69.1;3.0;1001.2;62.81;23.02607;72.54025;-2.1;158.08146808805284;;4.1;9.67742;301.0;18 / 20;33806;2018-08-23 20:57:45:733
1.295;8.629;-0.18;1.651;9.635;0.781;-0.378;-1.042;-0.991;0.059;0.164;0.246;3.0;27.7;-27.0;-19.7;235.6;-79.6;-63.6;3.0;1001.2;65.6;23.02607;72.54025;-2.1;158.08146808805284;;4.1;9.67742;301.0;18 / 20;33906;2018-08-23 20:57:45:833
1.82;12.24;1.247;1.759;9.625;0.661;-0.016;2.864;0.675;0.111;-0.079;-0.007;3.0;27.0;-28.6;-19.4;230.2;-78.9;-68.1;3.0;1001.2;65.6;23.02607;72.54025;-2.1;158.08146808805284;;4.1;9.67742;301.0;18 / 20;34006;2018-08-23 20:57:45:933
1.88;11.878;-0.273;1.885;9.621;0.238;0.143;2.293;-0.871;0.543;-0.144;0.046;3.0;27.4;-29.3;-18.4;218.6;-78.9;-79.4;3.0;1001.2;65.6;23.02607;72.54025;-2.1;158.08146808805284;;4.1;9.67742;301.0;18 / 20;34106;2018-08-23 20:57:46:033
2.212;9.51;2.423;1.904;9.619;0.163;0.205;0.081;2.15;0.094;-0.085;-0.14;3.0;26.7;-30.2;-17.2;211.1;-78.8;-86.2;3.0;1001.2;68.49;23.02607;72.54025;-2.1;158.08146808805284;;4.1;9.67742;301.0;18 / 20;34207;2018-08-23 20:57:46:134
3.093;8.933;0.539;1.767;9.644;0.226;1.166;-0.864;0.444;-0.226;-0.092;-0.305;3.0;26.9;-30.1;-17.4;211.7;-79.1;-85.6;3.0;1001.2;68.49;23.02607;72.54025;-2.1;158.08146808805284;;4.1;9.67742;301.0;18 / 20;34306;2018-08-23 20:57:46:233
0.213;7.781;-0.567;1.436;9.694;0.371;-1.223;-1.92;-0.919;-0.253;0.053;-0.129;3.0;28.4;-27.8;-17.3;218.1;-80.4;-78.5;3.0;1001.2;68.49;23.02607;72.54025;-2.1;158.08146808805284;;4.1;9.67742;301.0;18 / 20;34406;2018-08-23 20:57:46:333
0.757;9.362;0.536;1.235;9.713;0.558;-0.603;0.006;-0.072;0.051;0.289;-0.29;3.0;29.5;-26.4;-17.4;228.5;-81.7;-66.6;3.0;1001.2;67.86;23.02608;72.54024;-2.1;158.08146808805284;;4.1;9.67742;294.3;21 / 24;34506;2018-08-23 20:57:46:433
1.231;10.554;0.412;1.149;9.726;0.498;0.08;0.801;-0.065;0.303;0.111;-0.068;3.0;29.5;-27.0;-16.4;229.3;-82.4;-64.4;3.0;1001.2;67.86;23.02608;72.54024;-2.1;158.08146808805284;;4.1;9.67742;294.3;21 / 24;34606;2018-08-23 20:57:46:533
0.785;12.314;-0.031;1.029;9.751;0.185;-0.318;2.187;-0.214;0.168;0.164;-0.079;3.0;30.8;-26.9;-14.9;218.3;-83.6;-76.8;3.0;1001.2;67.86;23.02608;72.54024;-2.1;158.08146808805284;;4.1;9.67742;294.3;21 / 24;34706;2018-08-23 20:57:46:633
-1.185;11.239;3.587;1.035;9.75;0.202;-2.225;1.436;3.289;0.372;0.552;0.095;3.0;31.5;-27.1;-14.0;213.3;-83.9;-77.8;3.0;1001.2;67.19;23.02608;72.54024;-2.1;158.08146808805284;;4.1;9.67742;294.3;21 / 24;34806;2018-08-23 20:57:46:733
0.369;7.779;-0.35;1.195;9.728;0.322;-0.781;-1.92;-0.653;-0.314;0.338;0.236;3.0;30.8;-27.7;-12.9;212.0;-83.0;-77.8;3.0;1001.2;67.19;23.02608;72.54024;-2.1;158.08146808805284;;4.1;9.67742;294.3;21 / 24;34906;2018-08-23 20:57:46:833
1.563;7.212;-0.855;1.206;9.714;0.588;0.314;-2.503;-1.46;-0.311;0.274;0.009;3.0;31.4;-28.6;-12.5;219.8;-82.4;-67.5;3.0;1001.2;67.19;23.02608;72.54024;-2.1;158.08146808805284;;4.1;9.67742;294.3;21 / 24;35006;2018-08-23 20:57:46:933
0.845;9.864;1.046;1.078;9.717;0.769;-0.02;-0.111;0.174;0.277;0.312;-0.181;3.0;31.6;-28.0;-12.5;230.8;-81.9;-56.5;3.0;1001.2;67.19;23.02608;72.54024;-2.1;158.08146808805284;;4.1;9.67742;294.3;21 / 24;35106;2018-08-23 20:57:47:033
0.474;11.43;-0.144;1.104;9.736;0.396;-0.675;1.718;-0.533;0.312;-0.211;0.431;3.0;31.7;-28.0;-11.0;225.7;-83.1;-59.3;3.0;1001.2;64.3;23.02608;72.54024;-2.1;158.08146808805284;;4.1;9.67742;294.3;21 / 24;35206;2018-08-23 20:57:47:133
1.69;11.895;-0.242;1.345;9.713;0.127;0.345;2.182;-0.369;0.291;0.021;0.019;3.0;30.9;-29.6;-10.4;206.0;-82.4;-79.0;3.0;1001.2;64.3;23.02608;72.54024;-2.1;158.08146808805284;;4.1;9.67742;294.3;21 / 24;35306;2018-08-23 20:57:47:233
3.503;9.333;2.172;1.519;9.688;0.11;1.805;-0.087;2.167;-0.129;-0.688;0.148;3.0;30.1;-29.9;-10.6;199.5;-81.9;-88.2;3.0;1001.2;64.3;23.02608;72.54024;-2.1;158.08146808805284;;4.1;9.67742;294.3;21 / 24;35406;2018-08-23 20:57:47:333
1.686;8.971;1.365;1.578;9.675;0.277;0.175;-0.665;1.05;0.03;0.09;-0.261;3.0;29.9;-29.3;-13.0;203.3;-80.7;-83.7;3.0;1001.2;62.59;23.02608;72.54023;-2.1;158.08146808805284;;4.1;9.67742;284.3;18 / 22;35506;2018-08-23 20:57:47:433
-0.192;8.16;-0.498;1.432;9.698;0.243;-1.624;-1.539;-0.741;-0.071;-0.295;0.135;3.0;30.9;-28.9;-13.4;209.1;-81.4;-80.3;3.0;1001.2;62.59;23.02608;72.54023;-2.1;158.08146808805284;;4.1;9.67742;284.3;18 / 22;35606;2018-08-23 20:57:47:533
1.609;8.938;-1.08;1.499;9.689;0.208;0.045;-1.051;-1.367;-0.041;-0.451;0.084;3.0;29.8;-29.3;-14.6;210.3;-81.2;-80.9;3.0;1001.2;62.59;23.02608;72.54023;-2.1;158.08146808805284;;4.1;9.67742;284.3;18 / 22;35706;2018-08-23 20:57:47:633
2.413;10.437;-0.517;1.675;9.662;0.055;0.738;0.774;-0.572;-0.07;-0.357;0.089;3.0;27.8;-29.5;-15.8;209.2;-80.6;-85.9;3.0;1001.2;60.77;23.02608;72.54023;-2.1;158.08146808805284;;4.1;9.67742;284.3;18 / 22;35806;2018-08-23 20:57:47:733
1.781;12.029;-0.045;1.702;9.657;-0.074;0.086;2.338;0.064;0.065;-0.499;-0.085;3.0;28.0;-30.7;-16.7;206.5;-79.9;-91.0;3.0;1001.2;60.77;23.02608;72.54023;-2.1;158.08146808805284;;4.1;9.67742;284.3;18 / 22;35906;2018-08-23 20:57:47:833
-0.632;10.971;1.417;1.546;9.683;-0.13;-2.108;1.149;2.304;0.429;0.274;-0.194;3.0;27.8;-29.7;-17.5;206.5;-80.3;-93.5;3.0;1001.2;60.77;23.02608;72.54023;-2.1;158.08146808805284;;4.1;9.67742;284.3;18 / 22;36006;2018-08-23 20:57:47:933
0.651;7.971;-0.84;1.41;9.705;-0.031;-0.883;-1.502;-0.775;-0.57;0.161;0.237;4.0;28.1;-29.9;-15.9;199.2;-81.6;-98.2;3.0;1001.2;62.25;23.02608;72.54023;-2.1;158.08146808805284;;4.1;9.67742;284.3;18 / 22;36106;2018-08-23 20:57:48:033
1.954;7.564;0.002;1.466;9.688;0.414;0.409;-2.153;-0.548;-0.297;0.282;0.029;4.0;28.0;-29.5;-17.0;213.9;-81.5;-81.7;3.0;1001.2;62.25;23.02608;72.54023;-2.1;158.08146808805284;;4.1;9.67742;284.3;18 / 22;36206;2018-08-23 20:57:48:133
0.627;9.919;0.563;1.399;9.691;0.551;-0.671;0.049;-0.223;0.119;0.389;-0.065;4.0;28.9;-29.2;-16.9;226.0;-80.9;-69.6;3.0;1001.2;62.25;23.02608;72.54023;-2.1;158.08146808805284;;4.1;9.67742;284.3;18 / 22;36306;2018-08-23 20:57:48:233
1.37;11.763;-0.103;1.367;9.703;0.391;0.002;2.06;-0.494;-0.049;-0.321;0.192;5.0;29.2;-28.7;-14.8;219.0;-81.7;-74.0;3.0;1001.2;68.52;23.02608;72.54023;-2.1;158.08146808805284;;4.1;9.67742;284.3;18 / 22;36406;2018-08-23 20:57:48:333
2.294;12.232;-0.211;1.429;9.699;0.231;0.864;2.533;-0.442;0.073;-0.352;-0.035;5.0;29.0;-29.6;-15.1;217.9;-81.3;-76.4;3.0;1001.2;68.52;23.02609;72.54022;-2.1;158.08146808805284;;4.0;9.67742;298.4;20 / 24;36506;2018-08-23 20:57:48:433
3.682;9.62;-0.271;1.399;9.706;0.114;2.171;-0.191;-0.202;0.063;-0.644;-0.201;4.0;28.3;-29.7;-15.7;211.7;-81.7;-84.2;3.0;1001.2;68.52;23.02609;72.54022;-2.1;158.08146808805284;;4.0;9.67742;298.4;20 / 24;36606;2018-08-23 20:57:48:533
1.453;8.667;1.575;1.516;9.684;0.292;-0.226;-1.134;1.391;-0.117;0.383;-0.133;4.0;29.0;-29.1;-17.5;213.9;-81.2;-82.6;3.0;1001.2;68.52;23.02609;72.54022;-2.1;158.08146808805284;;4.0;9.67742;298.4;20 / 24;36706;2018-08-23 20:57:48:633
0.019;7.791;-0.024;1.478;9.689;0.318;-1.538;-1.894;-0.425;-0.131;-0.248;0.172;4.0;29.4;-28.5;-17.4;218.5;-81.1;-78.3;3.0;1001.2;70.79;23.02609;72.54022;-2.1;158.08146808805284;;4.0;9.67742;298.4;20 / 24;36807;2018-08-23 20:57:48:734
1.499;8.959;-0.826;1.539;9.682;0.226;-0.047;-0.706;-1.009;0.24;0.338;-0.014;4.0;28.3;-29.6;-17.8;216.5;-80.9;-81.7;3.0;1001.2;70.79;23.02609;72.54022;-2.1;158.08146808805284;;4.0;9.67742;298.4;20 / 24;36906;2018-08-23 20:57:48:833
1.664;11.148;-0.187;1.531;9.686;-0.002;0.133;1.461;-0.185;0.102;0.514;-0.049;4.0;29.8;-29.8;-16.3;206.1;-81.0;-88.9;3.0;1001.2;70.79;23.02609;72.54022;-2.1;158.08146808805284;;4.0;9.67742;298.4;20 / 24;37006;2018-08-23 20:57:48:933
1.207;12.659;0.108;1.45;9.698;-0.077;-0.237;3.12;0.14;0.177;0.781;-0.062;4.0;29.6;-29.4;-13.7;200.3;-81.3;-92.2;3.0;1001.2;68.61;23.02609;72.54022;-2.1;158.08146808805284;;4.0;9.67742;298.4;20 / 24;37106;2018-08-23 20:57:49:033
0.879;10.389;-0.728;1.283;9.721;-0.136;-0.426;0.713;-0.03;0.106;0.62;-0.142;4.0;30.9;-29.6;-10.9;193.5;-82.1;-94.5;3.0;1001.2;68.61;23.02609;72.54022;-2.1;158.08146808805284;;4.0;9.67742;298.4;20 / 24;37207;2018-08-23 20:57:49:134
1.379;7.185;-0.464;1.255;9.72;0.336;0.124;-2.535;-0.801;-0.685;0.569;-0.147;4.0;32.1;-29.3;-9.5;196.7;-82.6;-87.3;3.0;1001.2;68.61;23.02609;72.54022;-2.1;158.08146808805284;;4.0;9.67742;298.4;20 / 24;37307;2018-08-23 20:57:49:234
1.518;8.2;0.297;1.033;9.703;0.975;0.53;-1.651;-0.695;-0.462;0.361;-0.197;4.0;32.9;-28.9;-8.7;229.2;-81.9;-51.1;3.0;1001.2;63.27;23.02609;72.54022;-2.1;158.08146808805284;;4.0;9.67742;298.4;20 / 24;37406;2018-08-23 20:57:49:333
0.584;10.298;1.683;1.017;9.673;1.251;-0.517;0.751;0.54;-0.056;0.264;0.057;3.0;32.9;-27.3;-9.5;239.3;-80.9;-40.0;3.0;1001.2;63.27;23.02609;72.54021;-2.1;158.08146808805284;;4.0;9.67742;296.9;18 / 23;37506;2018-08-23 20:57:49:433
0.541;11.95;2.196;1.159;9.682;1.043;-0.653;2.376;1.049;0.342;-0.218;0.359;3.0;33.1;-28.2;-8.6;237.9;-80.7;-41.2;3.0;1001.2;63.27;23.02609;72.54021;-2.1;158.08146808805284;;4.0;9.67742;296.9;18 / 23;37606;2018-08-23 20:57:49:533
0.919;12.352;-0.747;1.344;9.687;0.721;-0.516;2.495;-1.009;-0.011;0.478;0.161;3.0;32.3;-29.1;-8.5;217.9;-81.2;-61.7;3.0;1001.2;60.85;23.02609;72.54021;-2.1;158.08146808805284;;4.0;9.67742;296.9;18 / 23;37706;2018-08-23 20:57:49:633
2.897;10.983;-0.862;1.522;9.65;0.86;1.284;1.4;-1.671;-0.527;-0.768;-0.082;3.0;31.7;-29.8;-8.3;216.1;-80.1;-63.1;3.0;1001.2;60.85;23.02609;72.54021;-2.1;158.08146808805284;;4.0;9.67742;296.9;18 / 23;37806;2018-08-23 20:57:49:733
-0.369;8.248;1.702;1.44;9.658;0.908;-1.914;-1.388;0.559;0.69;0.244;-0.265;3.0;31.4;-29.5;-8.8;223.1;-79.4;-57.0;3.0;1001.2;60.85;23.02609;72.54021;-2.1;158.08146808805284;;4.0;9.67742;296.9;18 / 23;37906;2018-08-23 20:57:49:833
0.958;6.876;-0.941;1.482;9.665;0.754;-0.525;-2.788;-1.695;-0.003;-0.318;0.177;4.0;31.1;-29.9;-7.6;215.7;-80.4;-62.1;3.0;1001.2;60.85;23.02609;72.54021;-2.1;158.08146808805284;;4.0;9.67742;296.9;18 / 23;38006;2018-08-23 20:57:49:933
2.665;9.745;0.397;1.687;9.634;0.712;0.918;-0.04;-0.415;-0.115;-0.06;0.241;4.0;31.4;-30.2;-7.9;213.3;-79.8;-64.5;3.0;1001.2;64.7;23.02609;72.54021;-2.1;158.08146808805284;;4.0;9.67742;296.9;18 / 23;38106;2018-08-23 20:57:50:033
2.665;11.399;0.711;1.824;9.618;0.577;0.869;1.3;0.099;0.394;-0.152;-0.122;4.0;30.1;-29.9;-8.1;210.7;-78.8;-69.2;3.0;1001.2;64.7;23.02609;72.54021;-2.1;158.08146808805284;;4.0;9.67742;296.9;18 / 23;38206;2018-08-23 20:57:50:133
-1.42;11.713;3.766;1.659;9.66;0.313;-3.079;2.27;2.676;0.259;0.839;0.021;4.0;31.3;-30.7;-7.6;201.9;-80.0;-79.3;3.0;1001.2;64.7;23.02609;72.54021;-2.1;158.08146808805284;;4.0;9.67742;296.9;18 / 23;38311;2018-08-23 20:57:50:238
-0.4;8.157;-0.843;1.614;9.671;0.193;-2.064;-1.339;-1.029;-0.275;0.722;0.356;4.0;30.5;-30.8;-4.7;190.8;-80.2;-87.0;3.0;1001.2;68.57;23.02609;72.54021;-2.1;158.08146808805284;;4.0;9.67742;296.9;18 / 23;38406;2018-08-23 20:57:50:333
1.358;6.024;-0.412;1.581;9.579;1.382;-0.425;-3.129;-1.758;-1.235;0.627;-0.316;4.0;30.6;-31.2;-4.4;204.2;-79.5;-67.4;3.0;1001.2;68.57;23.02609;72.5402;-2.1;158.08146808805284;;3.9;9.67742;298.5;19 / 22;38506;2018-08-23 20:57:50:433
2.959;10.346;2.038;1.409;9.428;2.301;1.122;0.834;-0.661;-1.41;-0.125;0.407;3.0;30.5;-30.6;-5.0;234.7;-76.0;-35.7;3.0;1001.2;68.57;23.02609;72.5402;-2.1;158.08146808805284;;3.9;9.67742;298.5;19 / 22;38607;2018-08-23 20:57:50:534
4.192;10.784;4.729;1.828;9.265;2.644;2.438;1.435;2.238;0.913;0.291;-0.103;3.0;31.1;-30.9;-8.3;235.6;-70.9;-34.7;3.0;1001.2;64.42;23.02609;72.5402;-2.1;158.08146808805284;;3.9;9.67742;298.5;19 / 22;38707;2018-08-23 20:57:50:634
3.457;10.561;0.239;1.971;9.468;1.626;1.391;0.923;-1.102;0.526;-1.383;0.076;2.0;30.7;-32.0;-5.7;226.0;-73.9;-42.8;3.0;1001.2;64.42;23.02609;72.5402;-2.1;158.08146808805284;;3.9;9.67742;298.5;19 / 22;38806;2018-08-23 20:57:50:733
4.736;10.042;3.105;2.258;9.423;1.511;2.308;0.542;1.604;-0.099;-0.75;-0.106;3.0;29.6;-32.5;-8.2;218.9;-74.8;-55.3;3.0;1001.2;64.42;23.02609;72.5402;-2.1;158.08146808805284;;3.9;9.67742;298.5;19 / 22;38906;2018-08-23 20:57:50:833
1.793;10.245;6.01;2.057;9.461;1.558;-0.11;1.035;4.401;-0.111;-0.727;-0.227;3.0;29.4;-30.8;-10.8;226.9;-74.6;-53.5;3.0;1001.2;52.79;23.02609;72.5402;-2.1;158.08146808805284;;3.9;9.67742;298.5;19 / 22;39006;2018-08-23 20:57:50:933
0.22;5.866;-0.043;1.97;9.48;1.556;-1.989;-3.159;-1.352;0.238;-1.06;-0.1;3.0;28.9;-30.8;-14.3;231.9;-74.8;-51.8;3.0;1001.2;52.79;23.02609;72.5402;-2.1;158.08146808805284;;3.9;9.67742;298.5;19 / 22;39106;2018-08-23 20:57:51:033
0.922;7.085;-1.484;1.779;9.578;1.125;-0.858;-2.493;-2.609;0.343;-0.106;-0.321;3.0;28.5;-30.3;-16.0;233.0;-77.3;-57.3;3.0;1001.2;52.79;23.02609;72.5402;-2.1;158.08146808805284;;3.9;9.67742;298.5;19 / 22;39206;2018-08-23 20:57:51:133
1.494;11.445;-0.345;1.598;9.64;0.824;-0.104;1.804;-1.169;-0.074;0.116;0.219;4.0;28.9;-30.7;-16.0;231.7;-78.9;-59.5;3.0;1001.2;54.01;23.02609;72.5402;-2.1;158.08146808805284;;3.9;9.67742;298.5;19 / 22;39306;2018-08-23 20:57:51:233
1.954;13.123;2.133;1.693;9.613;0.943;0.261;3.51;1.19;0.06;0.483;-0.071;4.0;29.9;-29.6;-15.7;230.0;-78.6;-60.9;3.0;1001.2;54.01;23.02609;72.5402;-2.1;158.08146808805284;;3.9;9.67742;298.5;19 / 22;39406;2018-08-23 20:57:51:333
0.634;10.499;1.202;1.373;9.7;0.432;-0.674;1.117;1.747;0.835;0.649;-0.131;4.0;30.5;-30.5;-12.1;224.1;-80.5;-63.7;3.0;1001.2;54.01;23.0261;72.54019;-2.1;158.08146808805284;;3.9;9.67742;302.1;20 / 22;39506;2018-08-23 20:57:51:433
2.078;6.579;-0.271;1.598;9.643;0.791;0.279;-2.886;-0.923;-0.711;-0.205;0.238;4.0;30.1;-30.8;-9.7;210.7;-81.2;-71.7;3.0;1001.2;54.01;23.0261;72.54019;-2.1;158.08146808805284;;3.9;9.67742;302.1;20 / 22;39606;2018-08-23 20:57:51:533
1.506;7.394;-0.33;1.509;9.652;0.851;-0.017;-2.242;-1.179;0.321;0.403;-0.117;4.0;30.7;-30.8;-10.8;222.9;-79.8;-60.6;3.0;1001.2;62.84;23.0261;72.54019;-2.1;158.08146808805284;;3.9;9.67742;302.1;20 / 22;39706;2018-08-23 20:57:51:633
0.924;9.704;0.017;1.444;9.667;0.802;-0.52;0.037;-0.785;-0.05;0.265;-0.106;4.0;31.0;-30.2;-9.2;219.4;-80.2;-61.2;3.0;1001.2;62.84;23.0261;72.54019;-2.1;158.08146808805284;;3.9;9.67742;302.1;20 / 22;39806;2018-08-23 20:57:51:733
1.065;12.599;1.037;1.21;9.705;0.718;-0.163;2.807;0.379;0.362;0.005;-0.325;4.0;31.6;-30.1;-8.8;219.7;-81.1;-59.5;3.0;1001.2;62.84;23.0261;72.54019;-2.1;158.08146808805284;;3.9;9.67742;302.1;20 / 22;39906;2018-08-23 20:57:51:833
3.522;10.41;1.113;1.309;9.696;0.666;2.071;1.449;-0.342;-0.601;-0.523;0.368;3.0;32.0;-30.8;-8.4;215.4;-82.6;-65.0;3.0;1001.2;63.68;23.0261;72.54019;-2.1;158.08146808805284;;3.9;9.67742;302.1;20 / 22;40006;2018-08-23 20:57:51:933
3.491;11.15;1.089;1.395;9.665;0.901;1.699;1.54;0.584;-0.405;-0.95;-0.184;3.0;31.1;-30.8;-11.3;224.6;-80.4;-58.9;3.0;1001.2;63.68;23.0261;72.54019;-2.1;158.08146808805284;;3.9;9.67742;302.1;20 / 22;40106;2018-08-23 20:57:52:033
-0.057;7.547;1.489;1.288;9.684;0.857;-1.343;-2.039;0.773;0.534;-0.351;-0.146;3.0;30.8;-29.6;-14.6;233.2;-80.4;-54.6;3.0;1001.2;63.68;23.0261;72.54019;-2.1;158.08146808805284;;3.9;9.67742;302.1;20 / 22;40207;2018-08-23 20:57:52:134
1.07;5.765;-1.525;1.197;9.718;0.537;-0.115;-3.927;-2.089;0.105;-0.56;-0.194;3.0;31.6;-29.3;-15.1;225.2;-82.1;-64.6;3.0;1001.2;62.03;23.0261;72.54019;-2.1;158.08146808805284;;3.9;9.67742;302.1;20 / 22;40306;2018-08-23 20:57:52:233
1.132;10.07;0.393;0.977;9.745;0.506;0.153;0.034;-0.037;0.119;0.385;-0.185;4.0;31.0;-28.9;-15.2;229.3;-83.6;-62.6;3.0;1001.2;62.03;23.0261;72.54019;-2.1;158.08146808805284;;3.9;9.67742;302.1;20 / 22;40406;2018-08-23 20:57:52:333
0.699;13.87;0.069;0.898;9.754;0.472;0.098;4.212;-0.058;-0.226;0.059;0.221;4.0;31.4;-28.1;-13.8;228.5;-84.1;-62.3;3.0;1001.2;62.03;23.02611;72.54018;-2.1;158.08146808805284;;3.9;9.67742;299.5;17 / 19;40506;2018-08-23 20:57:52:433
-0.828;11.775;4.688;0.945;9.741;0.618;-1.388;2.429;3.177;0.273;1.028;-0.033;3.0;32.1;-28.5;-14.0;231.9;-83.3;-57.6;3.0;1001.2;62.03;23.02611;72.54018;-2.1;158.08146808805284;;3.9;9.67742;299.5;17 / 19;40607;2018-08-23 20:57:52:534
0.28;7.499;-1.717;1.019;9.75;0.265;-0.744;-1.631;-1.955;-0.5;-0.171;0.471;4.0;31.7;-29.9;-10.4;209.3;-83.8;-75.4;3.0;1001.2;61.21;23.02611;72.54018;-2.1;158.08146808805284;;3.9;9.67742;299.5;17 / 19;40706;2018-08-23 20:57:52:633
1.027;6.91;-1.374;1.279;9.681;0.897;-0.211;-2.764;-2.243;-0.528;0.542;0.153;4.0;30.8;-30.1;-12.1;222.8;-81.8;-62.0;3.0;1001.2;61.21;23.02611;72.54018;-2.1;158.08146808805284;;3.9;9.67742;299.5;17 / 19;40806;2018-08-23 20:57:52:733
2.09;8.555;0.266;1.379;9.611;1.38;0.766;-0.898;-0.908;-0.261;0.42;0.078;3.0;31.4;-30.1;-11.5;235.8;-78.8;-45.8;3.0;1001.2;61.21;23.02611;72.54018;-2.1;158.08146808805284;;3.9;9.67742;299.5;17 / 19;40906;2018-08-23 20:57:52:833
1.132;11.722;1.729;1.27;9.635;1.31;-0.142;2.233;0.311;0.026;-0.246;-0.067;3.0;32.1;-30.0;-10.4;237.1;-78.8;-44.0;3.0;1001.2;65.44;23.02611;72.54018;-2.1;158.08146808805284;;3.9;9.67742;299.5;17 / 19;41006;2018-08-23 20:57:52:933
2.643;12.709;0.589;1.459;9.6;1.368;1.57;3.096;-0.672;-0.327;-0.484;0.315;3.0;31.7;-29.9;-11.9;237.2;-79.2;-44.1;3.0;1001.2;65.44;23.02611;72.54018;-2.1;158.08146808805284;;3.9;9.67742;299.5;17 / 19;41106;2018-08-23 20:57:53:033
5.162;9.824;3.266;1.862;9.47;1.736;3.3;0.353;1.53;-0.132;-0.939;-0.039;3.0;28.9;-30.5;-15.5;238.7;-75.0;-47.0;3.0;1001.2;65.44;23.02611;72.54018;-2.1;158.08146808805284;;3.9;9.67742;299.5;17 / 19;41206;2018-08-23 20:57:53:133
1.482;7.295;3.572;1.732;9.48;1.818;0.197;-1.703;1.689;0.028;-0.206;-0.58;3.0;29.2;-29.0;-18.4;247.1;-75.2;-44.7;3.0;1001.3;60.16;23.02611;72.54018;-2.1;158.08146808805284;;3.9;9.67742;299.5;17 / 19;41306;2018-08-23 20:57:53:233
-0.848;6.457;-0.05;1.225;9.625;1.428;-1.945;-3.15;-1.588;0.536;-0.424;-0.429;3.0;30.4;-27.4;-19.1;251.2;-77.2;-40.3;3.0;1001.3;60.16;23.02611;72.54018;-2.1;158.84559637005424;;3.9;9.67742;299.5;17 / 19;41406;2018-08-23 20:57:53:333
0.91;10.76;-1.008;0.944;9.687;1.203;-0.044;1.133;-2.156;-0.277;-0.244;-0.225;6.0;31.0;-26.7;-19.1;257.0;-81.0;-38.1;3.0;1001.2;60.16;23.02612;72.54016;-2.1;158.84559637005424;;3.9;9.67742;287.1;20 / 22;41506;2018-08-23 20:57:53:433
1.499;12.316;3.517;0.968;9.701;1.058;0.269;2.857;2.478;0.499;0.043;0.234;6.0;30.5;-26.6;-19.9;256.8;-81.4;-40.0;3.0;1001.2;62.42;23.02612;72.54016;-2.1;158.84559637005424;;3.9;9.67742;287.1;20 / 22;41606;2018-08-23 20:57:53:533
1.894;11.957;-0.577;1.187;9.715;0.617;0.707;2.242;-1.194;0.078;-0.537;0.184;6.0;30.2;-27.3;-20.2;239.0;-82.3;-59.2;3.0;1001.2;62.42;23.02612;72.54016;-2.1;158.84559637005424;;3.9;9.67742;287.1;20 / 22;41706;2018-08-23 20:57:53:633
-0.271;9.972;1.281;1.025;9.744;0.419;-1.221;0.245;0.211;0.353;0.083;-0.172;8.0;29.6;-28.6;-19.5;230.8;-83.1;-67.4;3.0;1001.2;62.42;23.02612;72.54016;-2.1;158.84559637005424;;3.9;9.67742;287.1;20 / 22;41806;2018-08-23 20:57:53:733
0.728;7.726;0.034;1.066;9.724;0.692;-0.288;-2.057;-0.594;-0.54;-0.022;0.302;8.0;30.4;-28.9;-19.5;239.1;-82.8;-58.3;3.0;1001.2;62.42;23.02612;72.54016;-2.1;158.84559637005424;;3.9;9.67742;287.1;20 / 22;41906;2018-08-23 20:57:53:833
1.348;8.495;-0.723;1.104;9.716;0.748;0.368;-1.348;-1.603;0.248;0.31;-0.174;7.0;28.6;-28.6;-19.8;243.9;-81.6;-53.9;3.0;1001.2;69.14;23.02612;72.54016;-2.1;158.84559637005424;;3.9;9.67742;287.1;20 / 22;42006;2018-08-23 20:57:53:933
0.215;9.73;0.335;1.068;9.738;0.454;-0.659;0.06;0.217;0.119;0.198;0.133;7.0;30.7;-29.1;-17.6;232.3;-83.1;-63.1;3.0;1001.2;69.14;23.02612;72.54016;-2.1;158.84559637005424;;3.9;9.67742;287.1;20 / 22;42106;2018-08-23 20:57:54:033
1.106;11.308;-0.199;1.021;9.75;0.243;0.219;1.328;-0.085;0.526;0.278;-0.372;6.0;30.4;-29.0;-18.8;225.1;-83.3;-72.1;3.0;1001.2;69.14;23.02612;72.54016;-2.1;158.84559637005424;;3.9;9.67742;287.1;20 / 22;42209;2018-08-23 20:57:54:136
0.723;11.945;0.024;0.688;9.782;-0.054;0.154;1.832;1.138;-0.322;0.13;-0.009;6.0;31.7;-29.9;-15.3;195.1;-85.9;-99.1;3.0;1001.2;64.76;23.02612;72.54016;-2.1;158.84559637005424;;3.9;9.67742;287.1;20 / 22;42306;2018-08-23 20:57:54:233
2.229;12.065;0.326;0.626;9.78;0.355;1.564;2.285;0.036;-0.602;-0.556;-0.213;6.0;32.2;-28.3;-17.3;217.6;-85.9;-78.4;3.0;1001.2;64.76;23.02612;72.54016;-2.1;158.84559637005424;;3.9;9.67742;287.1;20 / 22;42406;2018-08-23 20:57:54:333
-1.149;8.885;2.157;0.546;9.782;0.42;-1.719;-1.086;0.624;0.452;0.053;0.018;6.0;31.2;-28.0;-18.4;246.9;-85.8;-50.3;3.0;1001.2;64.76;23.02613;72.54015;-2.1;158.84559637005424;;3.9;9.67742;309.8;18 / 20;42506;2018-08-23 20:57:54:433
1.868;5.054;-2.373;0.923;9.75;0.513;0.945;-4.695;-2.886;-0.173;-0.045;0.043;6.0;31.4;-28.9;-18.8;236.6;-83.8;-60.9;3.0;1001.2;64.61;23.02613;72.54015;-2.1;158.84559637005424;;3.9;9.67742;309.8;18 / 20;42606;2018-08-23 20:57:54:533
1.853;9.354;0.934;0.783;9.763;0.498;1.015;-0.952;0.132;0.001;0.47;-0.133;6.0;30.7;-28.1;-18.2;238.4;-84.3;-58.8;3.0;1001.2;64.61;23.02613;72.54015;-2.1;158.84559637005424;;3.9;9.67742;309.8;18 / 20;42706;2018-08-23 20:57:54:633
1.121;12.936;0.577;0.791;9.755;0.619;0.342;3.088;0.013;-0.248;-0.17;0.106;6.0;32.0;-28.8;-16.7;240.2;-84.4;-53.4;3.0;1001.2;64.61;23.02613;72.54015;-2.1;158.84559637005424;;3.9;9.67742;309.8;18 / 20;42806;2018-08-23 20:57:54:733
-0.484;12.984;4.061;0.968;9.712;0.956;-0.872;3.315;2.373;0.187;0.594;0.008;5.0;31.9;-28.2;-18.4;247.1;-82.4;-46.9;3.0;1001.2;63.88;23.02613;72.54015;-2.1;158.84559637005424;;3.9;9.67742;309.8;18 / 20;42906;2018-08-23 20:57:54:833
-0.067;9.038;-0.723;1.002;9.739;0.565;-1.251;-0.277;-0.941;-0.088;-0.102;0.236;5.0;32.3;-29.5;-16.0;231.9;-83.3;-60.6;3.0;1001.2;63.88;23.02613;72.54015;-2.1;158.84559637005424;;3.9;9.67742;309.8;18 / 20;43007;2018-08-23 20:57:54:934
0.548;7.219;-0.098;0.919;9.73;0.808;-0.404;-2.471;-0.993;0.446;0.733;-0.283;5.0;32.2;-29.4;-15.8;241.8;-82.2;-49.2;3.0;1001.2;63.88;23.02613;72.54015;-2.1;158.84559637005424;;3.9;9.67742;309.8;18 / 20;43106;2018-08-23 20:57:55:033
0.903;7.461;-1.077;0.801;9.75;0.688;0.033;-2.438;-1.713;-0.328;0.028;0.053;5.0;33.4;-30.7;-14.3;237.9;-84.0;-50.8;3.0;1001.2;63.88;23.02613;72.54015;-2.1;158.84559637005424;;3.9;9.67742;309.8;18 / 20;43206;2018-08-23 20:57:55:133
0.567;10.008;0.177;0.778;9.735;0.897;-0.21;0.274;-0.72;-0.168;0.128;0.006;5.0;33.4;-29.9;-14.0;246.5;-83.0;-41.3;3.0;1001.2;64.48;23.02613;72.54015;-2.1;158.84559637005424;;3.9;9.67742;309.8;18 / 20;43306;2018-08-23 20:57:55:233
0.948;11.969;1.288;0.85;9.718;1.004;0.113;2.196;0.401;-0.061;0.002;0.044;4.0;33.0;-30.1;-13.6;247.4;-82.5;-39.9;3.0;1001.2;64.48;23.02613;72.54015;-2.1;158.84559637005424;;3.9;9.67742;309.8;18 / 20;43406;2018-08-23 20:57:55:333
1.061;12.077;3.934;0.917;9.672;1.334;0.143;2.405;2.6;-0.065;0.458;0.1;4.0;32.7;-29.9;-15.2;250.6;-81.7;-38.0;3.0;1001.2;64.48;23.02613;72.54014;-2.1;158.84559637005424;;3.9;9.67742;323.6;18 / 20;43506;2018-08-23 20:57:55:433
1.918;10.587;1.427;0.917;9.688;1.209;1.0;0.899;0.218;-0.061;-0.075;-0.008;4.0;32.9;-30.5;-15.0;250.2;-81.2;-37.5;3.0;1001.2;55.82;23.02613;72.54014;-2.1;158.84559637005424;;3.9;9.67742;323.6;18 / 20;43606;2018-08-23 20:57:55:533
0.797;8.255;0.833;0.897;9.675;1.324;-0.107;-1.564;-0.579;-0.148;-0.298;-0.129;4.0;32.9;-29.7;-15.1;252.2;-80.7;-35.0;3.0;1001.2;55.82;23.02613;72.54014;-2.1;158.84559637005424;;3.9;9.67742;323.6;18 / 20;43706;2018-08-23 20:57:55:633
0.776;8.476;0.041;0.686;9.71;1.188;0.09;-1.234;-1.147;0.062;-0.217;-0.294;4.0;33.1;-29.6;-15.8;258.0;-81.6;-31.3;3.0;1001.2;55.82;23.02613;72.54014;-2.1;158.84559637005424;;3.9;9.67742;323.6;18 / 20;43806;2018-08-23 20:57:55:733
0.682;9.283;0.977;0.542;9.738;1.026;0.105;-0.474;0.01;0.271;-0.265;-0.042;4.0;34.7;-29.4;-15.4;260.7;-82.9;-27.2;3.0;1001.2;55.47;23.02613;72.54014;-2.1;158.84559637005424;;3.9;9.67742;323.6;18 / 20;43906;2018-08-23 20:57:55:833
0.05;10.461;0.28;0.53;9.763;0.753;-0.315;0.563;0.004;0.373;0.009;0.013;5.0;33.9;-29.9;-15.5;257.6;-84.2;-33.1;3.0;1001.2;55.47;23.02613;72.54014;-2.1;158.84559637005424;;3.9;9.67742;323.6;18 / 20;44009;2018-08-23 20:57:55:936
0.577;11.77;-1.678;0.531;9.78;0.48;0.003;2.081;-2.005;-0.132;0.091;-0.04;5.0;33.9;-30.9;-14.2;246.8;-85.2;-43.7;3.0;1001.2;55.47;23.02613;72.54014;-2.1;158.84559637005424;;3.9;9.67742;323.6;18 / 20;44106;2018-08-23 20:57:56:033
0.249;11.174;1.389;0.538;9.771;0.631;-0.5;1.68;1.203;0.179;0.302;0.159;5.0;33.3;-30.3;-13.9;250.4;-85.1;-38.2;3.0;1001.2;60.66;23.02613;72.54014;-2.1;158.84559637005424;;3.9;9.67742;323.6;18 / 20;44206;2018-08-23 20:57:56:133
-0.065;9.529;1.18;0.611;9.755;0.797;-0.755;-0.18;0.51;-0.256;0.114;0.113;5.0;34.0;-30.5;-13.9;244.4;-84.9;-42.8;3.0;1001.2;60.66;23.02613;72.54014;-2.1;158.84559637005424;;3.9;9.67742;323.6;18 / 20;44306;2018-08-23 20:57:56:233
0.256;8.339;0.242;0.54;9.761;0.781;-0.355;-1.395;-0.851;0.334;0.174;-0.118;5.0;33.9;-29.9;-13.1;252.3;-84.0;-34.0;3.0;1001.2;60.66;23.02613;72.54014;-2.1;158.84559637005424;;3.9;9.67742;323.6;18 / 20;44407;2018-08-23 20:57:56:334
0.615;8.334;-0.424;0.556;9.772;0.603;0.078;-1.395;-1.232;0.0;-0.009;0.118;4.0;34.3;-31.0;-12.1;243.1;-85.2;-42.7;3.0;1001.3;58.64;23.02614;72.54014;-2.0;158.84559637005424;;3.9;9.67742;318.6;19 / 22;44507;2018-08-23 20:57:56:434
0.848;9.905;0.328;0.592;9.779;0.429;0.256;0.126;-0.101;0.116;-0.308;-0.006;4.0;34.0;-30.8;-11.8;232.5;-85.7;-54.0;3.0;1001.2;58.64;23.02614;72.54014;-2.0;158.84559637005424;;3.9;9.67742;318.6;19 / 22;44606;2018-08-23 20:57:56:533
0.438;11.56;-0.074;0.56;9.787;0.269;-0.15;1.756;-0.352;-0.113;-0.229;0.001;4.0;34.0;-31.4;-11.2;223.8;-86.3;-63.5;3.0;1001.2;58.64;23.02614;72.54014;-2.0;158.84559637005424;;3.9;9.67742;318.6;19 / 22;44706;2018-08-23 20:57:56:633
0.668;10.341;2.322;0.638;9.773;0.509;0.03;0.568;1.814;-0.154;0.136;0.051;4.0;34.6;-31.6;-12.4;234.2;-85.6;-53.7;3.0;1001.2;58.64;23.02614;72.54014;-2.0;158.84559637005424;;3.9;9.67742;318.6;19 / 22;44806;2018-08-23 20:57:56:733
1.789;9.687;0.397;0.628;9.765;0.648;1.146;-0.152;-0.169;-0.339;-0.05;-0.034;5.0;34.1;-31.6;-12.1;236.2;-85.2;-49.9;3.0;1001.2;59.59;23.02614;72.54014;-2.0;158.84559637005424;;3.9;9.67742;318.6;19 / 22;44906;2018-08-23 20:57:56:833
0.443;8.588;1.566;0.615;9.736;1.002;-0.177;-1.065;0.387;-0.34;-0.029;-0.055;5.0;34.7;-30.8;-14.6;249.8;-84.0;-37.9;3.0;1001.2;59.59;23.02614;72.54014;-2.0;158.84559637005424;;3.9;9.67742;318.6;19 / 22;45006;2018-08-23 20:57:56:933
0.512;8.672;0.151;0.496;9.74;1.03;0.011;-1.049;-0.891;0.141;-0.01;-0.106;5.0;34.6;-29.6;-14.8;260.2;-82.8;-27.9;3.0;1001.2;59.59;23.02614;72.54014;-2.0;158.84559637005424;;3.9;9.67742;318.6;19 / 22;45106;2018-08-23 20:57:57:033
1.154;9.694;0.809;0.497;9.75;0.932;0.645;0.019;-0.068;0.205;0.149;-0.097;5.0;34.1;-29.0;-13.9;261.0;-83.5;-26.3;3.0;1001.3;57.31;23.02614;72.54014;-2.0;158.84559637005424;;3.9;9.67742;318.6;19 / 22;45206;2018-08-23 20:57:57:133
1.022;11.193;1.185;0.488;9.767;0.736;0.278;1.347;0.331;0.055;-0.195;0.127;5.0;35.3;-29.8;-14.0;256.2;-84.9;-31.7;3.0;1001.2;57.31;23.02614;72.54014;-2.0;158.84559637005424;;3.9;9.67742;318.6;19 / 22;45306;2018-08-23 20:57:57:233
0.781;11.277;2.143;0.585;9.752;0.857;0.196;1.525;1.285;-0.187;0.233;-0.045;5.0;34.8;-30.1;-14.6;254.4;-83.9;-34.3;3.0;1001.3;57.31;23.02614;72.54014;-2.0;158.84559637005424;;3.9;9.67742;318.6;19 / 22;45406;2018-08-23 20:57:57:333
0.577;9.56;-0.031;0.566;9.76;0.771;-0.042;-0.159;-0.733;-0.05;-0.36;0.156;5.0;34.9;-30.2;-14.3;253.1;-84.6;-34.7;3.0;1001.2;56.4;23.02615;72.54013;-2.0;158.84559637005424;;3.9;9.67742;296.5;20 / 24;45506;2018-08-23 20:57:57:433
0.426;8.981;0.872;0.659;9.735;0.983;-0.245;-0.804;-0.07;-0.205;-0.03;0.004;5.0;34.2;-30.5;-14.5;251.5;-83.5;-35.9;3.0;1001.2;56.4;23.02615;72.54013;-2.0;158.84559637005424;;3.9;9.67742;296.5;20 / 24;45606;2018-08-23 20:57:57:533
-0.45;9.192;0.852;0.656;9.728;1.055;-0.891;-0.723;-0.111;0.16;0.051;0.044;5.0;34.7;-30.1;-15.2;255.8;-82.7;-31.9;3.0;1001.2;56.4;23.02615;72.54013;-2.0;158.84559637005424;;3.9;9.67742;296.5;20 / 24;45706;2018-08-23 20:57:57:633
0.955;8.825;-0.515;0.52;9.761;0.786;0.435;-0.936;-1.301;0.078;0.09;-0.007;5.0;34.0;-30.5;-14.4;257.0;-83.9;-30.6;3.0;1001.2;53.67;23.02615;72.54013;-2.0;158.84559637005424;;3.9;9.67742;296.5;20 / 24;45806;2018-08-23 20:57:57:733
0.725;10.571;0.565;0.548;9.78;0.477;0.366;0.525;0.04;0.194;-0.031;-0.272;5.0;34.1;-30.5;-14.5;247.8;-85.4;-43.1;3.0;1001.2;53.67;23.02615;72.54013;-2.0;158.84559637005424;;3.9;9.67742;296.5;20 / 24;45906;2018-08-23 20:57:57:833
0.498;12.661;0.01;0.448;9.788;0.413;0.168;2.847;-0.354;-0.198;-0.129;-0.001;5.0;34.3;-30.4;-13.7;239.6;-86.6;-50.5;3.0;1001.2;53.67;23.02615;72.54013;-2.0;158.84559637005424;;3.9;9.67742;296.5;20 / 24;46007;2018-08-23 20:57:57:934
1.434;9.352;2.188;0.578;9.777;0.502;0.387;-0.164;2.611;0.063;-0.361;0.198;5.0;34.3;-30.2;-14.1;243.1;-85.7;-46.2;3.0;1001.2;53.67;23.02615;72.54013;-2.0;158.84559637005424;;3.9;9.67742;296.5;20 / 24;46106;2018-08-23 20:57:58:033
1.051;8.708;1.022;0.674;9.757;0.719;0.291;-1.056;0.241;-0.073;0.116;-0.238;6.0;33.2;-30.1;-15.4;243.7;-84.3;-46.1;3.0;1001.2;54.29;23.02615;72.54013;-2.0;158.84559637005424;;3.9;9.67742;296.5;20 / 24;46207;2018-08-23 20:57:58:134
0.385;8.485;0.761;0.533;9.755;0.852;-0.147;-1.27;-0.091;0.012;-0.112;-0.171;5.0;33.8;-29.2;-14.6;255.8;-84.0;-33.6;3.0;1001.2;54.29;23.02615;72.54013;-2.0;158.84559637005424;;3.9;9.67742;296.5;20 / 24;46306;2018-08-23 20:57:58:233
0.759;9.041;0.668;0.502;9.758;0.841;0.298;-0.916;-0.406;-0.05;-0.002;0.0;5.0;35.2;-28.3;-15.7;260.6;-84.2;-29.9;3.0;1001.2;54.29;23.02615;72.54013;-2.0;158.84559637005424;;3.9;9.67742;296.5;20 / 24;46406;2018-08-23 20:57:58:333
0.318;10.743;1.176;0.516;9.769;0.679;-0.569;1.026;0.449;0.54;0.182;0.084;5.0;34.8;-28.9;-14.0;255.2;-84.6;-34.6;3.0;1001.2;58.44;23.02615;72.54012;-2.0;158.84559637005424;;3.9;9.67742;296.4;20 / 23;46506;2018-08-23 20:57:58:433
1.123;12.062;-0.893;0.583;9.783;0.355;0.626;2.509;-1.454;0.191;-0.2;0.007;5.0;34.3;-30.1;-13.0;229.8;-86.0;-58.7;3.0;1001.2;58.44;23.02615;72.54012;-2.0;158.84559637005424;;3.9;9.67742;296.4;20 / 23;46606;2018-08-23 20:57:58:533
-0.757;11.081;2.09;0.62;9.772;0.54;-1.302;1.268;1.464;0.064;0.313;0.045;4.0;34.1;-30.2;-12.8;238.6;-85.2;-49.0;3.0;1001.2;58.44;23.02615;72.54012;-2.0;158.84559637005424;;3.9;9.67742;296.4;20 / 23;46706;2018-08-23 20:57:58:633
0.129;8.83;1.547;0.699;9.751;0.773;-0.57;-0.921;0.774;-0.335;0.203;0.169;4.0;33.4;-30.7;-11.9;239.5;-84.5;-46.1;3.0;1001.2;55.63;23.02615;72.54012;-2.0;158.84559637005424;;3.9;9.67742;296.4;20 / 23;46806;2018-08-23 20:57:58:733
0.85;8.085;0.122;0.745;9.733;0.937;0.144;-1.564;-0.43;-0.004;0.057;0.042;4.0;33.8;-30.9;-12.2;246.3;-83.1;-38.3;3.0;1001.2;55.63;23.02615;72.54012;-2.0;158.84559637005424;;3.9;9.67742;296.4;20 / 23;46906;2018-08-23 20:57:58:833
0.623;8.603;0.175;0.798;9.726;0.974;-0.175;-1.123;-0.856;-0.184;0.003;0.098;4.0;33.4;-30.1;-11.6;245.6;-82.8;-38.9;3.0;1001.2;55.63;23.02615;72.54012;-2.0;158.84559637005424;;3.9;9.67742;296.4;20 / 23;47006;2018-08-23 20:57:58:933
0.673;10.564;1.302;0.784;9.74;0.834;-0.085;0.762;0.351;0.127;-0.021;-0.032;4.0;33.8;-30.1;-11.6;241.5;-82.9;-41.7;3.0;1001.2;53.68;23.02615;72.54012;-2.0;158.84559637005424;;3.9;9.67742;296.4;20 / 23;47106;2018-08-23 20:57:59:033
0.73;11.888;-0.402;0.748;9.756;0.65;-0.114;2.153;-1.071;-0.091;-0.25;0.216;4.0;33.3;-30.3;-12.1;238.3;-84.3;-47.6;3.0;1001.2;53.68;23.02615;72.54012;-2.0;158.84559637005424;;3.9;9.67742;296.4;20 / 23;47206;2018-08-23 20:57:59:133
1.166;11.184;2.373;0.91;9.733;0.785;0.256;1.451;1.588;-0.168;0.017;0.194;4.0;32.0;-31.2;-10.7;234.6;-83.3;-49.5;3.0;1001.3;53.68;23.02615;72.54012;-2.0;158.84559637005424;;3.9;9.67742;296.4;20 / 23;47306;2018-08-23 20:57:59:233
2.272;9.39;-0.283;0.964;9.738;0.648;1.102;-0.663;-0.392;0.314;-0.603;-0.231;3.0;32.8;-30.2;-11.3;229.5;-83.0;-54.6;3.0;1001.3;53.68;23.02615;72.54012;-2.0;158.84559637005424;;3.9;9.67742;296.4;20 / 23;47406;2018-08-23 20:57:59:333
0.393;8.811;0.991;0.861;9.748;0.634;-0.585;-0.961;0.525;-0.314;0.013;-0.156;3.0;32.6;-30.3;-12.5;228.0;-83.8;-58.5;3.0;1001.3;54.82;23.02616;72.54011;-2.0;158.84559637005424;;4.0;9.67742;299.0;18 / 21;47506;2018-08-23 20:57:59:433
1.176;8.028;0.249;0.957;9.714;0.941;0.254;-1.682;-0.735;-0.241;-0.327;0.126;4.0;33.2;-30.1;-13.1;240.2;-82.5;-46.0;3.0;1001.3;54.82;23.02616;72.54011;-2.0;158.84559637005424;;4.0;9.67742;299.0;18 / 21;47606;2018-08-23 20:57:59:533
1.496;9.204;-0.019;0.996;9.712;0.93;0.501;-0.508;-0.949;-0.077;-0.03;-0.102;4.0;32.4;-29.3;-14.3;241.3;-81.9;-46.1;3.0;1001.3;54.82;23.02616;72.54011;-2.0;158.84559637005424;;4.0;9.67742;299.0;18 / 21;47706;2018-08-23 20:57:59:633
0.838;10.662;1.559;0.941;9.729;0.797;-0.218;0.89;0.189;0.04;0.035;-0.073;4.0;32.9;-30.3;-14.2;239.0;-82.6;-48.9;3.0;1001.3;54.19;23.02616;72.54011;-2.0;158.84559637005424;;4.0;9.67742;299.0;18 / 21;47806;2018-08-23 20:57:59:733
2.227;11.404;0.548;0.973;9.714;0.924;1.182;1.797;-0.28;-0.415;-0.401;0.007;4.0;31.7;-29.5;-14.9;239.4;-82.8;-48.9;3.0;1001.2;54.19;23.02616;72.54011;-2.0;158.84559637005424;;4.0;9.67742;299.0;18 / 21;47906;2018-08-23 20:57:59:833
-1.061;11.131;3.263;0.738;9.737;0.902;-1.748;1.339;2.266;0.475;0.197;0.102;4.0;32.6;-27.7;-15.2;252.3;-82.0;-38.3;3.0;1001.2;54.19;23.02616;72.54011;-2.0;158.84559637005424;;4.0;9.67742;299.0;18 / 21;48006;2018-08-23 20:57:59:933
0.814;8.447;1.654;0.882;9.706;1.092;-0.178;-1.268;0.34;-0.134;0.31;0.152;4.0;33.1;-28.8;-16.1;249.8;-82.7;-40.9;3.0;1001.2;53.59;23.02616;72.54011;-2.0;158.84559637005424;;4.0;9.67742;299.0;18 / 21;48107;2018-08-23 20:58:00:034
0.759;8.811;0.697;0.869;9.692;1.22;-0.136;-0.828;-0.42;0.0;-0.038;-0.032;4.0;32.8;-28.7;-15.7;253.9;-81.2;-35.5;3.0;1001.3;53.59;23.02616;72.54011;-2.0;158.84559637005424;;4.0;9.67742;299.0;18 / 21;48206;2018-08-23 20:58:00:133
0.74;8.682;0.438;0.858;9.7;1.159;-0.109;-0.925;-0.819;-0.081;-0.13;0.037;4.0;33.1;-28.6;-17.8;256.5;-81.4;-35.7;3.0;1001.3;53.59;23.02616;72.54011;-2.0;158.84559637005424;;4.0;9.67742;299.0;18 / 21;48306;2018-08-23 20:58:00:233
0.795;10.353;1.616;0.815;9.724;0.976;0.035;0.6;0.571;0.23;-0.176;-0.142;4.0;34.6;-28.8;-21.2;257.4;-82.1;-38.8;3.0;1001.3;55.58;23.02616;72.54011;-2.0;158.84559637005424;;4.0;9.67742;299.0;18 / 21;48406;2018-08-23 20:58:00:333
0.848;10.901;-0.371;0.732;9.753;0.714;-0.464;1.04;-0.534;0.152;-0.491;0.036;4.0;34.6;-28.2;-20.6;252.3;-83.7;-43.4;3.0;1001.3;55.58;23.02616;72.5401;-2.0;158.84559637005424;;4.0;9.67742;309.2;18 / 21;48506;2018-08-23 20:58:00:433
0.675;10.571;3.931;0.727;9.757;0.665;-0.028;0.775;3.345;0.251;0.285;-0.106;4.0;33.2;-29.0;-22.7;253.2;-84.0;-47.6;3.0;1001.3;55.58;23.02616;72.5401;-2.0;158.84559637005424;;4.0;9.67742;309.2;19 / 21;48606;2018-08-23 20:58:00:533
1.391;9.982;1.235;0.711;9.74;0.889;0.689;0.16;0.485;-0.429;-0.142;0.046;4.0;33.2;-27.3;-22.0;257.1;-84.0;-41.7;3.0;1001.3;56.35;23.02616;72.5401;-2.0;158.84559637005424;;4.0;9.67742;309.2;19 / 21;48706;2018-08-23 20:58:00:633
0.397;8.524;1.379;0.724;9.703;1.224;-0.326;-1.179;0.155;-0.175;-0.149;-0.073;4.0;33.5;-27.8;-22.7;266.1;-82.0;-32.5;3.0;1001.3;56.35;23.02616;72.5401;-2.0;158.84559637005424;;4.0;9.67742;309.2;19 / 21;48806;2018-08-23 20:58:00:733
0.615;8.349;0.371;0.591;9.701;1.305;0.02;-1.341;-0.929;-0.049;0.075;-0.172;4.0;34.6;-27.5;-24.5;273.2;-81.5;-25.7;3.0;1001.3;56.35;23.02616;72.5401;-2.0;158.84559637005424;;4.0;9.67742;309.2;19 / 21;48906;2018-08-23 20:58:00:833
1.104;9.34;1.456;0.615;9.675;1.48;0.489;-0.335;-0.024;-0.211;0.025;0.07;4.0;34.4;-26.5;-24.4;276.8;-81.0;-22.4;3.0;1001.3;56.35;23.02616;72.5401;-2.0;158.84559637005424;;4.0;9.67742;309.2;19 / 21;49006;2018-08-23 20:58:00:933
0.97;10.276;1.36;0.698;9.659;1.548;0.31;0.524;-0.13;-0.006;0.012;-0.062;4.0;34.5;-26.8;-24.8;275.4;-80.1;-23.2;3.0;1001.3;55.25;23.02616;72.5401;-2.0;158.84559637005424;;4.0;9.67742;309.2;19 / 21;49106;2018-08-23 20:58:01:033
1.118;10.887;1.13;0.709;9.672;1.455;0.392;1.248;-0.306;-0.08;0.083;-0.159;4.0;34.1;-26.1;-24.8;274.5;-80.3;-25.8;3.0;1001.3;55.25;23.02616;72.5401;-2.0;158.84559637005424;;4.0;9.67742;309.2;19 / 21;49206;2018-08-23 20:58:01:133
1.171;10.444;0.855;0.655;9.675;1.464;0.477;0.726;-0.569;-0.275;-0.143;-0.049;4.0;34.7;-25.8;-24.4;274.4;-80.7;-24.2;3.0;1001.3;55.25;23.02616;72.5401;-2.0;158.84559637005424;;4.0;9.67742;309.2;19 / 21;49306;2018-08-23 20:58:01:233
-0.287;10.125;3.687;0.488;9.684;1.468;-0.804;0.53;2.063;0.397;0.089;-0.287;4.0;34.4;-25.3;-23.9;277.4;-80.4;-22.4;3.0;1001.3;56.46;23.02616;72.5401;-2.0;158.84559637005424;;4.0;9.67742;309.2;19 / 21;49406;2018-08-23 20:58:01:333
0.352;8.413;1.736;0.485;9.673;1.539;-0.341;-0.987;0.551;-0.186;-0.208;0.185;4.0;34.4;-24.5;-22.1;281.1;-81.2;-16.5;3.0;1001.3;56.46;23.02616;72.54009;-2.0;158.84559637005424;;4.0;9.67742;302.5;16 / 20;49506;2018-08-23 20:58:01:433
0.194;8.952;1.279;0.497;9.646;1.698;-0.348;-0.658;-0.47;-0.137;-0.09;0.043;4.0;34.4;-24.1;-23.0;280.5;-79.8;-16.8;3.0;1001.3;56.46;23.02616;72.54009;-2.0;158.84559637005424;;4.0;9.67742;302.5;16 / 20;49607;2018-08-23 20:58:01:534
0.156;9.204;0.28;0.456;9.667;1.587;-0.346;-0.37;-1.35;-0.16;-0.111;0.182;4.0;32.2;-24.7;-20.4;279.5;-79.9;-15.7;3.0;1001.3;55.82;23.02616;72.54009;-2.0;158.84559637005424;;4.0;9.67742;302.5;16 / 20;49706;2018-08-23 20:58:01:633
0.139;9.943;1.551;0.45;9.705;1.334;-0.406;0.056;0.311;0.064;-0.033;0.094;4.0;32.4;-24.1;-22.0;280.7;-81.6;-18.5;3.0;1001.3;55.82;23.02616;72.54009;-2.0;158.84559637005424;;4.0;9.67742;302.5;16 / 20;49806;2018-08-23 20:58:01:733
0.338;11.05;2.279;0.525;9.715;1.229;-0.113;1.33;0.624;0.168;0.103;0.114;4.0;32.0;-23.9;-21.8;277.4;-82.0;-22.1;3.0;1001.3;55.82;23.02616;72.54009;-2.0;158.84559637005424;;4.0;9.67742;302.5;16 / 20;49906;2018-08-23 20:58:01:833
0.771;12.089;0.996;0.537;9.724;1.152;0.205;2.367;-0.192;0.2;-0.037;-0.098;4.0;30.7;-24.5;-21.1;273.3;-82.2;-25.1;3.0;1001.3;57.73;23.02616;72.54009;-2.0;158.84559637005424;;4.0;9.67742;302.5;16 / 20;50006;2018-08-23 20:58:01:933
0.716;8.691;3.716;0.589;9.724;1.13;-0.101;-1.066;2.943;0.251;-0.164;0.026;4.0;30.9;-25.4;-20.3;271.9;-82.8;-26.6;3.0;1001.3;57.73;23.02616;72.54009;-2.0;158.84559637005424;;4.0;9.67742;302.5;16 / 20;50106;2018-08-23 20:58:02:033
1.997;8.873;0.982;0.661;9.719;1.133;1.388;-0.831;-0.271;-0.021;0.001;-0.033;4.0;30.2;-25.4;-22.5;270.5;-82.6;-28.4;3.0;1001.3;57.73;23.02616;72.54009;-2.0;158.84559637005424;;4.0;9.67742;302.5;16 / 20;50206;2018-08-23 20:58:02:133
0.905;8.552;2.136;0.78;9.684;1.337;0.058;-1.014;0.777;-0.216;-0.103;0.178;4.0;31.1;-25.4;-22.3;269.7;-81.3;-29.9;3.0;1001.2;57.73;23.02616;72.54009;-2.0;158.84559637005424;;4.0;9.67742;302.5;16 / 20;50306;2018-08-23 20:58:02:233
0.764;8.727;0.381;0.744;9.686;1.342;0.044;-0.973;-0.94;0.124;0.068;-0.145;4.0;30.2;-25.0;-22.8;271.8;-80.8;-29.5;3.0;1001.2;58.91;23.02616;72.54009;-2.0;158.84559637005424;;4.0;9.67742;302.5;16 / 20;50406;2018-08-23 20:58:02:333
0.8;9.855;0.565;0.569;9.718;1.186;0.23;0.137;-0.621;0.143;0.011;-0.181;3.0;30.1;-24.7;-22.4;274.1;-81.9;-26.6;3.0;1001.2;58.91;23.02617;72.54009;-2.0;158.84559637005424;;3.9;9.67742;283.8;17 / 20;50506;2018-08-23 20:58:02:433
0.247;11.315;1.556;0.524;9.731;1.101;-0.134;1.405;0.182;0.205;0.206;-0.2;3.0;31.0;-24.9;-21.8;274.4;-82.7;-26.1;3.0;1001.2;58.91;23.02617;72.54009;-2.0;158.84559637005424;;3.9;9.67742;283.8;17 / 20;50606;2018-08-23 20:58:02:533
1.2;11.133;0.96;0.401;9.758;0.884;0.509;1.677;0.186;-0.355;-0.181;0.082;3.0;31.7;-24.5;-21.2;275.1;-84.3;-24.4;3.0;1001.2;60.91;23.02617;72.54009;-2.0;158.84559637005424;;3.9;9.67742;283.8;17 / 20;50706;2018-08-23 20:58:02:633
-0.098;9.972;3.982;0.411;9.733;1.129;-0.509;0.239;2.852;0.405;0.047;-0.061;3.0;32.0;-25.1;-21.7;278.9;-83.0;-21.0;3.0;1001.2;60.91;23.02617;72.54009;-2.0;158.84559637005424;;3.9;9.67742;283.8;17 / 20;50806;2018-08-23 20:58:02:733
0.426;8.437;1.276;0.435;9.731;1.136;0.003;-1.126;0.033;0.0;0.064;0.063;3.0;32.5;-24.4;-20.8;278.8;-83.2;-19.4;3.0;1001.2;60.91;23.02617;72.54009;-2.0;158.84559637005424;;3.9;9.67742;283.8;17 / 20;50906;2018-08-23 20:58:02:833
0.314;8.662;-0.261;0.438;9.73;1.141;-0.177;-1.072;-1.275;-0.192;-0.253;0.026;3.0;31.7;-24.8;-21.4;277.4;-82.8;-21.2;3.0;1001.2;60.14;23.02617;72.54009;-2.0;158.84559637005424;;3.9;9.67742;283.8;17 / 20;51006;2018-08-23 20:58:02:933
0.0;9.637;0.824;0.383;9.754;0.936;-0.441;-0.017;-0.067;-0.021;0.029;-0.105;3.0;31.4;-24.7;-22.0;278.4;-83.8;-23.1;3.0;1001.2;60.14;23.02617;72.54009;-2.0;158.84559637005424;;3.9;9.67742;283.8;17 / 20;51106;2018-08-23 20:58:03:033
0.687;10.542;1.58;0.326;9.767;0.821;0.323;0.861;0.783;0.285;-0.233;-0.086;3.0;31.6;-24.4;-23.2;281.9;-84.4;-21.2;3.0;1001.2;60.14;23.02617;72.54009;-2.0;158.84559637005424;;3.9;9.67742;283.8;17 / 20;51206;2018-08-23 20:58:03:133
0.431;12.0;0.029;0.261;9.789;0.524;0.106;2.089;-0.407;0.172;-0.443;-0.074;3.0;31.4;-25.0;-22.9;277.9;-85.8;-24.1;3.0;1001.2;59.2;23.02617;72.54009;-2.0;158.84559637005424;;3.9;9.67742;283.8;17 / 20;51307;2018-08-23 20:58:03:234
-0.017;10.109;3.747;0.325;9.793;0.405;-0.34;0.091;3.503;0.435;0.134;0.101;3.0;30.6;-25.3;-22.9;271.5;-86.7;-32.9;3.0;1001.2;59.2;23.02617;72.54009;-2.0;158.84559637005424;;3.9;9.67742;283.8;17 / 20;51406;2018-08-23 20:58:03:333
1.422;9.137;0.512;0.432;9.79;0.377;1.405;-0.601;-0.375;-0.109;-0.171;-0.031;3.0;29.8;-26.0;-23.2;256.0;-86.9;-49.4;3.0;1001.3;59.2;23.02617;72.54008;-2.0;158.84559637005424;;3.9;9.67742;292.8;17 / 20;51507;2018-08-23 20:58:03:434
-0.532;8.777;1.283;0.484;9.772;0.668;-1.013;-1.045;0.615;-0.325;-0.141;0.201;4.0;29.1;-26.4;-23.4;263.9;-86.1;-40.9;3.0;1001.3;59.2;23.02617;72.54008;-2.0;158.84559637005424;;3.9;9.67742;292.8;17 / 20;51606;2018-08-23 20:58:03:533
-0.177;8.378;-0.922;0.409;9.772;0.715;-0.675;-1.497;-1.482;0.212;0.202;-0.082;3.0;29.4;-25.4;-25.2;272.4;-84.6;-32.7;3.0;1001.3;60.22;23.02617;72.54008;-2.0;158.84559637005424;;3.9;9.67742;292.8;17 / 20;51706;2018-08-23 20:58:03:633
1.082;9.544;0.17;0.429;9.771;0.723;0.67;-0.122;-0.622;-0.117;0.097;0.001;3.0;30.5;-25.4;-24.0;275.1;-85.2;-30.4;3.0;1001.3;60.22;23.02617;72.54008;-2.0;158.84559637005424;;3.9;9.67742;292.8;17 / 20;51806;2018-08-23 20:58:03:733
0.283;10.868;1.702;0.416;9.774;0.686;-0.227;1.099;1.138;0.175;0.475;-0.093;4.0;30.1;-25.4;-23.9;273.7;-85.1;-31.7;3.0;1001.3;60.22;23.02617;72.54008;-2.0;158.84559637005424;;3.9;9.67742;292.8;17 / 20;51906;2018-08-23 20:58:03:833
