ACCELEROMETER_X,ACCELEROMETER_Y,ACCELEROMETER Z,GRAVITY X,GRAVITY Y ,GRAVITY Z ,LINEAR ACCELERATION X,LINEAR ACCELERATION Y,LINEAR ACCELERATION Z ,GYROSCOPE X,GYROSCOPE Y,GYROSCOPE Z,LIGHT,MAGNETIC FIELD X,MAGNETIC FIELD Y ,MAGNETIC FIELD Z ,ORIENTATION Z,ORIENTATION X,ORIENTATION Y,PROXIMITY,ATMOSPHERIC PRESSURE,SOUND LEVEL,OUT,,,,,,,,
1.269,9.3592,2.0495,1.4048,8.9432,3.7705,-0.1358,0.4161,-1.721,0.2426,-0.0407,-0.2278,5133,13.98,-37.5,19.74,189.48,-65.78,-20.43,3.1,993.74,50.227,0,,,,,,,,
0.7614,8.55,3.5866,1.1403,9.3284,2.8019,-0.379,-0.7785,0.7848,0.7032,-0.3009,-0.0696,4622,15.12,-35.1,21.78,188.95,-72.03,-22.15,3.1,993.77,51.591,0,,,,,,,,
2.5547,8.9283,0.9505,1.4322,9.3824,2.4675,0.5311,-0.0807,-0.236,0.267,0.1756,0.1185,4550,14.28,-35.4,22.2,181.74,-73.09,-30.13,3.1,993.73,53.992,0,,,,,,,,
0.1939,7.2427,1.3504,0.5724,9.3426,2.9254,0.0478,-3.1726,-1.8384,-0.3115,-0.0816,-0.2388,4324,7.74,-35.52,24.66,184.87,-72.3,-11.07,3.1,993.78,59.132,0,,,,,,,,
-1.1014,5.9258,0.4334,0.3779,9.5649,2.1309,-0.4713,-3.9359,-1.087,1.1094,0.8622,-0.5999,5243,14.4,-32.22,24.42,196.45,-77.25,-10.06,3.1,993.79,62.767,0,,,,,,,,
-1.5204,6.0647,3.5268,0.5461,9.2037,3.3411,-1.8653,-1.1925,-1.4928,-0.0494,1.1768,0.179,7361,12.84,-36.12,20.22,196.26,-69.8,-9.28,3.1,993.77,65.308,0,,,,,,,,
0.6369,6.0288,4.767,1.0134,8.7126,4.3856,0.4208,0.4527,-2.6425,-0.6028,-0.2801,-0.1368,7660,11.1,-39.06,15.24,192.51,-62.68,-13.01,3.1,993.76,64.309,0,,,,,,,,
-0.1077,5.9594,3.9529,1.5204,8.1257,5.2756,-1.2833,-1.6181,-1.6123,0.0709,0.6765,-0.0458,8560,11.64,-41.04,9.42,195.37,-55.95,-16.08,3.1,993.78,57.563,0,,,,,,,,
0.3304,5.2099,3.7638,1.6248,8.2365,5.0685,-0.6407,-1.8773,-2.3103,0.0056,0.4364,-0.3262,8704,14.58,-40.8,9.24,199.11,-57.13,-17.77,3.1,993.77,53.682,0,,,,,,,,
-0.091,7.8101,5.3488,1.5079,8.2004,5.1624,-1.5989,-0.3902,0.1864,-0.32,0.5183,0.4893,9048,10.86,-41.7,12.18,191.54,-56.74,-16.28,3.1,993.77,56.111,0,,,,,,,,
0.3687,7.9969,1.6832,1.2936,9.1289,3.3406,0.7798,0.6636,-4.3964,0.3354,-0.7737,-0.4484,7798,11.34,-36.66,22.32,183.65,-68.57,-21.17,3.1,993.75,63.27,0,,,,,,,,
0.6967,8.8445,4.2187,0.8154,9.206,3.2794,-1.3039,1.9681,4.897,0.2982,0.3106,0.5437,7125,9.3,-36.54,23.94,184.59,-69.84,-13.96,3.1,993.74,56.786,0,,,,,,,,
0.929,10.4151,1.4222,0.8738,9.7247,0.9151,0.3305,0.9035,-1.8943,1.0721,-1.1976,0.0324,4364,9.12,-31.56,30.66,170.53,-78.91,-27.29,3.1,993.75,58.106,0,,,,,,,,
1.1181,14.7056,4.6425,0.7292,9.7349,0.9332,-1.8139,4.3531,6.0509,0.6794,2.0687,-0.595,3674,4.44,-28.44,33.36,137.61,-82.5,-53.32,3.1,993.73,60.529,0,,,,,,,,
0.6776,13.7503,3.1772,0.7412,9.7258,1.0143,-0.0636,4.0245,2.1629,-0.6297,0.4767,0.1747,3395,-15.96,-27.54,30.66,121.4,-82.64,-36.16,3.1,993.74,63.617,0,,,,,,,,
-0.7734,12.6921,2.6696,0.4446,9.7457,0.9968,-1.218,2.9463,1.6728,0.3788,0.8512,0.0434,3898,-24.78,-26.22,25.62,116.1,-83.61,-24.04,3.1,993.77,58.551,0,,,,,,,,
1.6497,11.9283,1.1229,0.4322,9.6893,1.4493,0.2717,2.646,1.3233,0.0789,-0.0425,0.1393,4508,-34.92,-24,12.48,97.98,-81.13,-16.61,3.1,993.77,56.107,0,,,,,,,,
-0.1939,12.1462,2.6457,-0.0571,9.6868,1.5274,0.4115,2.4929,0.673,0.22,0.4383,-0.2804,5467,-35.88,-24.66,6,107.32,-81.03,2.14,3.1,993.77,53.684,0,,,,,,,,
1.4054,11.2555,2.1405,0.5918,9.6128,1.8479,0.8974,2.7226,0.6517,0.0318,-0.0614,-0.099,8114,-39.48,-19.98,0.84,80.83,-77.23,-17.45,3.1,993.79,55.712,0,,,,,,,,
0.5148,8.5332,1.4773,-0.0925,9.5996,2.0023,0.6072,-1.0664,-0.525,0.1198,-0.0175,0.0721,9118,-37.8,-22.62,-1.32,98.63,-78.16,3.12,3.1,993.78,61.695,0,,,,,,,,
0.9338,7.5084,0.0192,0.2095,9.5161,2.36,0.7243,-2.0077,-2.3408,0.3422,-0.1262,-0.0922,9205,-38.4,-21.06,-1.98,89.82,-76.02,-5.07,3.1,993.78,62.408,0,,,,,,,,
0.1868,6.3903,0.8619,-0.2482,9.5959,2.0069,0.435,-3.2056,-1.145,0.0807,-0.0908,0.2999,6083,-35.64,-23.88,3.42,109.02,-78.1,7.05,3.1,993.82,61.962,0,,,,,,,,
-0.2897,6.2251,0.8093,-0.1333,9.6474,1.7548,-0.9226,-3.4367,0.2348,0.0147,0.6863,-0.0611,6398,-35.4,-23.94,5.1,108.9,-79.66,4.34,3.1,993.83,59.245,0,,,,,,,,
0.012,6.8764,2.2195,0.0592,9.6298,1.8529,1.1428,-1.0416,-1.4458,-0.5253,-0.6821,-0.1888,7249,-31.38,-24.96,14.28,119.1,-79.1,-1.83,3.1,993.82,65.309,0,,,,,,,,
0.0766,9.3425,3.1245,0.0761,9.571,2.1355,-0.1384,-0.3913,0.3019,0.1632,0.4205,-0.0684,31228,-31.14,-26.94,14.58,122.13,-77.49,-1.48,3.1,993.82,68.595,0,,,,,,,,
0.079,8.6314,3.996,-0.4646,9.5915,1.9895,-0.4548,1.3121,3.0098,0.0948,-0.4805,0.0073,33322,-28.92,-28.62,14.88,137.16,-77.98,13.15,3.1,993.83,57.815,0,,,,,,,,
0.34,11.6697,4.2953,-0.387,9.5681,2.1148,1.2322,2.432,1.2204,-0.9022,-0.428,0.2138,18061,-24.6,-31.08,20.46,145.36,-77.34,10.37,3.1,993.83,64.186,0,,,,,,,,
-0.7039,12.4119,1.9561,-0.4627,9.5926,1.9843,0.3717,3.2503,-1.2444,0.3904,-0.9337,-0.3091,27848.998,-23.88,-29.28,20.64,149.32,-78.01,13.13,3.1,993.83,62.595,0,,,,,,,,
-0.3663,12.8525,3.8931,-0.2683,9.5699,2.1249,1.0584,2.2554,0.1185,0.1192,0.189,-0.3745,6860,-17.7,-31.08,25.26,156.06,-77.38,7.2,3.1,993.83,60.707,0,,,,,,,,
-0.8069,10.949,4.846,-0.3694,9.4645,2.5409,-1.2491,1.5012,1.1176,-0.4819,-0.1763,0.2297,5361,-14.46,-32.7,24.6,163.42,-74.82,8.27,3.1,993.8,72.227,0,,,,,,,,
0.1293,7.609,1.5778,0.0594,9.3999,2.7944,-0.2126,-2.4134,-0.2086,-0.284,-0.0535,0.2437,4479,-12.6,-33.42,25.44,157.77,-73.44,-1.22,3.1,993.81,64.424,0,,,,,,,,
0.7063,6.8548,0.4477,-0.1087,9.449,2.6219,0.815,-2.5942,-2.1741,0.2139,0.2361,0.226,5346,-19.14,-32.58,22.02,153.47,-74.4,7.24,3.1,993.84,67.192,0,,,,,,,,
-0.9122,7.1397,1.8029,-0.5255,9.6272,1.7917,-0.6501,-2.6192,0.4732,-0.2693,0.0198,-0.1313,3502,-15.24,-32.04,26.1,168.48,-79.02,16.35,3.1,993.83,55.094,0,,,,,,,,
-1.0894,6.5076,3.601,-0.0407,9.6641,1.6652,-0.6393,-2.4717,0.267,-0.3628,0.6771,0.0794,3670,-15.36,-29.88,27,155.91,-80.22,1.4,3.1,993.84,71.569,0,,,,,,,,
0.9386,7.8317,1.5467,-0.0172,9.6848,1.5408,1.8058,-1.1277,-1.4929,-0.2864,-0.7853,0.1283,3432,-15.12,-30.42,28.32,155.7,-80.96,0.64,3.1,993.84,60.48,0,,,,,,,,
-0.6249,10.518,3.9458,-0.3962,9.6619,1.6313,-1.7227,1.1578,1.2346,0.0874,-0.3437,-0.0226,3201,-12.24,-31.98,28.32,176.26,-81,18.89,3.1,993.79,59.365,0,,,,,,,,
-2.4206,11.1813,7.1206,-0.1113,9.7407,1.1302,0.0921,3.3896,-2.1215,-0.6267,-0.0914,-0.3115,3481,-10.86,-30.18,29.76,166.82,-83.35,5.62,3.1,993.73,54.874,0,,,,,,,,
0.1796,11.9235,2.854,-0.2647,9.7459,1.0569,1.0069,2.326,0.0205,-0.2992,-0.6961,0.2309,3723,-7.38,-30.18,30.6,181.22,-83.62,14.06,3.1,993.73,63.213,0,,,,,,,,
-0.1413,12.8405,3.0359,-0.0805,9.7788,0.7334,-0.0608,3.0617,2.3025,0.1027,-0.4921,-0.1313,4029,-4.32,-29.22,33.96,179.58,-85.69,6.26,3.1,993.74,70.181,0,,,,,,,,
0.5674,10.7216,0.4429,-0.1339,9.7678,0.8619,0.7133,0.2092,-1.3168,0.0068,0.2984,0.1197,3715,6.36,-29.1,33.6,197.61,-84.9,8.83,3.1,993.73,67.728,0,,,,,,,,
-0.3735,9.2347,1.5922,-0.302,9.557,2.178,-0.6629,-0.2935,-0.6504,-0.1758,-0.2111,0.022,4790,5.04,-33.18,29.16,194.43,-77.04,7.89,3.1,993.74,65.806,0,,,,,,,,
0.8739,7.6641,3.34,-0.2209,9.0393,3.7965,1.0948,-1.3752,-0.4565,0.121,-0.2453,0.1087,5105,13.14,-35.88,22.62,204.46,-68.31,5.62,3.1,993.77,69.878,0,,,,,,,,
-0.6034,8.0184,2.8109,-0.2119,9.288,3.1399,-0.3915,-1.2695,-0.329,0.0716,-0.1915,-0.003,5224,13.98,-33.3,24.18,205.7,-71.28,3.86,3.1,993.75,66.081,0,,,,,,,,
0.8069,8.6553,1.1109,0.1569,9.6233,1.8807,0.65,-0.968,-0.7698,0.1076,-0.7688,-0.0544,4435,17.88,-30.36,26.82,205.01,-78.9,-4.77,3.1,993.71,69.764,0,,,,,,,,
1.4246,11.301,1.1493,0.305,9.5677,2.1298,1.1196,1.7333,-0.9806,-0.3591,-0.0175,-0.0281,4697,19.92,-31.92,24.42,206.44,-77.33,-8.15,3.1,993.71,56.925,0,,,,,,,,
1.3336,11.799,0.1556,0.215,9.6145,1.9196,0.5991,2.1701,-0.7201,0.3806,-0.2154,0.1203,4627,16.74,-31.62,26.22,202.69,-78.64,-6.39,3.1,993.74,59.437,0,,,,,,,,
0.8476,10.5779,1.5347,0.3897,9.5302,2.279,0.8625,0.3749,-0.7012,0.132,0.0351,-0.0568,5317,18.42,-32.4,24.06,202.25,-76.36,-9.7,3.1,993.76,69.409,0,,,,,,,,
0.2394,9.6465,2.2913,0.0883,9.3673,2.9011,0.1512,0.2792,-0.6097,-0.4178,-0.4518,-0.1258,5434,23.28,-30.84,20.52,217.75,-73.67,-0.97,3.1,993.79,62.66,0,,,,,,,,
-0.6105,6.9985,1.9298,0.2676,9.4698,2.5339,-0.8015,-1.9494,-0.47,0.1974,-0.0431,0.0568,4207,30.24,-29.82,14.16,229.5,-74.69,-5.81,3.1,993.75,70.191,0,,,,,,,,
0.5052,6.6345,1.3839,0.4735,9.3706,2.8528,0.5034,-3.3729,-1.8879,0.1058,0.6069,0.1955,4766,23.64,-32.88,19.14,213.23,-72.85,-9.42,3.1,993.72,67.623,0,,,,,,,,
-0.996,8.131,2.2698,0.3476,9.5311,2.2821,-1.4873,-0.6004,2.0371,-0.0366,-0.1158,-0.0501,3380,22.56,-32.76,24.84,208.36,-76.38,-8.66,3.1,993.78,60.012,0,,,,,,,,
0,9.0049,-1.19,0.2585,9.6116,1.9288,-0.8571,0.2887,-1.5457,1.0679,0.4218,0.3195,3143,16.92,-31.26,27.72,200.26,-78.55,-7.63,3.1,993.72,62.429,0,,,,,,,,
0.2993,9.6298,1.7023,0.1348,9.586,2.0642,-1.4637,0.3766,2.9494,0.1192,-0.2765,-0.0617,3327,10.56,-32.1,29.76,193.81,-77.82,-3.74,3.1,993.71,58.499,0,,,,,,,,
-0.4741,10.0392,3.8979,0.2748,9.3496,2.9461,-0.7489,0.6896,0.9518,0.4766,0.153,0.1845,3558,0.9,-35.04,27.24,177.61,-72.44,-5.33,3.1,993.71,59.22,0,,,,,,,,
-0.565,10.894,8.7367,0.4852,9.3799,2.82,0.4821,2.0815,2.2128,-0.0427,0.4034,-0.4136,3673,-8.22,-33.72,27.9,160.16,-73.04,-9.76,3.1,993.7,58.39,0,,,,,,,,
1.269,11.7176,-0.3735,0.0967,9.5521,2.2178,0.3319,2.041,-0.458,0.2921,0.8591,0.3006,2978,-15.72,-31.02,28.62,153.48,-76.92,-2.5,3.1,993.7,63.36,0,,,,,,,,
0.3304,8.5931,4.7383,-0.0931,8.7335,4.4595,-0.0865,0.2139,1.1647,0.4069,0.4254,0.3232,3357,-31.5,-29.82,10.92,127.98,-62.95,1.2,3.1,993.71,57.049,0,,,,,,,,
0.498,7.5228,1.4078,0.4011,9.3785,2.8378,0.8918,-2.5931,-2.1483,0.2377,0.1927,0.0483,4728,-0.18,-32.64,26.34,173.94,-73.01,-8.05,3.1,993.76,47.412,0,,,,,,,,
0.3304,6.6872,0.5842,0.4271,9.5233,2.301,-0.9634,-2.3668,-0.8165,0.2511,-0.1488,0.0354,4962,0.18,-31.38,28.56,171.42,-76.19,-10.52,3.1,993.75,45.935,0,,,,,,,,
0.826,5.854,0.2155,0.2271,9.5649,2.152,0.599,-3.7109,-1.9365,-0.2858,-0.1097,0.0837,4965,-1.8,-30.66,29.28,170.08,-78.24,-7.91,3.1,993.75,48.666,0,,,,,,,,
-0.8811,7.1038,1.0942,0.2127,9.4993,2.4265,-1.1009,-1.9119,-1.0642,0.1381,-0.0987,0.0031,5704,1.74,-31.74,28.14,179.26,-75.62,-5.01,3.1,993.74,46.573,0,,,,,,,,
-1.1229,7.7766,3.7542,0.5427,9.5953,1.9507,-1.6178,-1.1771,0.7477,-0.7562,0.2367,0.2077,7019,0.12,-30.48,28.98,166.95,-78.08,-15.55,3.1,993.76,48.231,0,,,,,,,,
1.1756,9.1796,-0.1628,1.0029,9.5536,1.9728,1.5973,-0.4027,-0.4764,0.7435,-0.4145,-0.6335,6134,2.4,-31.08,27.72,161.29,-76.96,-26.95,3.1,993.74,45.58,0,,,,,,,,
1.0846,9.6968,5.4302,0.9178,9.5862,1.8525,0.265,0.9581,2.4787,-0.6297,0.6178,0.6616,5005,-2.16,-30.9,28.86,154.73,-77.83,-26.36,3.1,993.73,47.063,0,,,,,,,,
1.4773,9.5699,4.2738,0.8645,9.4992,2.2777,-0.685,1.1529,6.0065,0.6824,-0.8275,-0.2871,5340,-3.78,-32.76,26.94,154.77,-76.89,-22.97,3.1,993.7,46.948,0,,,,,,,,
1.087,12.1964,3.091,0.9173,9.6869,1.2216,0.481,3.1991,1.0194,-0.5253,0.4242,0.248,4817,-2.58,-29.22,31.62,142.35,-81.04,-36.9,3.1,993.72,49.879,0,,,,,,,,
1.9465,12.8525,2.2506,0.7631,9.5874,1.9156,1.0877,3.1956,1.264,0.1339,-0.417,0.0275,5951,-6,-32.34,28.8,152.18,-77.86,-21.72,3.1,993.73,49.885,0,,,,,,,,
0.577,12.7423,2.0447,0.4862,9.7524,0.9075,0.0909,2.9899,1.1373,0.7007,0.7638,-0.1997,6266,-0.96,-29.7,31.38,152.53,-83.97,-28.18,3.1,993.73,49.562,0,,,,,,,,
0.2777,13.293,1.2857,0.4647,9.6152,1.8715,-0.1271,1.4464,-0.1596,0.6598,0.4651,-0.1582,5576,-0.36,-32.04,31.08,168.21,-78.66,-13.94,3.1,993.71,47.573,0,,,,,,,,
2.0782,10.0368,0.249,0.4911,9.6882,1.4382,0.7252,-1.5069,-1.3066,-0.0757,-0.3003,0.0434,5072,2.76,-30,32.28,168.08,-81.08,-18.85,3.1,993.73,47.791,0,,,,,,,,
0.4453,8.8995,0.5627,0.536,9.5943,1.9577,0.2972,-2.9382,-2.0726,0.1271,0.2055,-0.1588,5305,-0.96,-31.86,30.9,165.59,-78.05,-15.31,3.1,993.73,45.687,0,,,,,,,,
0.7949,6.1102,-0.8356,0.202,9.7083,1.3706,0.5929,-3.5981,-2.2062,0.5517,-0.2606,0.0654,5123,1.68,-30.06,32.46,175.72,-81.88,-8.38,3.1,993.75,46.146,0,,,,,,,,
0.7398,6.601,0.5148,0.3276,9.6112,1.9203,0.3668,-3.5369,-1.9346,-0.1215,-0.1097,0.1735,5141,-3.48,-30.72,31.62,167.16,-78.54,-9.68,3.1,993.74,46,0,,,,,,,,
-0.8572,6.6968,1.0726,0.4439,9.5962,1.9712,-1.3011,-2.8994,-0.8986,0.0948,0.109,-0.2669,4915,-0.18,-30.66,30.48,169.34,-78.11,-12.69,3.1,993.75,45.845,0,,,,,,,,
-1.1325,7.9179,2.3608,0.3576,9.6102,1.9201,-0.3983,-1.3044,-1.6136,-0.0054,0.6435,-0.2077,4796,-0.54,-30.18,30.66,169.42,-78.51,-10.55,3.1,993.73,46.879,0,,,,,,,,
0.7757,9.4598,-0.0479,-0.158,9.6888,1.5076,1.3288,-0.2697,-1.5172,-0.0219,-0.8922,-0.1527,4869,1.98,-28.26,31.38,188.59,-81.11,5.98,3.1,993.75,45.554,0,,,,,,,,
-1.439,10.0775,3.8859,-0.238,9.6613,1.6652,0.4774,1.666,1.9382,-0.4685,0.1493,0.0641,4709,0.12,-29.34,29.88,187.07,-80.12,8.13,3.1,993.75,45.557,0,,,,,,,,
-0.6058,10.9754,3.0886,-0.7954,9.7357,0.8686,0.1896,1.2397,2.22,0.2652,-0.3504,0.2877,4865,0.96,-27.36,32.16,220.68,-83.1,42.48,3.1,993.76,46.595,0,,,,,,,,
-0.5842,13.1015,1.3192,-0.3369,9.7964,0.2953,0.301,3.1327,-1.6624,-0.9235,-0.2123,-0.0159,4767,0.72,-25.8,34.68,228.97,-87.38,48.77,3.1,993.75,47.534,0,,,,,,,,
1.4461,11.9977,-0.4382,0.2221,9.7665,0.8577,0.556,2.4443,-0.0412,-0.1972,-0.7242,0.022,6406,2.58,-27.66,32.7,171.3,-84.82,-14.52,3.1,993.74,48.595,0,,,,,,,,
-0.4214,12.5316,2.2674,0.0975,9.7704,0.8361,0.5106,1.9998,0.1408,0.1033,0.4554,-0.292,6343,2.52,-28.32,32.94,178.64,-85.08,-6.65,3.1,993.75,50.61,0,,,,,,,,
0.6465,12.4574,0.7997,0.5541,9.7049,1.2957,0.7963,-0.2978,0.6676,1.1638,0.3485,-0.6145,6638,-3.48,-28.14,33,154.43,-81.74,-23.15,3.1,993.76,51.701,0,,,,,,,,
1.1971,9.2347,-0.7925,-0.0504,9.7827,0.6824,0.5939,-2.3294,-1.4701,0.0196,-0.1579,0.2077,5961,3.18,-26.52,34.56,188.68,-86,4.22,3.1,993.76,55.619,0,,,,,,,,
-0.5004,10.5707,0.6058,-0.145,9.6933,1.4795,-1.0187,2.5462,0.2324,0.2573,0.3869,-0.2926,6889,-0.42,-30.18,32.64,176.95,-81.16,-3.44,3.1,993.74,58.958,0,,,,,,,,
0.1748,6.3448,-0.5818,0.0316,9.7761,0.7722,0.1431,-3.4313,-1.354,0.1247,-0.4023,0.259,6002,2.64,-27.54,34.62,182.41,-85.48,-2.35,3.1,993.74,48.517,0,,,,,,,,
0.0742,7.5061,-0.6512,0.0321,9.6994,1.4458,-0.7456,-2.8949,-1.8265,0.0551,-0.2313,0.2297,6028,-0.54,-29.76,31.92,177.28,-81.52,-1.27,3.1,993.73,47.208,0,,,,,,,,
-0.4501,6.9075,0.7686,-0.2437,9.7415,1.1016,-0.4889,-2.3576,-0.5365,0.4759,0.2684,0.3042,5399,3.36,-28.26,32.4,196.32,-83.39,12.48,3.1,993.75,49.771,0,,,,,,,,
0.8595,5.6337,0.4693,0.0854,9.7559,0.9923,-0.3799,-4.0432,-0.0729,-0.7214,-0.1335,0.5052,5090,-0.72,-27.6,31.62,173.81,-84.17,-4.92,3.1,993.76,49.452,0,,,,,,,,
-0.7853,7.2427,0.5674,-0.0338,9.7543,1.0116,-0.5002,-2.2386,-0.2455,-0.0806,-0.0309,-0.1014,5363,1.68,-28.32,33,184.97,-84.08,1.91,3.1,993.75,48.035,0,,,,,,,,
-0.5148,6.7973,1.1277,-0.421,9.6859,1.4755,-0.4266,-2.515,1.3091,0.0343,0.0375,-0.1393,4394,-2.52,-30.48,32.58,189.51,-81,15.93,3.1,993.75,57.156,0,,,,,,,,
0.0072,8.0974,2.9426,-0.1663,9.7692,0.8395,0.6691,-1.1474,2.4407,-0.0292,-0.1427,-0.2028,3523,-0.06,-27.9,34.2,190.49,-84.99,11.21,3.1,993.74,47.182,0,,,,,,,,
-1.3719,8.8133,0.2107,-0.2894,9.7865,0.5571,-0.5941,-0.6332,-0.8827,-0.0396,0.1426,0.0635,3175,2.46,-27.06,35.16,209.39,-86.33,27.45,3.1,993.73,45.518,0,,,,,,,,
2.5331,9.0695,-0.4549,0.0364,9.7649,0.9028,1.7019,-0.3363,-1.396,-0.105,-0.4554,0.1234,3096,3.12,-28.98,33.66,182.55,-84.71,-2.31,3.1,993.74,45.66,0,,,,,,,,
-1.3552,10.724,0.9074,-0.0067,9.7589,0.9665,-0.0244,2.3035,1.7151,-0.243,0.1805,0.0171,2798,2.76,-27.78,34.02,185.06,-84.34,0.4,3.1,993.74,51.843,0,,,,,,,,
1.1708,10.281,0.9817,0.0956,9.7855,0.6365,1.0752,0.4955,0.3451,-0.1154,-1.018,0.2602,3020,-0.3,-26.64,33.96,171.86,-86.24,-8.54,3.1,993.74,54.978,0,,,,,,,,
-0.4334,14.5309,1.2402,-0.1999,9.771,0.8105,-0.5495,3.6991,3.2286,-1.3157,-0.208,0.3519,2786,4.08,-25.74,34.26,221.75,-87.64,36.21,3.1,993.73,46.317,0,,,,,,,,
-1.6257,12.9698,3.6896,-0.206,9.7934,0.4649,0.218,3.6193,-1.4777,-0.4764,-0.0535,-0.1319,2914,2.52,-26.22,34.44,207.91,-87.03,23.9,3.1,993.72,48.396,0,,,,,,,,
0.9745,11.6434,-1.7478,-0.2922,9.7998,0.221,0.1773,3.0407,-0.4963,-0.3878,-0.1195,0.1845,2969,2.46,-26.04,34.68,234.89,-87.86,52.9,3.1,993.72,43.36,0,,,,,,,,
1.4054,12.8309,-1.8316,-0.125,9.7939,0.4828,1.1186,2.5773,-1.304,0.2689,-0.5123,0.1979,3500,2.82,-27.24,34.86,198.71,-87.09,14.51,3.1,993.72,46.233,0,,,,,,,,
-0.4956,12.4478,1.3911,-0.2521,9.8019,0.1706,-0.107,2.3371,0.8039,-0.0054,0.335,-0.0904,3154,4.86,-26.04,34.98,242.89,-88.22,55.91,3.1,993.73,44.16,0,,,,,,,,
-0.51,13.4151,0.6393,-0.3248,9.7831,0.5962,1.1509,2.7653,-1.8125,0.0025,-0.5336,0.2584,3483,1.86,-26.94,33.9,206.04,-85.9,24.05,3.1,993.73,44.516,0,,,,,,,,
-0.8308,12.6537,0.8021,-0.1859,9.7987,0.3488,-0.4007,2.2828,0.6209,0.4087,0.3381,-0.1051,3337,5.1,-26.52,33.84,189.28,-85.75,1.42,3.1,993.72,51.809,0,,,,,,,,
0.0311,12.7328,2.8612,-0.4073,9.739,1.0748,0.5078,2.4071,0.6922,-0.0818,-0.0187,0.0672,3309,0.66,-29.22,33.24,200.55,-83.27,20.75,3.1,993.74,44.012,0,,,,,,,,
1.925,8.6745,-0.3256,0.3962,9.7523,0.9519,1.5288,-2.3157,-1.6798,0.2499,0.3423,-0.1906,3378,2.46,-27.84,32.82,162.33,-83.96,-22.6,3.1,993.73,44.254,0,,,,,,,,
-0.0192,11.6841,1.4988,0.0842,9.7274,1.2413,-0.0147,1.0516,0.4227,0.4533,0.3362,-0.124,2544,-0.42,-29.7,32.34,176.51,-82.71,-3.88,3.1,993.73,46.399,0,,,,,,,,
0.7853,8.6026,-0.1915,0.1487,9.776,0.7606,0.311,-1.7623,-1.0479,0.1143,-0.26,0.2358,2234,2.4,-28.08,33.84,172.75,-85.47,-11.06,3.1,993.76,49.634,0,,,,,,,,
-0.2275,10.0129,1.1253,0.029,9.7546,1.0086,-0.2564,0.2583,0.1167,0.4985,0.2422,-0.4771,2121,-1.44,-29.34,32.22,165.88,-82.68,-13.84,3.1,993.78,55.948,0,,,,,,,,
-0.17,6.3855,-0.4046,0.3586,9.759,0.8966,-0.3131,-2.8778,-1.7059,0.5065,-0.1244,0.0922,1979,2.58,-28.74,33.18,174.43,-83.09,-11.31,3.1,993.8,57.714,0,,,,,,,,
0.5722,6.5843,-0.8643,0.171,9.7537,1.0035,0.4012,-3.1694,-1.8678,0.0685,-0.1408,0.0165,1833,-0.72,-28.98,33.3,169.69,-83.41,-9.54,3.1,993.79,53.255,0,,,,,,,,
-0.0168,6.4238,-0.4405,-0.0733,9.7444,1.1009,-0.3122,-3.3014,-1.2063,0.2004,-0.1158,0.3971,1793,2.16,-27.84,32.82,186.69,-83.54,3.81,3.1,993.77,55.44,0,,,,,,,,
0.6153,6.0743,0.0694,0.1668,9.7454,1.0816,-0.0543,-4.1188,-0.1262,-0.3017,-0.004,0.2156,1927,-1.56,-28.86,32.76,168.79,-83.59,-8.77,3.1,993.78,56.706,0,,,,,,,,
-1.0271,6.4885,0.7662,-0.0415,9.7724,0.8172,-0.7726,-2.6231,-0.1708,0.0758,-0.0743,-0.0629,2373,2.82,-27.9,32.16,187.73,-85.21,2.91,3.1,993.78,57.395,0,,,,,,,,
-0.182,6.3233,0.7231,0.0258,9.7281,1.2388,-0.2077,-3.4048,-0.5157,-0.2864,-0.0242,0.4105,2701,-0.36,-28.92,32.16,178.92,-82.74,-1.19,3.1,993.79,59.643,0,,,,,,,,
-0.5387,7.4869,1.3911,0.2599,9.7374,1.1339,-0.7986,-2.2505,0.2571,0.2786,0.1011,-0.0373,3013,3.12,-29.52,32.16,173.16,-83.19,-12.91,3.1,993.77,55.597,0,,,,,,,,
-0.7279,7.9322,2.9761,0.6345,9.7438,0.9086,-1.4198,-0.7581,1.2678,0.0172,0.3118,0.1423,3423,3.3,-28.68,33.36,152.72,-83.51,-34.93,3.1,993.75,55.333,0,,,,,,,,
0.51,7.5491,1.2642,0.2395,9.7894,0.5296,0.2705,-2.2402,0.7346,-0.7366,-0.1806,0.2505,5321,7.86,-27.36,34.44,169.37,-86.6,-24.33,3.1,993.75,46.083,0,,,,,,,,
-0.5363,7.7862,0.9649,0.4427,9.7597,0.8496,-0.493,-1.1786,0.0698,-0.0793,0.1689,0.0196,4794,4.14,-27.96,32.7,160.85,-84.39,-27.52,3.1,993.74,51.532,0,,,,,,,,
0.9529,9.2874,-1.3121,0.2544,9.8033,0.0072,1.4742,-0.4609,-0.8883,-0.1484,-0.902,-0.1649,4944,8.28,-24.66,35.04,105.49,-88.51,-88.38,3.1,993.75,49.381,0,,,,,,,,
0.0694,9.2658,-0.8069,0.2771,9.796,0.3621,-2.1231,-0.1902,-0.7069,0.7007,1.0522,-0.5907,4926,4.44,-27.54,33.72,153.59,-85.35,-34.73,3.1,993.74,52.703,0,,,,,,,,
2.0184,9.455,-0.9625,0.1314,9.7855,0.6306,2.0307,-0.9769,-2.0504,-0.309,-0.7425,0.0935,4109,5.22,-27.12,33.42,189.74,-86.53,1.58,3.1,993.76,44.136,0,,,,,,,,
0.0742,10.4582,0.2083,0.3878,9.7989,0.0194,-0.3136,0.6592,0.1889,-0.287,-0.1384,0.1729,3967,7.32,-24.54,35.1,105.7,-87.73,-87.13,3.1,993.75,48.78,0,,,,,,,,
0.5076,10.36,1.9082,0.0408,9.7924,0.5258,-1.0775,3.3234,3.7408,0.0031,-0.1427,0.1533,4120,5.4,-26.94,34.62,183.55,-86.92,-4.44,3.1,993.77,48.059,0,,,,,,,,
0.3831,11.6003,2.6409,0.5542,9.7723,0.6039,0.3604,2.1512,0.9691,-0.6401,0.2177,0.2334,5167,3.6,-27.18,34.38,146.18,-85.21,-42.54,3.1,993.76,50.367,0,,,,,,,,
-0.2179,13.4055,3.2347,0.4582,9.7867,0.4258,1.0143,3.8487,-1.3596,0.077,0.0552,-0.1344,5112,1.98,-27.12,33.78,138.15,-86.34,-47.1,3.1,993.74,49.624,0,,,,,,,,
0.5555,13.1254,2.2099,0.5768,9.781,0.4109,-0.0213,3.3444,1.799,-0.6083,0.3271,0.1918,5324,2.82,-25.44,35.04,79.06,-87.41,-107.66,3.1,993.76,54.545,0,,,,,,,,
1.743,14.0328,-1.1277,0.38,9.7924,0.3658,1.3631,4.2404,-1.4935,0.0636,0.3851,-0.4148,5077,0,-26.7,34.2,141.26,-85.68,-40.81,3.1,993.76,50.87,0,,,,,,,,
2.1596,12.8381,-0.4549,0.5396,9.7892,0.2243,0.952,3.1566,-0.5116,-0.2339,0.197,0.2767,4697,-0.54,-25.68,35.16,113.23,-86.58,-67.43,3.1,993.76,50.949,0,,,,,,,,
1.1588,13.372,-0.9409,0.4637,9.7911,0.2978,0.1875,3.1763,-0.657,0.2444,-0.2783,0.0287,5006,0.3,-26.46,35.16,124.64,-86.78,-57.29,3.1,993.76,53.767,0,,,,,,,,
0.9577,12.7663,1.7071,0.607,9.7787,0.4237,1.0259,1.247,0.0576,0.1058,0.4126,-0.0452,5012,0.06,-27.72,34.56,127.58,-85.67,-55.08,3.1,993.77,54.557,0,,,,,,,,
0.3017,12.8788,1.0631,0.4475,9.7548,0.9018,0.0338,0.8542,0.6042,0.5181,0.3766,-0.2181,4669,-3.72,-29.16,34.02,149.31,-84.11,-26.39,3.1,993.75,50.655,0,,,,,,,,
1.5467,8.7822,-0.8955,0.5758,9.7648,0.6987,0.0707,-2.8621,-0.9812,0.2017,-0.1072,0.0373,4185,0.36,-28.38,35.1,142.95,-84.7,-39.49,3.1,993.74,53.351,0,,,,,,,,
-0.1149,10.1972,-0.0766,0.3886,9.7531,0.9466,-0.5035,0.4441,-1.0232,0.0355,0.28,-0.0049,4263,-2.1,-28.56,35.7,151.15,-82.93,-28.23,3.1,993.76,60.138,0,,,,,,,,
0.9601,7.2427,-0.996,0.7804,9.7296,0.9468,0.036,-3.1908,-1.8063,0.2316,-0.3186,0.1222,3492,3.24,-28.44,34.2,148.43,-82.81,-39.5,3.1,993.77,56.908,0,,,,,,,,
1.1828,7.0056,-0.2921,0.6068,9.7224,1.1298,0.327,-3.2962,-1.1609,0.4362,0.3882,-0.088,3438,-3,-29.16,33.24,149.67,-82.49,-28.24,3.1,993.76,49.666,0,,,,,,,,
0.1628,6.3257,0.2969,0.2371,9.7612,0.9127,-1.3719,-1.5704,0.9811,0.4246,0.0473,-0.1191,3120,-0.54,-28.26,33.6,164.87,-84.48,-14.56,3.1,993.74,47.96,0,,,,,,,,
0.3232,4.9657,-0.5746,0.7329,9.7327,0.9523,-0.8047,-4.3887,-0.9523,-0.2235,-0.3974,0.2431,3024,-1.08,-28.98,33.96,144.05,-82.96,-37.58,3.1,993.71,47.926,0,,,,,,,,
-0.85,7.688,0.905,0.1563,9.7907,0.5368,-0.5705,-1.4131,1.539,0.0606,0.233,-0.372,3159,-0.06,-27,37.08,164.38,-86.73,-16.24,3.1,993.73,51.248,0,,,,,,,,
-1.5946,7.4558,3.4717,-0.1218,9.6254,1.8729,-1.4728,-2.1696,1.5988,-1.1306,-0.2826,0.0122,4168,-2.34,-31.14,31.98,180.12,-78.97,3.72,3.1,993.73,52.847,0,,,,,,,,
-0.4525,7.9873,2.5906,-0.2274,9.4461,2.6247,0.4166,-0.8052,-0.4148,-0.7146,0.2373,-0.157,5447,-0.48,-34.08,28.08,183.84,-74.42,4.95,3.1,993.73,50.289,0,,,,,,,,
-1.5443,9.534,0.8548,-0.3835,9.3506,2.9307,-1.1608,0.1834,-2.0759,0.4717,0.0552,-0.1362,5674,-0.18,-35.7,25.8,185.44,-72.46,7.45,3.1,993.77,61.293,0,,,,,,,,
1.1612,9.0551,0.9505,-0.1555,9.6212,1.8919,0.5721,0.7197,1.4361,-0.0738,-0.679,0.2841,4381,2.64,-32.64,30.12,188.73,-78.84,4.7,3.1,993.74,55.531,0,,,,,,,,
-0.5052,10.3504,6.5795,0.1603,9.5276,2.3173,-0.4165,1.7471,3.5032,-1.1233,0.0394,0.3952,3959,2.22,-33.6,29.1,179.99,-76.3,-3.96,3.1,993.75,55.351,0,,,,,,,,
0.9577,9.8237,2.7558,0.1342,9.5134,2.3764,-0.2947,1.2944,2.1415,-0.1239,-0.3418,-0.0421,3514,-0.42,-32.82,28.5,177.41,-75.95,-3.23,3.1,993.75,50.095,0,,,,,,,,
-1.6257,11.1262,8.0807,-0.1027,9.4126,2.7501,-1.5231,1.7136,5.3306,-0.2601,0.5,-0.099,2653,0.72,-34.44,26.82,183.24,-73.7,2.14,3.1,993.76,51.637,0,,,,,,,,
-0.1508,13.1087,6.4741,-0.2617,9.2315,3.2987,0.8722,3.9897,1.2911,-0.2101,-0.0456,-0.1246,2186,2.22,-35.28,25.02,186.45,-70.28,4.54,3.1,993.75,59.177,0,,,,,,,,
-0.1915,11.8828,3.4478,-0.3501,9.3844,2.8249,0.1585,2.4983,0.6229,0.2194,-0.2477,0.0153,2116,2.34,-34.02,26.58,188.55,-73.13,7.06,3.1,993.75,61.725,0,,,,,,,,
0.2634,10.9227,4.099,0.2885,9.2875,3.1353,-0.0251,1.6352,0.9637,0.264,0.3326,0.5266,2061,0.48,-34.74,26.16,176.19,-71.27,-5.26,3.1,993.74,53.893,0,,,,,,,,
1.3719,6.8261,2.1836,0.3914,9.0889,3.6617,0.9806,-2.2629,-1.4782,0.0532,-0.1689,-0.1118,3595,-0.96,-31.26,20.46,175.83,-67.34,-3.47,3.1,993.71,58.829,0,,,,,,,,
-0.1077,6.6465,3.012,0.3598,9.1885,3.4077,-0.8411,-1.6034,-1.7508,0.1534,-0.3675,-0.0751,3348,6.12,-31.08,22.08,186.13,-68.03,-6.46,3.1,993.7,66.755,0,,,,,,,,
1.3192,5.3273,1.2091,0.2598,9.1371,3.5519,0.7314,-3.4148,-2.1416,-0.0488,0.0326,0.19,3265,3.12,-32.1,24.18,182.08,-68.71,-4.18,3.1,993.72,60.913,0,,,,,,,,
-0.68,7.3385,2.9282,0.0412,9.4597,2.5849,-0.7212,-2.1213,0.3433,-0.0323,0.1383,-0.1515,3200,6.06,-31.86,28.2,188.88,-74.71,-0.91,3.1,993.71,56.215,0,,,,,,,,
-0.1939,7.6042,2.4948,0.3192,9.5178,2.341,-0.8938,-0.5081,-0.7512,0.0569,0.1615,-0.0886,3340,3.36,-31.8,30.96,178.16,-76.06,-7.76,3.1,993.71,52.26,0,,,,,,,,
1.9944,8.5404,1.3097,0.3685,9.5158,2.3417,1.2524,0.0421,-0.3545,0.1339,-0.7352,0.1344,3682,4.26,-31.8,30.54,178.69,-76.01,-8.94,3.1,993.72,54.816,0,,,,,,,,
-0.7446,10.032,4.8604,0.0315,9.5335,2.2981,-0.7761,0.4985,2.5623,0.8449,-0.0529,-0.3671,3660,4.5,-33.24,28.44,184.76,-75.91,-4.17,3.1,993.72,55.662,0,,,,,,,,
-0.9529,13.1158,5.0184,-0.2304,9.6311,1.8329,-0.7226,3.4848,3.1855,0.1522,0.1817,-0.2877,3914,3,-30.36,30.6,185.48,-79.26,0.84,3.1,993.71,44.841,0,,,,,,,,
0.4621,12.9363,2.2003,0.2874,9.6891,1.4861,-0.309,3.046,0.1851,0.5816,0.3039,0.0574,5226,2.1,-29.88,30.9,173.62,-81.12,-10.95,3.1,993.69,43.368,0,,,,,,,,
0.8045,13.1015,1.7215,0.0843,9.6914,1.4964,1.6779,2.2009,0.1053,0.1491,-0.2221,-0.2211,6128,2.52,-29.7,31.08,182.03,-81.21,-3.22,3.1,993.7,45.26,0,,,,,,,,
-0.1772,13.1805,2.0639,0.4969,9.7394,1.0328,0.705,-0.112,-0.0679,0.0917,0.109,-0.11,6385,5.04,-30.36,31.86,164.72,-83.29,-25.69,3.1,993.68,45.704,0,,,,,,,,
1.3145,10.5085,1.1876,0.6486,9.6075,1.8562,-0.1841,0.2521,-0.6687,0.2854,0.2348,-0.0366,6365,-0.3,-32.76,29.58,163.93,-78.43,-19.26,3.1,993.67,49.812,0,,,,,,,,
0.6393,8.4039,0.5818,0.4401,9.6678,1.5845,0.1991,-1.2639,-1.0027,0.2628,0.0229,-0.0568,6101,1.86,-32.04,30.3,169.94,-80.35,-15.52,3.1,993.67,53.111,0,,,,,,,,
1.5491,8.0041,-0.0718,0.7824,9.5819,1.9354,0.5967,-1.9657,-2.5891,0.319,-0.1647,0.0373,6111,-0.78,-32.4,29.34,160.17,-77.71,-22.01,3.1,993.67,51.516,0,,,,,,,,
-0.3041,7.1589,1.3815,0.47,9.5824,2.0314,-0.774,-2.4858,0.3605,0.5187,0.313,0.1155,6140,2.4,-32.94,29.7,172.39,-77.72,-13.03,3.1,993.67,51.643,0,,,,,,,,
1.1062,6.2682,0.9529,0.5899,9.4949,2.381,-1.4039,-1.7159,2.2471,-0.2626,-0.2282,0.5082,5871,-2.94,-33.48,28.14,164.11,-75.51,-13.91,3.1,993.65,55.771,0,,,,,,,,
-0.9793,7.9346,2.1596,0.2484,9.6942,1.4595,-0.1287,-1.5753,0.6283,0.0532,0.0339,-0.234,5589,0.78,-30.24,31.86,173.04,-81.32,-9.66,3.1,993.66,46.246,0,,,,,,,,
-0.8619,9.2563,1.9561,0.5156,9.6873,1.4356,-1.2554,-1.5084,1.3633,-0.8044,-0.139,0.2755,4912,-3.06,-29.58,32.58,157.85,-81.05,-19.76,3.1,993.66,46.756,0,,,,,,,,
0.4166,9.6178,2.4374,0.6015,9.7163,1.1839,2.1303,-0.4385,-1.8831,-0.193,-0.2398,-0.2798,5088,0.18,-28.5,33,155.59,-82.22,-26.93,3.1,993.68,41.935,0,,,,,,,,
-0.0168,11.2196,3.0886,0.6691,9.7208,1.1084,-0.6858,1.4988,1.9802,-0.1074,0.2006,0.1735,3880,-0.96,-27.66,33.18,150.13,-82.41,-31.12,3.1,993.68,43.196,0,,,,,,,,
0.7805,11.4207,3.5723,0.4224,9.6384,1.7587,-0.3864,3.5493,2.4313,-0.5595,-0.2765,0.1491,3619,-2.52,-30.42,32.16,163.65,-79.37,-13.5,3.1,993.69,41.615,0,,,,,,,,
-1.2929,11.6865,1.9968,0.3569,9.793,0.3748,-0.0959,2.2502,-2.2447,-1.0311,0.142,-0.3592,3281,-2.46,-25.86,33.54,134.64,-86.98,-43.6,3.1,993.66,41.543,0,,,,,,,,
0.2969,11.5332,-0.1772,0.3083,9.664,1.6378,1.5376,1.7423,-2.392,0.3104,-0.3046,-0.1881,3362,-6.36,-29.4,31.26,161.04,-80.22,-10.66,3.1,993.68,40.981,0,,,,,,,,
-1.1445,12.546,1.9729,-0.0749,9.7755,0.7771,-0.7008,2.9501,-1.2464,0.6494,0.1377,-0.135,2979,-2.28,-27.48,32.76,170.52,-84.16,-6.75,3.1,993.69,40.923,0,,,,,,,,
1.2857,12.1438,0.6225,0.2342,9.7545,0.9819,0.9486,2.4108,0.2823,0.3281,-0.197,-0.1112,3332,-4.98,-28.62,32.28,165.31,-82.29,-7.43,3.1,993.67,41.878,0,,,,,,,,
0.8284,11.4231,0.5387,0.5355,9.7635,0.7463,0.2929,1.6596,-0.2076,0.2786,0.5,-0.1771,2987,-6.36,-28.14,33.84,137.17,-84.63,-35.66,3.1,993.68,40.147,0,,,,,,,,
0.9625,10.6641,0.2849,0.7987,9.6577,1.5037,0.1638,1.0064,-1.2188,0.3978,0.1988,-0.149,3815,-9.24,-29.94,31.74,141.52,-80,-27.97,3.1,993.68,40.782,0,,,,,,,,
1.0918,8.9881,0.1413,0.6022,9.7254,1.1063,-0.1233,-2.7461,-1.4535,0.3275,-0.4328,0.0544,4123,-2.64,-28.68,32.4,149.28,-82.62,-28.56,3.1,993.69,41.275,0,,,,,,,,
2.0327,8.8445,1.415,0.6193,9.4795,2.4342,1.0376,-2.5194,-2.032,-0.0689,0.2354,0.3384,5580,-8.58,-33,28.8,154.63,-75.16,-14.27,3.1,993.69,41.427,0,,,,,,,,
1.4868,7.0056,0.5962,0.7896,9.6494,1.5608,0.4195,-2.9406,-1.7524,-0.0751,-0.635,0.0336,5929,-4.14,-30.36,31.5,150.37,-79.73,-26.83,3.1,993.68,42.096,0,,,,,,,,
0.9625,6.9147,-0.498,0.5414,9.7018,1.3237,0.4211,-2.7871,-1.8217,0.1852,0.0497,0.0098,6445,-5.76,-30,32.46,150.66,-81.61,-22.25,3.1,993.69,41.013,0,,,,,,,,
-0.3974,5.9953,0.6393,0.3426,9.7616,0.8737,-0.4671,-3.4695,-1.0389,-0.0836,-0.0822,0.2413,6052,-2.1,-28.56,33.9,156.96,-84.51,-21.41,3.1,993.68,41.091,0,,,,,,,,
0.4908,5.7702,0.1221,0.2465,9.7237,1.2484,-0.5937,-3.1107,0.193,-0.7898,-0.1909,0.4417,5393,-3.66,-29.46,31.68,163.48,-82.54,-11.17,3.1,993.67,40.784,0,,,,,,,,
0.5938,7.2666,0.9002,0.3868,9.7283,1.1748,-1.0117,0.0427,1.6409,-0.1368,0.0039,0.2462,5351,-1.62,-29.34,33.24,160.3,-82.75,-18.22,3.1,993.68,41.363,0,,,,,,,,
-0.6129,8.1908,0.929,0.2114,9.7454,1.0734,-1.1595,1.4933,-0.8651,0.019,-0.0052,0.3739,5681,-3.48,-29.4,33.6,165.12,-83.59,-11.14,3.1,993.68,41.532,0,,,,,,,,
2.1333,10.1733,2.5068,0.6849,9.7381,0.9329,1.7884,0.3777,0.8293,-0.6383,-1.1292,-0.1338,4724,-3.48,-30,33.6,142.14,-83.22,-36.29,3.1,993.66,49.716,0,,,,,,,,
0.2346,11.1142,2.3655,0.7189,9.7288,1.0021,-0.3741,2.1851,2.3188,0.1528,0.0895,-0.0959,4238,0.6,-29.4,33.6,149,-82.78,-35.66,3.1,993.66,41.414,0,,,,,,,,
1.0056,9.6657,0.4932,0.6334,9.7593,0.7242,-0.9399,1.3118,2.4626,0.3532,0.0895,0.2627,3520,-0.72,-28.2,35.58,139.92,-84.37,-41.17,3.1,993.65,40.971,0,,,,,,,,
1.5994,11.9905,1.6951,0.78,9.749,0.7198,1.1211,2.6533,-1.0119,-0.8344,-0.0333,0.0678,3492,-1.74,-27.18,35.46,132.78,-83.79,-47.3,3.1,993.65,41.647,0,,,,,,,,
1.8196,13.6091,1.3719,0.607,9.7083,1.245,2.0339,3.0819,-0.905,0.2621,-0.2526,-0.1753,4107,-2.94,-28.08,33.3,151.81,-81.88,-25.99,3.1,993.65,41.394,0,,,,,,,,
0.4597,11.8852,1.7287,0.6437,9.7468,0.8698,0.9988,0.6372,0.0736,0.3452,0.5354,-0.2462,3368,0.3,-26.64,32.58,146.22,-83.67,-36.51,3.1,993.65,43.789,0,,,,,,,,
0.7279,13.6761,1.9106,0.8401,9.6966,1.2002,-0.1122,3.9795,0.7105,0.6696,0.4743,-0.5113,3223,-0.6,-27.18,30.84,146.95,-81.41,-34.99,3.1,993.66,46.299,0,,,,,,,,
1.4892,10.0775,0.1963,0.8312,9.7193,1.0074,0.6581,0.3582,-0.8111,0.3446,0.3191,-0.102,3212,3.36,-27.42,33.3,148.68,-82.35,-39.52,3.1,993.66,47.508,0,,,,,,,,
1.858,8.4374,1.5898,0.6053,9.6447,1.6683,1.4586,-3.489,-1.5437,-0.2314,0.2073,-0.2126,2911,0,-29.76,32.28,162.69,-79.57,-19.94,3.1,993.67,48.114,0,,,,,,,,
0.3998,6.3496,0.6704,0.4318,9.7287,1.1563,-0.0319,-3.379,-0.4859,-0.0995,-0.1928,0.2773,2674,3.24,-28.02,33.54,167.8,-82.64,-18.42,3.1,993.66,49.609,0,,,,,,,,
0.7686,6.3161,0.8452,0.8546,9.6817,1.3057,-0.414,-2.9945,0.0111,-0.0305,0.2342,0.1063,2740,-0.3,-29.04,32.58,150.45,-80.84,-33.2,3.1,993.65,51.825,0,,,,,,,,
-0.5315,7.7575,0.905,0.5846,9.7486,0.8901,-0.338,-1.2274,0.0389,0.3312,0.481,-0.2498,2773,2.76,-28.44,33.06,154.07,-83.77,-33.3,3.1,993.65,54.639,0,,,,,,,,
0.0718,8.7654,2.1405,0.6514,9.7568,0.7425,-0.2922,-2.0759,1.0748,-0.499,-0.0914,0.157,2600,3.9,-27.12,34.38,129.41,-85.84,-59.77,3.1,993.66,50.612,0,,,,,,,,
0.5291,9.7423,0.9745,0.3174,9.7802,0.6458,0.2117,-0.0379,0.3287,-0.1532,0.1554,-0.0531,2409,4.56,-28.38,34.08,163.14,-85.79,-26.18,3.1,993.66,48.323,0,,,,,,,,
0.4812,9.9147,0.8835,0.5189,9.7856,0.3778,-0.8469,2.2863,1.8656,-0.411,-0.0284,0.2975,2264,3.6,-27.48,34.5,134.57,-86.25,-53.94,3.1,993.66,44.658,0,,,,,,,,
2.1309,9.534,0.4214,0.4955,9.7909,0.2502,0.9506,0.0711,1.7586,-0.3457,-0.6295,0.3201,2200,2.82,-26.82,35.28,123.72,-86.76,-63.22,3.1,993.66,44.087,0,,,,,,,,
-0.4765,12.6537,2.7534,0.1986,9.8046,0.0235,-0.1435,3.3543,1.2071,-0.7433,0.0363,0.2444,1882,3.72,-26.46,36.66,103.72,-88.83,-83.24,3.1,993.67,44.009,0,,,,,,,,
1.4533,12.7399,-0.7757,0.5465,9.7896,0.1872,1.3378,2.6606,-0.8623,0.5682,-0.0284,-0.0617,2035,1.44,-25.26,35.82,112.63,-86.62,-71.1,3.1,993.68,50.99,0,,,,,,,,
2.2171,12.8501,-1.2642,0.3975,9.7956,-0.2401,0.5937,3.2963,0.7932,-0.05,0.0626,0.1961,1871,0.48,-24.12,36.54,60.43,-87.29,-121.13,3.1,993.68,51.224,0,,,,,,,,
0.9936,12.6801,-0.0215,0.6699,9.7837,0.0254,0.3238,2.8964,-0.0469,0.3617,-0.2508,-0.1197,1769,0.9,-25.68,35.22,96.69,-86.08,-87.83,3.1,993.66,47.74,0,,,,,,,,
1.9489,10.7647,0.1245,0.6564,9.7846,-0.0033,1.2925,0.98,0.1278,0.0654,0.2428,-0.201,1574,3.72,-24.96,34.74,98.91,-86.16,-90.29,3.1,993.65,50.038,0,,,,,,,,
0.7829,11.8876,0.1939,0.7279,9.7795,0.0328,-0.7663,0.693,-0.1022,0.3874,0.2916,-0.1582,1682,3.54,-24.72,34.92,102.03,-85.74,-87.42,3.1,993.67,44.937,0,,,,,,,,
1.2331,10.4486,-0.7015,0.5315,9.7917,-0.1008,0.3927,-0.8706,-1.0556,0.4246,0.2,-0.0232,1461,5.58,-24.6,35.4,91.21,-86.84,-100.74,3.1,993.68,43.435,0,,,,,,,,
0.9218,10.0703,-0.1341,0.7835,9.7703,0.3128,1.1559,-2.8484,-1.146,0.3049,-0.0162,-0.0635,1382,1.8,-24.36,34.74,117.93,-85.07,-68.24,3.1,993.67,42.185,0,,,,,,,,
0.1221,8.4015,-0.1772,0.5873,9.7883,-0.1182,-0.2617,-0.6877,-1.1005,0.6085,-0.0199,0.0037,1216,6.6,-23.7,34.44,99.81,-86.37,-94.29,3.1,993.67,44.821,0,,,,,,,,
1.3192,5.933,-0.9002,0.7748,9.7566,0.6148,0.8677,-2.8468,-1.5845,-0.4184,-0.1146,0.0165,1124,4.74,-25.32,34.02,135.02,-84.87,-55.87,3.1,993.68,45.302,0,,,,,,,,
-0.0431,6.8955,0.4884,0.6536,9.7775,0.3793,-1.1133,-2.6162,0.5114,0.2066,-0.2838,-0.0092,1142,8.4,-24.96,32.28,136.39,-85.58,-59.87,3.1,993.7,46.756,0,,,,,,,,
-0.0144,6.8572,-0.5196,0.5658,9.7408,0.9838,-0.9393,-2.3137,-1.0891,0.4875,0.2458,-0.2181,1100,7.26,-27,30.66,164.25,-83.35,-29.9,3.1,993.69,48.287,0,,,,,,,,
-0.7303,7.2259,0.929,0.2781,9.7671,0.8347,-0.9797,-2.0001,-0.0422,0.2731,0.5494,-0.1692,1076,9.3,-26.4,30.78,177.9,-84.85,-18.43,3.1,993.69,55.689,0,,,,,,,,
-0.4453,7.0344,1.0415,0.4709,9.786,0.427,-1.6776,-1.4132,0.7127,-0.433,0.4902,0.1002,1104,3.84,-25.2,33,140.82,-86.28,-47.8,3.1,993.69,58.77,0,,,,,,,,
-0.2346,8.8852,1.0559,0.598,9.7824,0.3413,-0.8326,-0.8973,0.7146,-0.0659,0.3521,-0.0739,1287,3.36,-24.36,35.76,120.89,-85.55,-66.33,3.1,993.69,64.071,0,,,,,,,,
-0.0168,8.0136,2.2051,0.3102,9.7879,0.5204,0.0969,-0.5676,1.2586,-0.5876,0.3369,0.1692,1391,-2.34,-24.54,34.44,147.2,-86.46,-30.8,3.1,993.67,60.292,0,,,,,,,,
1.1804,10.2164,-0.0168,0.4458,9.7765,0.6261,1.4864,0.3154,-1.9214,-0.254,-0.2477,-0.2388,1452,0.48,-25.02,33.48,146.35,-85.5,-35.45,3.1,993.68,56.468,0,,,,,,,,
0.1844,10.1829,0.1149,0.6346,9.7494,0.8467,-0.2252,1.0225,2.1868,0.0709,-0.1634,0.099,1603,-1.74,-26.76,33.06,142.59,-83.81,-36.85,3.1,993.68,53.718,0,,,,,,,,
1.5228,10.2619,-0.3065,0.6286,9.7665,0.6255,0.717,0.6367,1.2444,0.3886,-0.6802,-0.1533,1694,-3.6,-26.28,34.38,131.01,-84.81,-45.14,3.1,993.68,51.033,0,,,,,,,,
-0.0383,12.6968,3.2538,0.3837,9.7833,0.557,0.5884,3.8785,1.6505,-0.722,0.0333,0.0391,1856,-1.08,-27.18,34.26,145.47,-86.05,-34.56,3.1,993.69,47.154,0,,,,,,,,
-0.3352,12.7328,3.1796,0.2824,9.7794,0.6733,-0.6176,2.9533,2.5062,-0.5882,-0.1176,-0.0617,1893,-2.1,-25.56,35.04,128.83,-86.99,-49.59,3.1,993.68,45.184,0,,,,,,,,
0.328,12.2395,-1.9825,0.0259,9.8065,-0.0518,0.3022,2.4331,-1.9306,-0.309,-0.1763,-0.0067,2067,-0.54,-24.54,36.78,25.07,-89.66,-153.48,3.1,993.68,44.794,0,,,,,,,,
1.2977,11.7248,-0.2346,0.1015,9.7892,0.5763,0.94,1.8805,0.9537,0.3055,-0.1732,0.0434,2285,-1.32,-26.4,31.44,168.71,-86.58,-9.99,3.1,993.7,44.201,0,,,,,,,,
0.6465,11.3201,0.4836,-0.1833,9.7947,0.447,0.8298,1.5254,0.0367,0.1772,0.145,0.0568,2533,2.16,-26.94,30.12,205.06,-87.18,22.3,3.1,993.67,41.663,0,,,,,,,,
0.1197,9.4071,-1.0487,0.3583,9.7951,0.314,-0.2577,-1.7958,-0.7689,0.5431,-0.0309,-0.0855,2661,-0.42,-26.04,31.2,132.91,-87.22,-48.77,3.1,993.68,42.779,0,,,,,,,,
0.1915,8.0328,-0.9218,0.0357,9.7866,0.6256,-0.1075,-2.4194,-1.2385,0.3697,-0.2258,-0.0373,3094,-0.24,-26.7,35.4,176.89,-86.34,-3.26,3.1,993.68,41.296,0,,,,,,,,
0.8188,8.2028,0.1963,0.3651,9.7635,0.8433,0.6117,-1.9438,-0.3573,0.5004,0.0534,-0.0605,3260,-3.72,-27.24,34.38,151.78,-84.62,-23.41,3.1,993.68,39.975,0,,,,,,,,
0.5363,6.2443,0.1508,0.557,9.7728,0.5935,-0.0207,-3.5285,-0.4427,0.1516,-0.1347,0.0904,4193,-0.72,-27.06,35.16,137.56,-85.24,-43.18,3.1,993.67,39.426,0,,,,,,,,
-0.0144,5.854,0.1628,0.0867,9.7885,0.5906,-0.5608,-3.142,0.1995,0.1296,-0.2465,0.4765,4467,-0.18,-27.3,34.92,172.01,-86.51,-8.35,3.1,993.67,39.08,0,,,,,,,,
-0.2801,8.0017,0.9074,0.1998,9.7726,0.7917,0.0851,-1.6608,0.5587,0.0697,-0.114,-0.3195,5077,1.86,-27.6,35.94,169.65,-85.22,-14.16,3.1,993.67,39.154,0,,,,,,,,
-1.0224,9.4622,-1.3121,0.4594,9.7927,0.2474,-1.9391,0.5146,1.7398,0.5584,0.3833,-0.303,4033,3.24,-26.34,36.24,124.83,-86.95,-61.69,3.1,993.66,39.387,0,,,,,,,,
0.9266,9.7447,-0.431,-0.156,9.7963,0.4223,0.1919,1.124,0.6384,-0.1985,-0.5287,0.0556,4997,1.2,-26.16,34.92,201.22,-87.37,20.27,3.1,993.67,40.878,0,,,,,,,,
-2.0591,12.4191,3.4645,-0.3559,9.7847,0.5504,-1.6003,1.3511,1.0873,0.6195,0.1133,0.0709,5043,-0.66,-27.12,34.5,198.43,-85.76,21.06,3.1,993.66,39.93,0,,,,,,,,
0.0239,11.2483,2.6888,0.1804,9.8042,0.126,-1.1141,2.9262,3.9538,0.5047,0.1597,0.11,5045,-2.7,-25.68,35.7,120.97,-88.71,-55.06,3.1,993.67,40.146,0,,,,,,,,
0.5507,12.1174,1.9322,0.2809,9.8021,-0.0995,0.2698,2.3153,2.0317,-0.5925,-0.3931,0.2053,4467,1.8,-24.42,36.06,74.8,-88.26,-109.5,3.1,993.65,40.303,0,,,,,,,,
0.8667,13.3409,0.7207,0.7324,9.7787,-0.1019,0.3115,2.6643,0.6646,0.4094,-0.0309,-0.1179,4909,0.06,-24.54,34.2,85.27,-85.68,-97.92,3.1,993.65,39.74,0,,,,,,,,
1.6616,11.8804,0.3567,0.546,9.7885,-0.2391,1.2688,-0.4532,-1.3483,-0.0952,-0.0394,-0.1038,6733,3.72,-24.9,35.04,75.29,-86.51,-113.65,3.1,993.67,40.608,0,,,,,,,,
1.0176,11.6721,-0.4046,0.5407,9.7911,0.107,-0.366,-0.0488,-0.7726,0.1241,-0.0401,-0.0202,6491,0.84,-25.8,35.28,105.12,-86.78,-78.81,3.1,993.67,40.869,0,,,,,,,,
1.9944,8.5428,-1.7311,0.6799,9.7817,-0.1611,1.3145,-1.2389,-1.5699,0.008,-0.23,0.1527,6249,2.58,-24.72,36.54,85.85,-86.18,-101.37,3.1,993.65,39.785,0,,,,,,,,
0.4238,8.0879,-0.7374,0.6152,9.7844,0.2381,-0.1914,-1.6966,-0.9756,0.1809,0.1023,-0.033,6405,-1.14,-26.16,34.92,114.01,-85.45,-67.38,3.1,993.67,38.025,0,,,,,,,,
0.5459,7.0104,-0.1101,0.5395,9.7901,0.1835,-0.3743,-2.94,0.2451,-0.0262,-0.1854,0.1692,6262,0.9,-25.56,35.58,112.56,-86.67,-71.22,3.1,993.65,38.665,0,,,,,,,,
-0.5076,7.1804,-0.8452,0.7449,9.7774,0.1308,-1.0059,-2.4869,0.6282,0.3843,0.0522,-0.1851,5964,-2.52,-25.98,36.54,98.37,-85.58,-80.04,3.1,993.66,37.856,0,,,,,,,,
0,5.8133,-0.0575,0.5135,9.7853,0.3918,-0.8487,-3.0981,-0.3702,-0.0622,-0.1189,0.1167,6554,0.78,-25.56,36,130.93,-86.22,-52.66,3.1,993.68,38.858,0,,,,,,,,
0.249,6.5436,0.7973,0.5597,9.779,0.4771,-1.3163,-0.1349,0.9499,-0.1319,0.627,0.1668,6742,-3,-26.22,37.08,128.11,-85.7,-49.55,3.1,993.67,40.415,0,,,,,,,,
-0.5243,8.0998,0.8931,0.4981,9.7584,0.8339,-0.8357,-1.3928,0.732,-0.2076,-0.0028,-0.0623,6687,-4.68,-25.62,38.28,143.8,-84.32,-30.85,3.1,993.67,38.68,0,,,,,,,,
-0.7303,9.3736,0.4238,0.5255,9.7854,0.3751,-1.2557,-0.4118,0.0487,-0.4312,0.0949,0.5571,5994,-9.72,-21.18,41.28,113.49,-86.23,-54.48,3.1,993.68,39.207,0,,,,,,,,
1.2666,9.2515,-1.0511,0.5108,9.785,0.4051,0.7558,-0.5335,-1.4561,0.1241,-0.7395,-0.1319,5776,-17.46,-17.22,35.82,104.68,-86.19,-51.59,3.1,993.68,40.506,0,,,,,,,,
-1.008,12.783,3.6201,0.4476,9.7903,0.3451,-0.9265,3.7493,3.9526,0.3519,-0.0193,-0.2639,4089,-13.56,-16.92,30.78,104.9,-86.7,-52.37,3.1,993.67,40.986,0,,,,,,,,
0.0934,11.7391,2.3224,0.4935,9.7942,0.0211,0.0667,2.9314,0.046,-0.3811,-0.1103,0.1087,3883,-11.16,-15,31.26,74.2,-87.11,-87.55,3.1,993.66,40.441,0,,,,,,,,
0.1149,14.0688,0.1868,0.3667,9.7947,-0.3143,0.3731,3.855,-1.0983,-0.039,0.1121,0.033,4074,-9.6,-13.38,32.82,33.16,-87.18,-130.6,3.1,993.66,42.114,0,,,,,,,,
1.7023,13.3744,-1.4749,0.6843,9.7823,-0.0931,0.6469,2.5243,-0.6946,-0.2125,-0.5159,0.0159,4459,-6.18,-14.52,30.72,73.18,-85.96,-97.75,3.1,993.67,41.453,0,,,,,,,,
-0.1293,13.6976,0.0838,0.3038,9.8012,-0.1173,-0.4331,3.8964,0.2011,0.2976,-0.1451,-0.1173,5312,-0.06,-17.7,31.86,103.19,-87.32,-78.27,3.1,993.69,42.472,0,,,,,,,,
0.5842,11.9833,0.7877,0.3523,9.7948,0.328,0.4498,2.4232,0.1197,0.4827,-0.2477,-0.0977,6817,0.96,-21.54,31.32,146.55,-86.56,-36.6,3.1,993.67,41.601,0,,,,,,,,
1.9394,9.2347,0.103,0.5427,9.7705,0.6424,1.3967,-0.5358,-0.5394,0.1589,-0.0113,0.1417,6703,5.52,-24.72,32.28,152.11,-85.08,-40.19,3.1,993.67,57.738,0,,,,,,,,
0.091,11.3513,0.577,0.6793,9.7398,0.9192,0.2521,-1.4652,-1.0868,0.2047,0.0522,-0.0983,7244,2.34,-26.94,32.7,149.6,-83.31,-36.47,3.1,993.68,44.372,0,,,,,,,,
0.8739,6.0001,-0.2538,0.3121,9.7998,0.1916,-0.1253,-3.2323,-0.6489,-0.2443,-0.4383,0.4911,7284,4.02,-24.72,33.96,129.44,-87.86,-58.46,3.1,993.68,44.946,0,,,,,,,,
0.4932,7.5491,-0.1461,0.7484,9.7456,0.7963,-0.0612,-2.4957,-0.1833,0.4503,0.3833,-0.1924,6989,0.36,-26.52,32.7,139.97,-83.6,-43.22,3.1,993.68,48.786,0,,,,,,,,
-0.0048,7.5899,1.7239,0.7962,9.7499,0.6901,-0.5089,-2.3133,1.2157,0.1974,0.0833,-0.0177,6417,1.8,-26.64,32.58,137.62,-83.83,-49.08,3.1,993.67,39.79,0,,,,,,,,
0.5411,6.7614,1.1445,1.1204,9.7284,0.5221,-0.5793,-2.967,0.6224,0.2169,0.1163,-0.1069,6225,-0.48,-27,33.78,119.8,-82.76,-65.01,3.1,993.67,45.383,0,,,,,,,,
-0.7901,9.0288,1.3336,0.5825,9.7893,0.0195,-1.3727,-0.7605,1.3142,-0.1691,0.4725,-0.0727,5940,3.84,-25.26,34.56,100.79,-86.59,-88.09,3.1,993.67,50.28,0,,,,,,,,
-0.8787,9.7112,-0.2514,0.4017,9.7908,-0.3862,-1.2804,-0.0796,0.1348,-0.2803,0.2532,0.1167,5468,0.3,-25.08,36.6,47.81,-86.74,-133.87,3.1,993.67,39.642,0,,,,,,,,
-0.2873,11.0089,-0.261,0.2824,9.8013,0.1555,0.9531,0.7981,-1.3934,-0.1264,-0.7853,-0.4252,5491,3.3,-26.28,35.34,124.88,-88.12,-61.15,3.1,993.66,40.979,0,,,,,,,,
0.5986,9.9147,-0.0646,0.1117,9.806,-0.0307,-0.6193,2.9699,1.5582,-0.0073,0.0381,0.3726,4191,2.82,-25.86,35.04,80.05,-89.32,-105.35,3.1,993.65,44.64,0,,,,,,,,
0.4621,10.7264,1.415,0.4797,9.7829,0.485,1.1748,0.1246,-1.311,0.1094,-0.9649,0.2334,3970,1.32,-28.14,32.58,146.07,-86.51,-37.27,3.1,993.63,40.573,0,,,,,,,,
-0.249,12.6418,3.3879,0.2333,9.8012,0.2272,-0.4823,2.8405,3.1607,-0.2388,0.2202,0.3024,3229,2.1,-26.64,33.72,138.59,-88.1,-45.76,3.1,993.64,43.178,0,,,,,,,,
0.917,13.3816,2.0878,0.3993,9.7875,0.4653,0.5177,3.5942,1.6225,-0.6878,0.0082,-0.1045,3186,2.58,-26.4,33.18,146.08,-86.42,-40.64,3.1,993.64,52.964,0,,,,,,,,
0.9074,12.9171,0.5483,0.5015,9.792,-0.1899,-0.2597,2.9504,2.2298,0.1271,0.1078,-0.3867,2844,3.48,-24.96,34.74,76.35,-86.87,-110.74,3.1,993.62,52.082,0,,,,,,,,
1.3432,12.8309,-1.7335,0.4543,9.7722,0.6837,0.6303,1.6796,-0.0325,0.2151,-0.3626,-0.3653,2673,3.36,-26.76,31.86,153.47,-85.2,-33.61,3.1,993.64,58.966,0,,,,,,,,
0.6345,11.5715,2.028,0.3855,9.7719,0.7286,0.6297,-1.1573,-0.6209,-0.116,0.2898,-0.1008,2824,5.1,-26.82,32.7,161.88,-85.18,-27.88,3.1,993.66,54.447,0,,,,,,,,
0.0407,12.3712,1.2738,0.4141,9.7491,0.9763,-0.3734,2.6221,0.2975,0.3678,-0.0468,-0.0085,2455,2.94,-28.8,30.9,166.07,-81.68,-21.18,3.1,993.66,58.435,0,,,,,,,,
1.3336,10.6952,-0.5962,0.265,9.7659,0.8524,0.7549,0.1655,-1.2019,0.6916,0.2269,-0.069,2489,3.84,-27.42,31.8,173.95,-82.69,-13.77,3.1,993.67,50.629,0,,,,,,,,
0.0383,9.4023,-0.7853,0.0976,9.7809,0.704,-0.3681,-0.4647,-1.4175,0.2731,-0.1366,0.1277,2483,2.52,-26.46,33.36,177.44,-85.84,-7.89,3.1,993.67,54.294,0,,,,,,,,
0.917,8.1453,-1.269,0.2693,9.8009,0.1992,0.0851,-2.2781,-0.3357,-0.014,-0.2508,0.0843,2364,5.7,-24.72,34.44,137.45,-88.04,-53.5,3.1,993.67,41.43,0,,,,,,,,
0.6488,8.1932,-0.6536,-0.0823,9.7694,0.8499,0.3648,-2.8643,-1.2234,0.1748,0.2758,0.1216,1909,1.2,-26.82,33.78,186.77,-85,5.53,3.1,993.66,40.926,0,,,,,,,,
-0.51,7.779,0.9505,0.1634,9.7747,0.7733,-0.6471,-2.149,0.0863,-0.2968,-0.0889,-0.0538,1984,3.6,-27.24,34.08,175.07,-85.38,-11.93,3.1,993.65,42.109,0,,,,,,,,
0.5028,5.6265,-0.8188,0.4039,9.7708,0.7338,0.3551,-3.8186,-1.3109,-0.2773,0.0106,0.2016,2780,2.58,-26.28,35.76,156.04,-87,-29.58,3.1,993.66,40.511,0,,,,,,,,
-0.17,6.5747,1.1349,0.3982,9.7741,0.6923,-0.5682,-3.1994,0.4425,0.2792,0.4114,-0.0892,3076,7.14,-26.76,34.08,162.75,-85.33,-29.9,3.1,993.65,41.129,0,,,,,,,,
-0.5986,6.8788,0.7231,0.3361,9.7827,0.5965,-1.6625,-1.6541,0.8209,-0.6035,0.1237,0.3519,3081,5.52,-26.76,34.56,161.26,-86,-29.4,3.1,993.64,41.234,0,,,,,,,,
-0.4908,9.5268,2.3057,0.4727,9.79,-0.3206,1.1817,-0.1243,-0.12,-0.3652,0.2611,-0.2902,3116,6.3,-23.76,36.3,67.39,-86.66,-124.14,3.1,993.63,41.51,0,,,,,,,,
-0.589,9.6824,0.0599,0.6881,9.7823,0.0564,-0.4821,-0.3632,0.9421,-0.254,0.3588,-0.0788,4478,4.44,-25.08,36.12,103.7,-85.96,-85.32,3.1,993.63,40.514,0,,,,,,,,
0.2275,8.8181,0.929,0.085,9.806,0.0712,0.1281,0.6306,-0.5549,-0.8771,-0.1769,0.3183,3947,2.22,-23.58,36.48,45.7,-89.13,-137.9,3.1,993.63,43.019,0,,,,,,,,
0.917,8.3943,-0.2682,0.7687,9.7655,0.463,0.1483,-1.3712,-0.7312,0.005,-0.2545,-0.1271,3170,1.74,-25.68,35.82,127.15,-84.75,-58.94,3.1,993.63,40.49,0,,,,,,,,
2.5379,10.1493,-1.3073,0.6103,9.7832,-0.2931,1.9277,0.3661,-1.0142,-0.193,-0.9655,-0.0085,2920,1.08,-22.8,36.36,68.34,-86.04,-115.65,3.1,993.63,40.037,0,,,,,,,,
0.2107,13.1182,1.5946,0.2867,9.7946,-0.3929,-0.076,3.3237,1.9875,-0.3322,0.1909,0.3213,2346,4.08,-20.82,36.84,43.43,-87.16,-143.88,3.1,993.63,38.109,0,,,,,,,,
-0.407,12.728,4.7574,0.6877,9.781,0.17,0.4688,4.2758,-1.597,-0.3725,-0.1561,-0.058,2396,2.7,-23.76,33.78,111.59,-85.86,-76.11,3.1,993.62,39.765,0,,,,,,,,
0.7039,13.372,-1.0822,0.5621,9.7886,-0.1915,-0.9811,4.2083,2.071,0.1522,0.4132,0.1717,2135,1.8,-22.5,35.1,76.6,-86.53,-108.81,3.1,993.62,39.776,0,,,,,,,,
1.6233,14.2699,-1.609,0.5567,9.7895,0.1627,1.0666,4.4804,-1.7717,0.3947,-0.0688,-0.212,2455,-3.48,-24.72,34.14,103.64,-86.61,-73.71,3.1,993.62,40.024,0,,,,,,,,
1.0702,12.8453,0.2107,0.4882,9.7841,-0.4504,0.582,3.0612,0.6611,-0.2363,-0.103,0.259,2087,-2.76,-22.26,35.04,44.17,-86.12,-132.69,3.1,993.61,39.637,0,,,,,,,,
0.8404,13.5612,-0.0263,0.5268,9.7925,-0.0038,1.0629,2.7487,0.0613,0.3012,-0.4744,-0.245,2709,-1.38,-25.26,34.32,90.17,-86.92,-90.41,3.1,993.62,38.116,0,,,,,,,,
0.5483,12.3688,-0.8069,0.432,9.7966,-0.1004,0.4276,0.075,-0.2947,0.603,0.2104,-0.2944,2452,2.88,-24.78,33.3,84.07,-87.41,-103.08,3.1,993.62,37.614,0,,,,,,,,
1.5132,11.0137,0.8548,0.6286,9.7719,0.5333,0.4536,0.047,-0.3465,-0.0665,0.0259,0.0507,1624,-2.76,-27.6,31.92,128.16,-85.18,-49.69,3.1,993.61,38.878,0,,,,,,,,
0.8859,7.6713,-1.3623,0.6478,9.7787,0.3572,-0.983,-2.4067,-0.7571,0.118,-0.3748,0.1686,1467,0,-27.72,32.88,121.92,-85.67,-61.13,3.1,993.61,37.969,0,,,,,,,,
1.7215,8.9235,-0.747,0.7075,9.7382,0.9145,0.923,-2.2585,-1.9943,-0.0909,0.3081,-0.0134,1406,-5.52,-28.2,31.98,135.54,-83.23,-37.73,3.1,993.6,39.831,0,,,,,,,,
0.0886,5.8037,-0.8619,0.6618,9.7842,-0.0352,-0.5732,-3.9805,-0.8268,0.0428,-0.0846,0.1008,1569,-3.66,-26.7,34.62,83.41,-86.12,-93.04,3.1,993.6,39.506,0,,,,,,,,
1.166,5.7965,-0.4525,0.4947,9.7907,0.2586,0.5157,-4.0445,-0.3328,-0.3121,-0.0211,0.0568,1817,-5.64,-27.72,34.26,110.05,-86.74,-62.4,3.1,993.61,38.846,0,,,,,,,,
-0.2562,6.5196,1.0415,0.5829,9.78,0.4273,-0.3985,-2.2093,0.133,-0.2693,-0.2667,0.0049,1582,-2.64,-28.26,33.18,123.95,-85.77,-53.75,3.1,993.61,41.703,0,,,,,,,,
-1.8101,8.21,1.9178,0.353,9.8002,-0.0418,-1.7871,-0.0076,-0.4491,-0.2797,0.729,0.0189,1636,-4.5,-26.82,36.48,78.44,-87.92,-96.75,3.1,993.59,40.897,0,,,,,,,,
-0.9386,9.2467,1.3839,0.0829,9.7836,0.6669,-0.545,-0.2735,1.6101,-0.0842,0.277,-0.3427,1850,-2.64,-29.46,34.2,168.51,-86.07,-7.08,3.1,993.59,39.572,0,,,,,,,,
-0.9649,9.4454,0.0862,0.1274,9.7786,0.7295,-1.3964,-1.1449,-0.5715,-0.3774,0.1004,-0.0208,2501,-2.76,-29.64,34.5,161.63,-84.67,-14.83,3.1,993.62,39.888,0,,,,,,,,
1.3264,8.9594,0.3472,0.0699,9.7039,1.4139,1.2566,-0.7446,-1.0667,-0.0146,-0.1891,-0.1222,2916,-2.28,-32.52,32.28,174.37,-81.7,-2.83,3.1,993.59,39.215,0,,,,,,,,
-0.6512,11.5117,3.0288,-0.288,9.6905,1.4771,-0.2866,2.9489,1.0656,-0.2834,0.018,-0.0079,2767,-1.14,-31.44,32.7,188.21,-81.17,11.03,3.1,993.59,42.051,0,,,,,,,,
-0.2418,10.7048,4.1493,-0.2367,9.737,1.1428,0.4546,1.9519,2.4223,-0.7104,-0.2141,0.0196,2465,0.12,-29.64,33.6,190.66,-83.17,11.7,3.1,993.62,40.482,0,,,,,,,,
0.0742,12.9075,1.2785,-0.5937,9.7013,1.3045,-0.4646,3.3283,0.5224,-0.014,0.1139,0.0422,1853,2.16,-29.46,33.48,205.06,-81.6,24.47,3.1,993.61,40.933,0,,,,,,,,
0.1125,10.6785,1.7071,-0.2598,9.71,1.3489,0.3724,0.9685,0.3582,0.3959,-0.1262,-0.1081,1380,1.5,-28.8,32.28,192.97,-81.95,10.9,3.1,993.6,42.267,0,,,,,,,,
-0.9481,11.8421,3.7111,-0.1641,9.4085,2.7611,-0.6811,2.8071,0.9644,0.402,0.3228,0.2804,1986,7.74,-33.6,26.7,192.89,-71.88,0.58,3.1,993.61,42.675,0,,,,,,,,
0.1676,10.7407,3.783,0.1555,9.3616,2.9166,0.0121,1.3791,0.8664,0.2829,0.1683,0.1051,1804,1.02,-34.62,27.66,179.24,-72.67,-3.05,3.1,993.6,43.451,0,,,,,,,,
0.9793,10.1781,2.7319,0.2776,9.3721,2.8735,0.4144,-0.0823,-1.2598,0.0942,-0.1317,0.1753,1731,3.06,-34.92,27.48,180.62,-72.88,-5.52,3.1,993.6,43.952,0,,,,,,,,
1.5156,7.5156,1.0343,0.3727,9.455,2.5757,0.652,-3.3257,-2.5278,-0.1111,-0.0205,-0.0024,1690,2.64,-34.68,28.2,178.36,-74.61,-8.23,3.1,993.6,45.302,0,,,,,,,,
-0.0886,6.3975,0.9002,0.3048,9.6079,1.9404,-0.6735,-2.6286,-1.4807,0.1626,-0.1408,0.1185,1642,9.36,-32.34,29.22,186.98,-78.45,-8.93,3.1,993.59,51.754,0,,,,,,,,
0.6081,6.7973,-0.2251,0.5033,9.599,1.9435,-0.441,-2.3228,-1.5747,-0.0744,-0.2386,0.0843,1858,11.1,-31.8,28.86,185.26,-78.19,-14.52,3.1,993.6,55.166,0,,,,,,,,
-1.3384,7.9394,0.6225,0.0709,9.6653,1.6572,-1.4117,-1.1968,0.0404,0.2133,-0.1683,0.0568,1953,18.3,-30.9,27.54,206.56,-80.26,-2.45,3.1,993.61,56.64,0,,,,,,,,
-0.0982,8.1429,1.5539,0.5069,9.7602,0.8069,-0.605,-1.6173,0.747,-1.0476,0.0662,0.5437,2131,19.38,-27.48,29.52,180.2,-84.42,-32.13,3.1,993.59,55.243,0,,,,,,,,
1.9394,8.7678,2.6409,0.6807,9.7487,0.8179,2.2067,-0.7343,-0.4205,-0.9064,-0.2404,0.0153,2698,22.44,-28.56,25.14,181.45,-83.77,-39.77,3.1,993.59,53.818,0,,,,,,,,
0.079,10.6282,3.3161,0.5402,9.6904,1.4053,-0.5522,1.8979,3.3139,0.0783,0.0559,-0.1533,3145,25.8,-29.16,22.32,205.74,-81.17,-21.03,3.1,993.61,51.94,0,,,,,,,,
0.182,11.526,2.9258,0.3263,9.7842,0.5763,-0.4676,2.0626,2.9194,-0.7513,-0.8372,-0.0452,2914,27.9,-26.82,23.4,200.13,-86.13,-29.52,3.1,993.61,49.047,0,,,,,,,,
-0.1197,12.9243,4.3648,0.873,9.7089,1.0701,-0.9927,3.2154,3.2946,-1.5271,-0.1555,0.4172,3293,28.56,-28.8,20.04,194.66,-81.9,-39.21,3.1,993.64,47.081,0,,,,,,,,
0.4669,12.2539,3.3951,0.6155,9.7348,1.0122,0.5673,2.5718,1.5592,0.3849,0.1377,-0.3696,3827,30.12,-28.56,17.1,206.71,-83.06,-31.3,3.1,993.62,46.211,0,,,,,,,,
0.3998,12.1845,-0.5746,0.3618,9.786,0.5237,-1.7074,2.8175,2.2584,0.1528,-0.1415,0.201,5345,33.72,-26.34,15.54,208.96,-86.28,-34.64,3.1,993.63,45.203,0,,,,,,,,
-0.4094,12.1102,1.7478,0.4285,9.7254,1.1844,-0.5722,1.7982,1.253,0.245,-0.0767,-0.0305,5440,31.38,-28.2,15.3,220.61,-82.62,-19.89,3.1,993.62,43.746,0,,,,,,,,
0.7566,11.0927,1.5946,0.5003,9.7633,0.7725,0.6178,0.1777,-0.7055,0.0783,0.0595,0.2321,6488,29.52,-27.54,18.6,203.15,-84.61,-32.93,3.1,993.62,43.316,0,,,,,,,,
0.747,11.0424,-0.3017,0.4239,9.6481,1.7042,-0.4789,-1.0359,-0.4184,0.7026,0.2281,-0.1991,6777,27.78,-30.36,18.96,216.83,-79.68,-13.97,3.1,993.62,44.232,0,,,,,,,,
0.2131,7.882,-0.4238,0.0955,9.7686,0.8571,0.1176,-1.8867,-1.2809,0.7398,0.5671,-0.1655,7693,25.92,-27.96,23.82,216.81,-82.77,-7.26,3.1,993.64,44.85,0,,,,,,,,
0.8236,8.0232,0.2203,-0.0325,9.7146,1.3401,0.9615,-1.4232,-0.5643,-0.0494,0.0748,-0.033,6927,20.04,-30.18,27.9,212.24,-81.8,0.26,3.1,993.62,42.749,0,,,,,,,,
0.7686,6.4334,-0.0814,0.2932,9.7062,1.3688,-0.1256,-3.3374,-0.5882,0.2854,-0.5263,0.1283,8129,24.96,-29.04,23.58,210.82,-81.79,-12.09,3.1,993.62,42.507,0,,,,,,,,
-0.0144,6.9554,-0.51,0.2357,9.6856,1.5181,-0.6571,-2.5722,-1.9515,0.0465,0.2367,0.2413,9426,24.96,-30.3,21.42,216.55,-80.99,-8.83,3.1,993.63,42.626,0,,,,,,,,
-0.4956,6.7686,2.1046,0.4503,9.6967,1.3934,-1.1734,-2.3343,-0.8739,-0.1258,0.3882,0.3568,9273,21.06,-31.92,25.38,199.52,-81.41,-17.91,3.1,993.64,42.603,0,,,,,,,,
-1.099,7.6114,1.6951,0.6128,9.6963,1.3331,-1.7046,-0.7417,-0.1024,-0.3157,0.638,0.0586,7810,15.36,-31.62,28.5,182.34,-81.4,-24.69,3.1,993.64,42.161,0,,,,,,,,
0.9745,8.8492,0.3831,0.6905,9.7009,1.2594,0.2839,-0.8517,-0.8763,-0.1007,-0.2471,-0.237,6762,14.46,-31.08,29.22,177.48,-81.42,-28.63,3.1,993.63,42.98,0,,,,,,,,
-0.0527,9.5148,2.7845,0.6791,9.6253,1.7503,-0.308,0.4762,-0.5196,-0.6071,0.4321,0.1429,6706,14.46,-31.56,28.5,183.89,-78.96,-21.21,3.1,993.63,43.477,0,,,,,,,,
3.6321,8.9929,-1.0511,0.7795,9.7462,0.7577,1.191,0.1733,0.8943,0.096,-0.8116,0.0922,6113,13.92,-29.88,31.02,160.27,-83.64,-45.81,3.1,993.62,45.692,0,,,,,,,,
0.3759,13.0584,3.4358,0.5362,9.7738,0.5965,0.479,4.101,1.6757,-0.0054,-0.2019,-0.1032,4907,18.72,-27.78,30.12,170.95,-85.31,-41.95,3.1,993.61,44.923,0,,,,,,,,
1.3528,13.2284,1.9298,0.9753,9.7461,0.483,1.9649,1.6651,-1.2611,-0.3603,-1.343,-0.27,5785,33.06,-26.82,12.36,185.9,-83.63,-63.65,3.1,993.63,48.6,0,,,,,,,,
1.7981,11.5332,0.3639,0.7023,9.7509,0.7726,-0.1133,2.9867,0.9776,-0.0476,-0.4524,-0.0739,3176,36.66,-24.18,-3.9,230.99,-83.89,-42.27,3.1,993.63,49.341,0,,,,,,,,
2.186,10.9586,0.0215,0.5273,9.7389,1.0229,0.1838,2.6371,0.5669,0.2505,-0.0052,-0.4612,3247,36.66,-22.26,-7.08,250.74,-82.95,-26.2,3.1,993.63,52.465,0,,,,,,,,
1.4007,9.1868,2.1405,0.5039,9.6871,1.4409,0.8968,-0.5003,0.6996,-0.149,0.1774,-0.2187,3274,35.94,-19.44,-10.5,261.8,-81.05,-19.27,3.1,993.61,51.943,0,,,,,,,,
0.1676,7.9538,0.7422,-0.3731,9.7064,1.3475,-0.9055,-0.8261,-1.7306,-0.6004,-0.1274,0.8778,3181,37.86,-16.92,-7.14,292.35,-81.8,15.47,3.1,993.65,45.791,0,,,,,,,,
-0.3184,6.6752,-0.6943,0.0296,9.6949,1.4755,-0.7695,-3.1227,-0.2928,-0.1392,-0.2789,0.1484,3085,34.14,-20.82,-5.58,273.51,-81.34,-1.15,3.1,993.64,45.705,0,,,,,,,,
-0.6704,10.7527,2.8372,0.0529,9.4259,2.7056,-0.9005,1.9733,2.3918,-0.6578,-0.0651,0.1668,7186,35.94,-27.24,2.82,252.97,-73.98,-1.12,3.1,993.62,49.687,0,,,,,,,,
-1.8196,10.9466,6.3688,0.3597,9.4212,2.6983,-1.4371,1.681,4.3959,-0.0231,0.3668,-0.0941,7841,32.46,-30.84,9,235.18,-73.88,-7.59,3.1,993.65,50.013,0,,,,,,,,
-0.0455,13.111,3.431,0.5973,9.6322,1.7419,0.9063,2.3943,-1.5624,-0.1789,-0.2758,-0.0085,5902,27.96,-30.18,17.7,213.43,-79.18,-18.93,3.1,993.64,48.458,0,,,,,,,,
1.6497,12.8932,1.0918,0.8598,9.6756,1.3465,0.4882,1.8959,1.4093,0.5028,0.4596,-0.1576,3207,18.9,-30.18,26.04,183.16,-80.62,-32.56,3.1,993.64,48.315,0,,,,,,,,
2.1189,12.0169,2.0136,0.6755,9.7163,1.1433,1.4435,2.3006,0.8703,-0.1416,0.2049,0.3213,2903,10.92,-30.6,32.94,169.07,-82.22,-30.57,3.1,993.63,47.02,0,,,,,,,,
1.2331,11.1358,1.2187,0.529,9.7696,0.6672,0.7041,1.3662,0.5514,-0.3041,-0.1421,0.1686,2812,5.52,-28.38,37.8,152.17,-85.02,-38.41,3.1,993.62,47.165,0,,,,,,,,
1.1205,9.9578,0.3927,0.3779,9.7559,0.9216,0.7426,0.2019,-0.529,0.4033,0.1041,-0.2278,2642,9.06,-31.14,34.14,173.11,-84.17,-22.29,3.1,993.62,47.431,0,,,,,,,,
0.9793,9.0288,1.8388,0.3603,9.6838,1.5049,0.753,-1.1793,-0.9039,-0.0903,0.1365,0.1802,2453,7.5,-33.3,31.56,180.5,-80.92,-13.47,3.1,993.61,54.287,0,,,,,,,,
1.0726,6.8333,0.4669,0.3552,9.7236,1.2227,-0.767,-3.0005,-0.1213,0.0569,0.1634,0.3763,2379,7.68,-31.26,31.38,178.45,-82.54,-16.2,3.1,993.61,51.972,0,,,,,,,,
0.9026,7.4558,0.1269,0.4002,9.6756,1.5471,0.6557,-1.6021,-1.2597,0.0587,-0.0388,0.1283,2358,4.86,-31.8,30.84,177.95,-80.35,-11.53,3.1,993.61,47.76,0,,,,,,,,
0.0527,6.4047,1.008,0.0981,9.7508,1.04,0.139,-3.3605,-0.6258,-0.05,0.1176,0.1411,1980,7.8,-30,32.88,194.97,-85.53,2.32,3.1,993.6,49.241,0,,,,,,,,
0.1868,6.2802,2.0567,-0.1452,9.6543,1.7155,0.3319,-3.3742,0.3412,-1.3072,-0.4041,0.7257,1676,7.62,-31.74,31.98,196.36,-79.89,4.84,3.1,993.61,44.282,0,,,,,,,,
1.1325,9.443,2.5547,0.1881,9.6401,1.7898,0.9443,-0.1971,0.7649,-0.3835,0.2324,-0.2028,1336,11.64,-33.18,28.38,194.57,-79.43,-6,3.1,993.62,43.263,0,,,,,,,,
-1.1014,10.7072,5.3344,0.1586,9.7327,1.1914,-1.26,0.9745,4.143,0.8211,0.4786,0.1344,1232,10.2,-32.1,30,189.72,-82.96,-7.58,3.1,993.63,43.639,0,,,,,,,,
0.1197,11.8086,1.7454,0.5907,9.57,2.0581,-0.6482,2.5139,2.424,0.9885,-0.4652,-0.4471,1377,11.1,-32.64,28.56,183.94,-77.39,-16.01,3.1,993.62,43.653,0,,,,,,,,
1.087,12.2539,2.0854,0.2473,9.6915,1.4779,0.9044,0.2208,-1.0733,0.3092,-0.0401,0.047,1696,19.02,-29.34,25.92,203.73,-81.21,-9.5,3.1,993.62,43.585,0,,,,,,,,
0.0311,10.5635,0.4836,0.6765,9.6866,1.3719,-0.6454,0.8769,-0.8883,0.1009,-0.5055,-0.0464,1926,21.84,-29.76,22.38,196,-80.48,-26.69,3.1,993.63,43.395,0,,,,,,,,
0.6943,7.0296,0.7494,0.8625,9.728,0.8904,-0.7308,-3.0072,0.132,-0.1642,-0.4561,0.1619,1604,29.94,-26.82,12.96,200.53,-82.74,-44.09,3.1,993.62,43.961,0,,,,,,,,
0.2322,7.2714,1.3408,0.3401,9.4905,2.4465,-0.5939,-2.3627,-0.5095,-0.3218,-0.387,0.1185,1340,30.9,-27.06,6.42,240.82,-75.41,-7.91,3.1,993.62,43.172,0,,,,,,,,
0.2586,7.9274,2.6792,0.3838,9.425,2.6818,-0.0654,-0.8798,0.2345,-0.4287,-0.1036,-0.2578,1219,31.62,-26.22,4.74,242.24,-73.96,-8.15,3.1,993.62,42.623,0,,,,,,,,
0.1006,10.8748,6.6345,1.0615,9.1395,3.3932,-0.6737,2.6308,0.7345,-0.3035,0.0626,0.0342,924,28.98,-22.8,4.14,232.99,-68.74,-17.37,3.1,993.64,44.432,0,,,,,,,,
1.1732,11.7846,7.6329,0.9943,9.2474,3.1092,-0.0271,2.2116,1.5621,1.0227,-0.3363,-0.4032,296,31.2,-21.24,2.46,236.22,-68.22,-19.42,3.1,993.63,41.804,0,,,,,,,,
1.2618,12.534,3.091,1.1282,9.5672,1.8344,0.7082,2.9404,-0.4026,-0.5619,0.3863,0.1772,173,30.36,-18.84,0.6,230.91,-77.31,-31.59,3.1,993.61,42.094,0,,,,,,,,
-0.2155,13.2834,1.6568,0.7193,9.6943,1.2932,-0.6642,3.2922,0.2535,0.5578,0.0571,-0.515,125,28.62,-22.32,2.1,232.09,-81.32,-29.08,3.1,993.61,41.066,0,,,,,,,,
-1.2331,13.4319,4.7311,0.4373,9.5226,2.3021,0.2355,0.5645,0.1999,-0.039,0.0901,-0.3671,94,30.96,-22.02,-2.7,255.52,-76.18,-10.76,3.1,993.61,41.499,0,,,,,,,,
1.5682,11.2148,2.2267,1.1605,9.3758,2.63,0.1803,1.1829,-0.8894,0.5334,0.1395,-0.1313,106,29.7,-25.62,-1.44,236.65,-72.95,-23.81,3.1,993.61,43.646,0,,,,,,,,
1.0846,9.6106,1.3216,0.7536,9.4058,2.6706,-0.0616,-0.5183,-1.8302,0.5425,0.0656,-0.2456,86,32.82,-22.32,-2.4,248.12,-73.56,-15.76,3.1,993.6,42.776,0,,,,,,,,
0.8811,7.8676,0.8787,0.7307,9.4819,2.3937,0.1504,-1.6143,-1.515,-0.028,0.1597,0.1405,69,32.58,-19.5,-0.3,245.83,-75.21,-16.97,3.1,993.59,42.51,0,,,,,,,,
0.6034,6.9195,1.7167,0.6391,9.4691,2.4693,-0.0358,-2.5497,-0.7527,0.4998,-0.1066,-0.1863,56,33.06,-16.14,0.3,248.35,-74.53,-15.25,3.1,993.59,41.023,0,,,,,,,,
0.5435,7.3145,0.1844,0.5547,9.4966,2.3827,-0.0112,-2.1821,-2.1984,0.1412,0.2336,-0.0373,65,30.3,-17.88,5.28,240.65,-75.55,-13.1,3.1,993.58,41.667,0,,,,,,,,
-1.348,7.9274,1.9753,0.3657,9.4381,2.6379,-0.8781,-2.0422,-1.3426,0.1174,0.4334,-0.3366,64,29.76,-20.64,6,241.96,-74.24,-7.89,3.1,993.59,41.173,0,,,,,,,,
-0.68,8.2531,3.5076,0.3128,9.3144,3.0518,1.0998,-2.8595,-0.0039,-0.8362,-0.2642,-0.4832,67,27.78,-23.4,6.36,240.24,-71.77,-5.85,3.1,993.57,42.564,0,,,,,,,,
0.6656,6.5316,3.7375,0.5095,9.2008,3.3549,0.3118,-2.0419,0.6914,-0.2999,-0.1121,0.0593,69,28.98,-23.82,2.4,243.34,-69.76,-8.63,3.1,993.55,42.731,0,,,,,,,,
-0.3544,6.6728,1.6497,0.4928,9.3094,3.0434,-0.239,-2.706,-1.4034,0.2047,0.007,-0.0153,55,31.14,-23.76,0.42,248.18,-71.68,-9.2,3.1,993.58,41.654,0,,,,,,,,
-0.5315,10.2044,7.8843,0.3896,8.0183,5.6325,-0.2771,1.439,1.3468,1.2261,0.1814,-0.2028,4385,12.54,-38.82,12.96,199.66,-54.85,-3.96,8,996.31,58.58,0,,,,,,,,
0.8979,10.0464,2.423,0.4135,9.1095,3.6079,0.4867,-0.1716,-0.0141,0.8529,0.0885,-0.2853,3073,15.72,-33.9,21.96,201.16,-68.27,-6.54,8,996.31,59.649,0,,,,,,,,
0.4597,7.7,0.4118,0.3023,9.3907,2.8097,0.1072,-2.2773,-1.8687,0.2805,-0.1576,0.0165,2907,14.52,-33.06,25.68,198.72,-73.25,-6.14,8,996.31,55.581,0,,,,,,,,
0.3711,4.3312,-0.577,0.1879,9.6153,1.9186,0.1833,-5.284,-2.4956,0.363,0.0189,0.1032,2761,18.84,-30.3,26.7,205.54,-78.66,-5.59,8,996.28,52.233,0,,,,,,,,
-0.5579,7.8389,-0.5243,-0.2196,9.5263,2.3176,-0.3382,-1.6875,-2.8419,-0.3731,0.182,0.193,3732,14.82,-30.54,27.96,207.99,-76.27,5.41,8,996.28,53.169,0,,,,,,,,
0.1125,9.1509,4.2163,0.0268,9.5585,2.1918,0.0858,-0.4076,2.0245,0.1663,-0.3873,0.0434,3183,16.68,-30.72,28.14,205.82,-77.08,-0.7,8,996.31,54.365,0,,,,,,,,
2.2386,13.4965,1.3408,0.2134,9.6223,1.8803,-0.0338,3.4744,1.0384,-0.2033,0.3408,0.2034,2907,15.78,-30.42,28.86,199.41,-78.87,-6.47,8,996.29,52.131,0,,,,,,,,
1.8244,11.5189,1.8723,0.0658,9.6974,1.4583,0.2215,2.3985,-0.9077,-0.2491,-0.3916,0.4184,4195,12.36,-29.04,30.72,196.62,-81.44,-2.58,8,996.3,54.434,0,,,,,,,,
1.5802,11.2675,2.5906,0.4496,9.3338,2.9747,1.1306,1.9337,-0.3841,-0.56,0.3958,-0.0031,4018,12.84,-34.2,25.74,193.71,-72.13,-8.6,8,996.31,53.564,0,,,,,,,,
0.601,7.8269,3.9051,0.3083,8.7582,4.4011,0.137,-0.3566,0.2916,-0.2674,-0.0758,-0.0929,4051,15.12,-36.12,19.44,202.65,-64.29,-3.09,8,996.32,52.327,0,,,,,,,,
0.6297,6.3137,2.8348,0.4213,8.921,4.0508,0.2084,-2.6073,-1.216,-0.039,-0.1558,0.0098,3373,14.94,-35.64,19.38,201.11,-65.46,-5.94,8,996.32,56.294,0,,,,,,,,
-0.2945,6.4382,3.2849,0.4329,9.1304,3.5523,-0.9549,-2.5437,0.9537,-0.6156,0.4465,0.1588,4076,12.9,-35.34,22.44,196.51,-68.6,-6.95,8,996.32,58.117,0,,,,,,,,
0.9577,8.3824,3.6058,0.4721,9.1684,3.4478,1.3045,-0.075,-1.4533,-0.207,-0.6579,-0.1387,4514,15.24,-35.1,21.24,199.58,-69.22,-7.8,8,996.33,57.012,0,,,,,,,,
-0.3855,9.1988,2.9186,0.366,9.2177,3.3273,-1.2087,-0.0069,4.2961,0.7564,-0.2132,-0.1069,4401,13.98,-35.04,23.16,198.1,-70.04,-6.28,8,996.32,51.203,0,,,,,,,,
0.4956,9.6681,5.7606,0.2031,9.1828,3.4358,-0.1744,1.3807,1.9441,-0.356,-0.2994,-0.1167,5008,13.44,-34.98,23.28,198.61,-69.45,-3.38,8,996.33,50.76,0,,,,,,,,
1.1828,11.2315,3.273,0.0914,9.0055,3.881,0.4856,1.6346,1.6761,-0.075,0.0708,0.2505,6448,16.74,-35.46,20.88,206.22,-66.68,-1.35,8,996.34,51.967,0,,,,,,,,
0.4382,10.8437,4.257,0.3046,8.8647,4.1826,0.5598,0.9446,1.037,-0.2943,-0.402,-6.00E-04,6795,14.52,-36.6,19.38,201.81,-64.68,-4.16,8,996.34,52.528,0,,,,,,,,
0.6824,10.1996,5.8851,0.0898,8.6348,4.6478,0.1281,2.2639,2.5877,0.0191,0.5919,0.047,9785,17.22,-36.42,17.88,206.78,-62.68,-1.31,8,996.33,52.119,0,,,,,,,,
-1.0104,8.5476,3.5363,0.2737,8.5706,4.7582,-1.2841,-0.023,-1.2218,0.4442,0.2987,-0.2926,12333,15,-38.22,16.86,202.35,-60.92,-3.29,8,996.35,51.342,0,,,,,,,,
1.688,5.0974,2.8755,0.817,8.3506,5.0764,0.871,-3.2532,-2.2009,-0.5692,0.1496,0.4276,10170,15.96,-38.88,15,200.85,-58.38,-9.14,8,996.37,51.219,0,,,,,,,,
-0.352,6.3736,3.7542,0.3783,7.6179,6.164,-1.3097,-2.2691,2.6661,-0.4391,0.8759,-0.047,26167,14.82,-39.84,9.3,203.68,-50.97,-3.51,8,996.37,54.208,0,,,,,,,,
0.2753,5.5834,8.2531,0.2481,7.2124,6.64,0.0273,-1.629,1.6131,-0.5283,0.791,0.1491,42162,14.34,-39.66,7.56,202.31,-47.35,-2.14,8,996.38,52.265,0,,,,,,,,
-0.4405,6.5268,8.131,0.1942,7.1675,6.6902,-0.6348,-0.6408,1.4408,0.2591,-0.3049,-0.1625,44704,14.34,-40.68,8.1,201.96,-46.96,-1.66,8,996.38,51.404,0,,,,,,,,
0.486,7.9538,9.5891,0.429,7.2232,6.619,0.0571,0.7306,2.9701,-0.4452,-0.0465,-0.1069,44785,14.94,-40.56,7.86,202.83,-47.44,-3.71,8,996.39,51.051,0,,,,,,,,
0.5507,7.6689,8.3488,0.1397,7.467,6.3556,0.411,0.2018,1.9932,-0.1141,0.2541,0.4197,40574,17.76,-38.4,9.24,209.25,-49.59,-1.26,8,996.38,53.072,0,,,,,,,,
0.8188,8.4255,6.6513,0.229,7.0804,6.7813,0.0081,0.7872,0.344,0.1143,0.1228,-0.0641,48198,14.28,-40.44,7.92,202.1,-46.22,-1.93,8,996.36,56.16,0,,,,,,,,
0.6034,6.7016,5.921,-0.0189,7.3023,6.5457,0.493,-0.7971,-1.5297,-0.1031,0.0042,0,54204,16.68,-38.94,7.86,208.05,-48.13,0.17,8,996.35,61.722,0,,,,,,,,
0.0646,6.4454,3.3759,-0.0022,7.1842,6.6752,0.0668,-0.7388,-3.2993,0.1412,0.2889,-0.0147,50759,15.06,-40.2,7.68,204.39,-47.1,0.02,8,996.35,66.558,0,,,,,,,,
-0.5842,5.1621,5.5523,-0.2854,7.389,6.4414,-0.2988,-2.227,-0.889,0.1418,0.0085,0.0147,58180,16.32,-39.72,9.18,206.4,-48.94,1.6,8,996.34,70.014,0,,,,,,,,
-1.0894,6.9697,6.0743,-0.1717,7.3658,6.472,-0.9225,-0.42,1.3166,0.2988,-0.1155,-0.0409,46617,13.98,-39.84,9.72,202.97,-48.69,1.52,8,996.34,52.207,0,,,,,,,,
0.4094,6.9075,6.8692,0.1012,7.4361,6.3926,0.696,0.1083,-1.2784,0.4289,-0.5663,-0.5492,50005,15.66,-40.38,9.18,205.64,-48.55,-0.2,8,996.34,52.513,0,,,,,,,,
1.3695,9.0839,7.7982,0.1685,7.249,6.6026,1.1436,1.4901,0.7981,-0.4641,-0.1815,-0.1765,53545,14.76,-39.84,9.06,203.55,-47.66,-1.46,8,996.35,53.055,0,,,,,,,,
-0.3951,9.7519,7.6042,-0.0469,7.432,6.3979,-0.9371,2.1858,2.3484,0.3147,-0.0849,-0.3512,48585,16.32,-39.6,9.36,206.08,-49.28,0.42,8,996.37,59.874,0,,,,,,,,
0.4477,8.0735,7.2762,-0.1616,7.5327,6.2771,-0.0084,0.7994,-0.0305,-0.0878,0.2449,0.3665,47312,18.06,-38.82,9.78,209.47,-50.19,1.48,8,996.39,56.491,0,,,,,,,,
0.4166,5.8684,4.8029,-0.0605,7.3632,6.4769,0.9918,-2.2778,-2.6508,-0.2149,0.1844,0.1796,46468,15.66,-40.32,9.36,205.94,-48.66,0.53,8,996.38,63.064,0,,,,,,,,
-0.6584,5.3177,3.4358,-0.4317,7.6167,6.162,-0.2267,-2.299,-2.7262,0.0227,-0.019,0.0305,47875,17.94,-38.64,11.4,210.25,-50.96,4.01,8,996.38,65.14,0,,,,,,,,
-1.2666,6.3113,3.7638,-0.2302,8.007,5.6573,-1.0364,-1.6957,-1.8935,-0.5503,0.2724,0.4551,36333,16.5,-38.88,13.26,208.75,-54.54,3.45,8,996.39,61.138,0,,,,,,,,
0.6105,8.2531,3.2802,-0.1929,8.0679,5.5716,0.8035,0.1852,-2.2914,0.1394,-0.5394,-0.4148,27552.998,15.24,-39.18,13.74,204.96,-55.36,1.98,8,996.38,62.308,0,,,,,,,,
-1.6928,8.6577,9.8093,-0.3585,7.833,5.8894,0.0927,2.1391,1.8273,-0.1104,0.1484,-0.0751,34047,15.96,-38.52,12,207.37,-53.01,3.48,8,996.36,66.764,0,,,,,,,,
0.3998,8.933,7.0847,-0.2349,7.9025,5.8022,0.108,0.9395,3.1069,-0.5252,-0.3678,-0.157,31388.998,15.72,-39.18,13.2,207.03,-53.52,3.46,8,996.37,53.73,0,,,,,,,,
-0.6656,9.2299,8.6625,-0.4357,7.9289,5.7543,-0.6417,1.7032,2.6089,0.1669,0.2388,0.1051,28952,16.8,-38.34,13.5,208.7,-54.11,3.8,8,996.37,54.567,0,,,,,,,,
-0.3759,8.3895,6.5938,-0.4359,7.7024,6.0542,0.06,0.6872,0.5396,-0.1056,-0.1576,0.1008,29792.998,17.4,-38.52,12.84,208.2,-51.76,4.12,8,996.38,50.43,0,,,,,,,,
0.0263,7.0966,3.1197,-0.4043,7.8382,5.8796,0.6509,-1.5939,-2.8652,0.1962,0.127,-0.0941,25756,19.5,-37.68,11.94,213.57,-53.06,3.93,8,996.41,60.941,0,,,,,,,,
-0.4262,6.3113,2.4254,-0.3286,7.7477,6.0029,-0.5548,-1.8937,-1.5903,0.1522,-0.1387,0.0299,26704,18.96,-37.92,11.1,212.14,-52.19,3.13,8,996.41,61.815,0,,,,,,,,
-1.1708,6.5962,6.1365,-0.4221,7.8603,5.8487,-0.7535,-1.4485,-1.3714,0.2836,0.1228,-0.0702,25176,21.18,-37.08,11.04,215.63,-53.63,2.7,8,996.41,57.723,0,,,,,,,,
-1.913,7.0871,8.4925,-0.6608,7.8892,5.7875,-0.4358,-0.6537,-0.2615,0.4094,-0.2987,0.0202,22733,19.02,-38.88,12.48,212.46,-53.15,5.41,8,996.42,57.653,0,,,,,,,,
0.2346,6.5699,5.5427,-0.7381,7.9405,5.7073,-0.2101,-1.1073,1.8394,-0.0988,-0.3543,0.1118,24490,16.44,-39.06,14.64,208.14,-54.07,7.37,8,996.38,69.529,0,,,,,,,,
-0.316,8.9043,7.0966,-0.7488,8.0225,5.5901,-0.3262,1.1285,2.7539,0.0905,-0.3788,0.529,21525,16.86,-39.24,15.42,209.91,-54.89,7.63,8,996.35,72.197,0,,,,,,,,
0.7207,9.8093,7.1709,-0.5289,8.0746,5.5401,0.2727,1.5983,0.8,0.0221,-0.4606,0.0672,16920,17.52,-38.1,14.1,211.32,-55.42,5.45,8,996.34,50.656,0,,,,,,,,
0.7255,8.8899,4.8747,-0.2599,8.396,5.0606,0.9854,0.4939,-0.1858,0.0117,0.1331,0.0525,14292,21.78,-36.96,15.84,215.6,-58.89,2.94,8,996.37,61.407,0,,,,,,,,
0.3663,7.2403,2.6074,0.0089,8.4782,4.9286,0.3574,-1.2379,-2.3212,-0.1831,0.0623,0.0305,14450,18.12,-36.66,15.3,209.64,-59.83,-0.1,8,996.38,55.203,0,,,,,,,,
-0.3807,5.8325,3.6728,0.1805,8.4207,5.0229,-0.5612,-2.5883,-1.35,0.0545,-0.1332,-0.0171,15064,22.32,-36.12,13.38,215.27,-59.45,-2.44,8,996.39,64.202,0,,,,,,,,
-0.2275,5.5715,5.3344,0.4016,8.4528,4.9556,-0.7918,-2.0865,-0.6938,-0.3578,0.3439,0.2462,16787,19.86,-37.26,14.22,210.3,-59.54,-4.63,8,996.39,54.471,0,,,,,,,,
1.2091,7.4582,2.6361,0.3137,8.353,5.1283,0.905,-1.4455,-0.8449,0.3636,-0.7141,-0.2297,15752,20.1,-37.86,14.28,210.18,-58.4,-3.5,8,996.4,66.938,0,,,,,,,,
0.1125,10.6593,2.9162,-0.1605,8.5781,4.7498,1.02,0.5178,0.7067,0.2842,-0.1161,-0.1588,13701,18.9,-36.96,17.28,211.26,-61.01,1.94,8,996.41,57.972,0,,,,,,,,
-1.5204,12.2084,4.1684,-0.4243,8.6057,4.6832,-1.0961,3.6027,-0.5148,0.3068,-0.201,-0.1949,14276,20.22,-36.9,16.2,212.71,-58.85,2.32,8,996.46,65.638,0,,,,,,,,
0.261,10.1541,5.9043,-0.1203,8.6416,4.6344,0.3813,1.5125,1.2699,-0.1502,0.4764,-0.0617,11156,19.14,-37.02,18.84,209.97,-61.79,1.49,8,996.47,52.924,0,,,,,,,,
-0.7997,8.6792,5.1166,-0.0658,8.3328,5.1701,-0.3724,-0.2809,-0.3743,0.0496,0.0568,-0.0073,11469,14.88,-39.3,18,203.1,-58.18,0.73,8,996.48,50.195,0,,,,,,,,
0.498,6.1796,3.5818,-0.0325,8.3168,5.1961,0.1714,-2.7046,-0.5704,-0.3065,-0.6219,0.0318,11202,17.76,-37.74,15.9,208.3,-58,0.36,8,996.46,53.143,0,,,,,,,,
-0.5507,5.5906,5.2626,-0.5419,8.5745,4.728,-1.6776,-0.6974,-0.0855,-0.2363,0.5852,0.4056,14893,17.1,-37.5,19.44,210.18,-60.97,6.54,8,996.48,57.88,0,,,,,,,,
-0.419,8.4302,4.0798,-0.4151,8.6328,4.6338,-0.0039,-0.2026,-0.554,-0.2827,0.2681,-0.1924,12876,18.84,-37.74,19.26,211.85,-61.68,5.12,8,996.46,51.578,0,,,,,,,,
-0.6129,9.048,6.4382,-0.0074,8.5254,4.8464,1.3003,0.4315,-2.1983,-0.4397,0.6133,-0.1295,13456,18.06,-37.92,17.88,210,-60.72,3.84,8,996.46,55.896,0,,,,,,,,
-0.1461,11.0185,5.0088,-0.2167,8.4792,4.922,0.5351,1.979,0.0629,0.5865,-0.1949,-0.4276,15109,19.14,-37.5,17.76,210.62,-59.84,2.52,8,996.47,51.688,0,,,,,,,,
-1.0008,11.3537,6.1796,-0.5105,8.4913,4.8792,0.137,2.247,1.5494,0.319,0.3836,-0.1649,13646,21.42,-36.78,16.5,215.93,-59.98,5.97,8,996.47,52.119,0,,,,,,,,
-0.6129,8.7463,5.3632,-0.2326,8.5394,4.8161,0.0722,-0.3821,-0.425,-0.4733,-0.0275,-0.0812,12071,20.34,-36.12,17.46,213.31,-60.55,2.77,8,996.46,50.663,0,,,,,,,,
-0.1844,6.3568,3.249,-0.1888,8.3539,5.1329,-0.1967,-1.863,-2.516,-0.2332,-0.1039,0.1118,12791,24.06,-35.94,14.34,219.21,-58.41,2.11,8,996.44,52.089,0,,,,,,,,
-1.3983,6.7255,5.957,-0.1461,8.5467,4.8066,-1.2714,-1.1938,0.3363,-0.2699,0.6548,0.2107,11726,21.06,-36.06,16.32,214.68,-60.64,1.74,8,996.45,51.126,0,,,,,,,,
0.6919,7.5611,4.1158,-0.0584,8.7107,4.5046,1.1263,-0.8981,-1.4207,-0.196,-0.3323,-0.0678,9020,21.84,-36,16.68,215.3,-62.65,0.74,8,996.43,53.75,0,,,,,,,,
0.1868,9.7902,6.5651,-0.1679,8.5583,4.7851,0.3547,1.2319,1.78,-0.2815,0.2327,-0.0177,8657,20.28,-36.48,16.74,212.92,-60.77,2.01,8,996.4,67.864,0,,,,,,,,
-0.0431,10.2619,5.0136,-0.0912,8.4972,4.8949,-0.177,1.5396,1.2584,0.6708,-0.1393,-0.2144,8901,18.96,-37.08,15.72,211.07,-60.05,1.07,8,996.4,64.42,0,,,,,,,,
-0.1077,9.0073,5.6744,-0.3805,8.4991,4.8776,-0.175,0.2711,-1.0731,-0.155,0.5821,0.361,7067,20.58,-36,14.46,217.56,-60.07,4.46,8,996.44,57.749,0,,,,,,,,
-0.1389,7.6234,4.1708,-0.3343,8.4063,5.039,-0.293,0.6033,-0.284,0.096,0.1502,-0.2492,8270,16.32,-37.26,16.14,207.41,-59.49,2.21,8,996.42,50.43,0,,,,,,,,
-1.1636,6.4071,2.0256,-0.5712,8.6381,4.6073,-0.6259,-2.492,-2.5626,0.3104,-0.0232,-0.0751,7674,22.26,-35.04,14.88,219.25,-60.14,5.47,8,996.42,51.738,0,,,,,,,,
-1.1564,6.8548,5.4039,-0.2364,8.7408,4.4399,-1.0398,-1.1294,-0.3409,-0.5704,0.3036,0.3757,6211,19.98,-35.28,15.78,215.53,-63.04,3.05,8,996.42,51.037,0,,,,,,,,
-0.316,8.9354,5.0519,-0.036,8.6497,4.6208,-0.3111,0.2451,2.6482,0.4277,-0.2713,-0.2688,6124,18.18,-36.48,15.72,210.35,-61.89,0.45,8,996.41,50.423,0,,,,,,,,
1.6042,9.8141,4.9561,-0.0457,8.6075,4.6988,0.1032,1.8579,1.2797,-0.287,-0.1747,0.3012,6442,16.14,-36.96,16.26,207.05,-61.37,0.56,8,996.42,51.386,0,,,,,,,,
0.5124,10.0296,5.2291,-0.3099,8.4496,4.9677,0.8223,1.58,0.2614,0.3495,-0.2584,-0.3476,5471,14.34,-37.2,16.38,205.22,-59.5,3.57,8,996.43,50.829,0,,,,,,,,
-0.7662,9.036,4.7191,-0.4682,8.6423,4.611,-0.2979,0.3937,0.1081,-0.163,0.2443,0.3818,4590,19.44,-35.22,16.68,214.72,-61.8,5.8,8,996.43,50.499,0,,,,,,,,
0.2179,7.3648,3.7231,-0.0863,8.4664,4.9481,0.3042,-1.1016,-1.225,-0.0451,0.5546,-0.0354,3856,14.94,-38.1,15.66,205,-59.69,1,8,996.44,47.796,0,,,,,,,,
-1.1277,6.9218,4.4486,-0.2171,8.695,4.5298,-0.9106,-1.7732,-0.0813,0.3764,0.1716,-0.1032,3659,18.54,-35.88,16.38,213.34,-62.46,2.74,8,996.44,48.417,0,,,,,,,,
0.4932,7.6066,2.1141,-0.3579,8.8018,4.3093,-0.0922,-0.6134,0.2948,0.0673,-0.0605,0.2627,3160,16.2,-36.54,18.78,208.61,-63.84,4.75,8,996.44,47.828,0,,,,,,,,
0.5076,9.3712,6.2227,-0.272,8.6761,4.5631,0.8849,1.3033,0.3978,-0.2198,-0.4728,0.0696,2623,14.58,-38.04,18.84,205.54,-62.22,3.41,8,996.44,50.692,0,,,,,,,,
-0.486,10.5611,7.4246,-0.2391,8.6302,4.6511,-0.2469,1.931,2.7735,-0.2308,0.1918,0.245,2260,16.74,-36.48,17.34,209.72,-61.65,2.94,8,996.45,47.632,0,,,,,,,,
-0.486,9.1916,6.1724,0.0393,8.3835,5.0878,-0.2524,0.8704,1.7622,-0.2436,0.1215,0.1142,2064,12.48,-38.64,16.2,199.15,-59.84,-1.15,8,996.44,48.237,0,,,,,,,,
0.3256,5.7319,2.7031,0.0696,8.6294,4.6582,0.256,-2.8975,-1.9551,-0.3377,-0.1008,0.3641,1597,16.2,-35.88,17.7,205.38,-61.64,-0.86,8,996.46,47.346,0,,,,,,,,
-0.7829,6.8883,5.4685,0.2051,8.5087,4.8714,-0.0207,-0.4783,-4.0597,0.2255,0.2871,0.1564,1641,9.96,-37.74,18.78,194.43,-60.19,-2.41,8,996.44,47.75,0,,,,,,,,
-0.8332,7.3672,9.048,0.0691,8.2808,5.253,-0.0116,1.4352,0.6656,-0.2424,-0.1515,-0.1613,1664,11.76,-38.22,16.2,199.12,-57.61,-0.75,8,996.45,48.12,0,,,,,,,,
-1.0032,9.5579,7.1517,-0.1422,7.9799,5.6983,-0.861,1.578,1.4534,0.2884,0.2675,-0.1258,2531,13.02,-39.3,14.28,201.55,-54.46,1.43,8,996.44,47.358,0,,,,,,,,
-0.34,7.8173,5.2099,0.1256,7.9049,5.8023,-0.5542,-0.0636,-1.2389,-0.1276,-0.0562,0.0079,4111,8.4,-40.08,13.68,192.37,-53.71,-1.24,8,996.41,48.893,0,,,,,,,,
0.0623,5.7032,4.7359,0.0982,7.8774,5.8401,-0.0359,-2.1743,-1.1042,0.2286,0.1942,0.1106,5612,7.44,-40.14,12.42,191.45,-53.44,-0.96,8,996.42,48.589,0,,,,,,,,
-0.2897,7.2858,4.6904,-0.01,7.4002,6.4348,-0.2797,-0.1145,-1.7444,0.5597,0.3249,0.2553,7184,1.2,-42.06,10.08,181.66,-48.99,0.09,8,996.42,47.614,0,,,,,,,,
0.0072,7.0009,9.431,0.4568,6.9535,6.9,-0.2485,0.5286,0.9723,-0.1056,-0.19,-0.1045,11983,-0.78,-41.76,7.62,177.52,-45.16,-3.79,8,996.47,47.806,0,,,,,,,,
0.17,8.5883,6.7159,0.357,7.2401,6.6048,-0.187,1.3482,0.1111,0.1877,0.1563,-0.0098,10664,5.04,-41.28,9.12,187.45,-47.59,-3.09,8,996.44,47.412,0,,,,,,,,
0.158,7.87,6.6585,-0.2424,7.3298,6.5104,0.4004,0.5401,0.1481,-0.1404,-0.2755,0.0562,10309,0.3,-41.76,10.14,180.6,-48.37,2.13,8,996.46,48.343,0,,,,,,,,
1.3767,6.4191,4.0966,-0.0064,7.4838,6.3374,1.3831,-1.0648,-2.2408,0.2597,0.2058,-0.1051,9061,1.86,-41.16,12.9,183.16,-49.74,0.06,8,996.45,47.622,0,,,,,,,,
-0.4477,6.8117,6.7638,0.6648,7.6041,6.1568,-1.1126,-0.7924,0.607,-0.3621,0.1539,0.033,6742,0.48,-40.86,13.44,177.77,-50.84,-6.16,8,996.44,47.928,0,,,,,,,,
-0.7805,6.364,9.6394,0.4438,7.4562,6.3544,-1.0854,-0.4841,4.0966,0.1901,0.3695,0.0079,10341,0.3,-42.06,12.84,178.6,-49.49,-3.99,8,996.44,58.165,0,,,,,,,,
0.3735,7.8149,7.621,0.3948,7.0204,6.8359,-0.0213,0.7946,0.7851,0.1791,0.3164,0.5822,11462,-7.8,-40.56,10.5,166.59,-45.72,-3.31,8,996.4,63.087,0,,,,,,,,
1.8939,6.7016,6.9123,0.94,7.0862,6.7136,0.9539,-0.3846,0.1987,-0.0946,-0.697,-0.7208,11048,-15.72,-38.22,10.56,151.9,-46.27,-7.97,8,996.37,69.779,0,,,,,,,,
1.0439,6.7088,7.2858,1.1022,6.819,6.9611,-0.0583,-0.1102,0.3247,-0.2833,-1.2938,-1.2651,13623,9.78,-40.38,8.58,193.23,-44.05,-9,8,996.36,70.717,0,,,,,,,,
1.1876,7.9418,7.2666,1.1779,6.1752,7.5266,0.3305,1.4793,0.1063,0.038,-0.7373,-1.0458,18921,28.14,-30.9,-7.38,232.01,-39.03,-8.89,8,996.29,67.218,0,,,,,,,,
-0.1939,6.5507,5.5954,0.9776,6.5903,7.196,-1.1883,-0.2551,-0.9852,-0.1905,-0.179,-0.292,19496,31.26,-24.24,-14.88,252.08,-42.22,-7.74,8,996.32,52.576,0,,,,,,,,
2.2626,6.0312,5.526,0.5859,7.0994,6.7398,1.6767,-1.0682,-1.2138,0.3666,-0.7025,-0.4074,19525,33.48,-20.4,-15.78,262.8,-46.38,-4.97,8,996.29,52.099,0,,,,,,,,
1.3767,8.775,7.712,0.6321,7.391,6.4144,0.668,2.246,0.4883,0.1174,-0.0068,-0.1448,18360,33.24,-18.96,-17.82,267.62,-48.96,-5.7,8,996.3,56.619,0,,,,,,,,
1.2307,8.1357,7.4366,0.5036,7.131,6.7131,0.7271,1.0048,0.7235,0.0215,-0.2358,-0.0745,18531,34.2,-18.84,-16.86,265.83,-46.65,-4.29,8,996.3,57.279,0,,,,,,,,
1.008,6.9578,5.1836,0.3444,7.2725,6.5698,0.9748,-0.9253,-1.9967,-0.1783,0.0232,-0.0941,18528,35.16,-15.66,-19.26,273.15,-47.87,-3,8,996.32,59.464,0,,,,,,,,
0.3974,5.1645,2.4685,0.6197,7.1413,6.6924,-1.2973,-1.8858,-1.5591,0.2915,-0.052,-0.0269,17919,34.14,-14.7,-20.7,274.26,-46.74,-5.29,8,996.33,52.054,0,,,,,,,,
-1.0583,6.9937,6.1461,0.1824,7.4736,6.3469,0.9884,-0.6858,-2.6357,-0.1367,-0.3183,-0.4514,18325,34.86,-13.2,-21.24,280.84,-49.65,-1.65,8,996.3,51.223,0,,,,,,,,
-0.6345,6.6992,6.4334,0.4856,7.1013,6.7458,-1.1201,-0.4021,-0.3124,0.9964,0.0739,-0.0568,17859,34.32,-13.62,-20.82,276.03,-46.4,-4.12,8,996.4,47.884,0,,,,,,,,
0.8069,8.0208,12.3928,0.604,6.7116,7.1246,0.2028,1.3092,5.2682,-0.5332,-0.0068,0.022,17222,35.7,-14.4,-20.16,272.06,-43.19,-4.85,8,996.35,49.959,0,,,,,,,,
0.4717,7.6162,8.8157,0.4678,6.9622,6.8905,0.0039,0.654,1.9252,-0.1746,0.2999,0.427,19981,34.38,-13.32,-22.02,277.71,-45.23,-3.88,8,996.44,47.498,0,,,,,,,,
0.7686,8.605,7.676,0.3978,6.3296,7.4799,0.9311,0.8724,0.4763,0.578,0.0562,-0.0147,19965,35.04,-16.68,-18.78,266.91,-40.2,-3.04,8,996.38,47.447,0,,,,,,,,
0.8428,6.5771,5.5044,0.2778,6.2349,7.5643,0.3806,-1.2596,-3.5132,0.0954,0.2089,-0.1558,16310,35.88,-15.12,-18.9,269.46,-39.48,-2.1,8,996.35,47.966,0,,,,,,,,
0.1556,4.6401,3.4502,0.2576,5.9122,7.8198,-0.339,-2.3519,-2.6841,0.2738,-0.2945,-0.0244,17782,36.18,-14.58,-19.44,268.07,-37.08,-1.89,8,996.38,47.069,0,,,,,,,,
-0.182,4.7909,5.8037,0.3089,6.1519,7.6308,-0.0839,-1.7967,-2.7752,0.0704,-0.1815,-0.025,16854,36.66,-12.78,-20.22,272.23,-38.85,-2.32,8,996.36,48.069,0,,,,,,,,
-0.2035,4.4797,7.4725,0.2028,6.2102,7.587,-0.131,-1.7879,0.6517,-0.0561,0.0549,-0.0513,15754,36.78,-13.44,-18.48,271.08,-39.29,-1.53,8,996.38,48.21,0,,,,,,,,
0.3232,5.9785,8.9091,0.4963,5.5868,8.0444,-0.173,0.3917,0.8647,1.0679,-0.5962,-1.1997,16578,36,-6.66,-25.38,280.88,-34.73,-3.53,8,996.37,48.375,0,,,,,,,,
-0.0431,5.8779,14.4854,0.5006,5.8059,7.8874,0.7109,2.0377,0.4351,-0.6059,0.0055,0.2346,17870,34.08,-3,-27.66,289.79,-36.3,-3.63,8,996.36,47.706,0,,,,,,,,
1.2929,6.6585,8.9737,0.6312,5.4184,8.1494,0.0823,0.8354,2.6105,0.6305,-0.2163,-0.0305,16543,33.72,-4.56,-28.2,285.21,-33.54,-4.43,8,996.35,47.585,0,,,,,,,,
1.0319,7.3528,7.6449,0.4494,6.117,7.6518,0.5825,1.2358,-0.0069,-0.2772,0.2364,0.3311,13773,34.14,-5.88,-26.88,286.42,-37.96,-3.67,8,996.32,50.902,0,,,,,,,,
0.4765,6.0048,6.874,0.9539,5.6766,7.9396,-0.4774,0.3283,-1.0656,-0.3426,0.3256,0.0458,14274,33.6,-7.74,-26.52,280.19,-35.37,-6.85,8,996.41,59.199,0,,,,,,,,
-0.1341,5.0854,5.4901,0.8483,6.1612,7.5822,-1.3487,-0.6975,-1.7186,0.3764,-0.0489,-0.1466,13519,32.1,-5.16,-29.34,288.88,-38.92,-6.38,8,996.41,48.339,0,,,,,,,,
0.51,5.423,6.51,0.7837,5.9668,7.743,-0.2713,-1.9396,6.1127,0.6061,-0.4356,0.047,13226,33.24,-4.74,-28.26,287.09,-37.48,-5.78,8,996.38,50.074,0,,,,,,,,
2.5284,7.1972,8.6769,0.8781,5.9649,7.7343,1.8035,1.0982,1.1652,0.2249,-0.5217,-0.2639,14828,33.54,-6.78,-28.62,284.58,-37.46,-6.48,8,996.39,49.339,0,,,,,,,,
1.8987,6.2371,7.7982,0.6284,5.4926,8.0998,0.5017,1.1372,1.2738,0.0979,0.2205,0.0226,14808,33,-3.3,-28.44,289.42,-34.59,-3.58,8,996.38,50.093,0,,,,,,,,
0.9098,4.6281,6.9434,0.825,5.5606,8.0355,0.0848,-0.9324,-1.0921,0.1925,0.2193,-0.3244,16553,33,-3.66,-29.16,287.71,-35.3,-5.93,8,996.38,47.63,0,,,,,,,,
1.2953,5.8636,4.7167,0.6331,5.9915,7.7376,0.9184,-0.5015,-3.6027,0.2341,0.419,-0.5553,15100,31.38,-0.96,-31.5,296.33,-37.66,-4.68,8,996.37,49.685,0,,,,,,,,
1.439,7.5635,8.8492,0.6963,6.0496,7.6869,0.7427,1.5139,1.1624,0.2164,0.1826,0.1491,14145,32.46,-2.16,-29.88,293.56,-38.09,-5.18,8,996.38,48.941,0,,,,,,,,
1.7598,5.8468,8.6314,0.8631,6.2304,7.5238,1.2702,-0.4889,1.2608,0.2579,-1.0342,-1.2523,12306,27.48,2.64,-35.1,306.08,-39.44,-6.54,8,996.38,52.301,0,,,,,,,,
0.486,5.763,8.277,1.1552,6.2459,7.4716,-0.6692,-0.4828,0.8054,-0.0616,-1.5785,-1.7581,9169,-10.68,9.9,-41.4,7.59,-39.56,-8.79,8,996.38,48.045,0,,,,,,,,
0.826,6.1054,7.3385,1.2589,6.5114,7.2241,-0.4329,-0.406,0.1144,-0.2412,-0.785,-0.8686,8461,-35.28,-4.68,-26.16,60.1,-41.6,-9.89,8,996.36,48.225,0,,,,,,,,
0.0287,7.0894,7.1565,0.3618,6.1949,7.5936,-0.3331,0.8945,-0.4371,-0.1312,0.0061,-0.6078,8673,-38.58,-14.28,-17.46,88.43,-39.18,-2.73,8,996.37,48.904,0,,,,,,,,
0.1437,6.0001,5.751,0.4332,6.3847,7.4309,0.5604,-1.4836,-1.2489,0.5749,-0.2487,-0.7837,8123,-38.04,-21.54,-11.82,101.33,-40.62,-3.34,8,996.35,49.556,0,,,,,,,,
0.2658,8.6601,8.435,0.2034,6.1732,7.6171,0.2515,1.7399,1.5194,0.5065,-0.0122,-0.2663,8205,-36.66,-22.38,-11.1,104.59,-39.01,-1.53,8,996.39,47.979,0,,,,,,,,
-0.1844,7.9921,6.1461,0.035,6.9635,6.905,-0.2817,1.4644,-0.2728,0.1638,0.0018,-0.1747,7151,-37.02,-24.18,-9.72,104.75,-44.6,-0.8,8,996.35,47.981,0,,,,,,,,
0.1245,6.8979,4.7071,-0.0645,6.7533,7.1105,0.414,0.2092,-1.5534,-0.0756,0.1466,0.1045,6723,-35.64,-25.44,-9.12,108.5,-42.7,-0.6,8,996.37,48.428,0,,,,,,,,
0.1125,5.708,4.9849,0.0545,7.0489,6.8176,0.0581,-1.341,-1.8327,-0.1734,-0.0593,0.1179,7040,-36.9,-22.5,-10.44,102.07,-45.95,-0.46,8,996.39,48.553,0,,,,,,,,
0.0623,6.6561,7.2954,0.285,7.2199,6.6304,0.5003,-0.2932,-1.3367,0.3275,-0.1167,-0.1961,7208,-37.02,-23.04,-9.48,102,-47.41,-2.46,8,996.38,48.195,0,,,,,,,,
0.3065,9.8788,5.5667,0.0812,7.7275,6.0374,0.2253,2.1513,-0.4707,0.2463,0.2578,0.1717,6691,-37.62,-22.56,-9.6,98.83,-52,-0.77,8,996.37,48.751,0,,,,,,,,
0.3807,9.8477,5.4302,-0.1659,8.9499,4.0053,0.5466,0.8978,1.425,0.9354,0.3567,0.3598,5361,-37.74,-21.42,-12.54,87.27,-65.87,2.37,8,996.33,49.355,0,,,,,,,,
-0.0838,9.0001,2.684,-0.5398,9.2075,3.3317,0.456,-0.2074,-0.6478,-0.0402,0.4349,0.2156,2524,-36.78,-22.02,-14.34,90.23,-69.87,9.2,8,996.37,48.311,0,,,,,,,,
-0.2299,7.5108,2.3799,-0.6425,9.0669,3.6808,0.4127,-1.5561,-1.3009,-0.3438,0.5204,0.27,3019,-33.72,-19.2,-23.22,77.5,-67.6,9.9,8,996.39,50.698,0,,,,,,,,
-1.5395,6.6226,3.9577,-0.2827,8.9601,3.9757,-1.853,-0.8938,2.3356,-0.0793,0.6994,-0.1307,4138,-32.46,-15.42,-25.2,66.55,-66.02,4.07,8,996.41,60.276,0,,,,,,,,
0.1868,7.8484,0.0479,-0.3128,8.9067,4.0919,0.4996,-1.0582,-4.044,-0.3359,-0.0538,0.4679,5349,-30.6,-13.86,-28.62,61.13,-65.26,4.37,8,996.42,52.989,0,,,,,,,,
0.3663,8.5308,7.9849,0.4386,8.0386,5.5999,-0.0722,0.4922,2.385,-0.3255,0.0995,0.1136,7256,-32.4,-5.64,-29.1,53.03,-55.06,-4.48,8,996.45,57.191,0,,,,,,,,
0.1197,8.3345,8.854,0.3054,7.9462,5.7389,-0.0109,0.3859,2.9188,-0.042,0.1899,0.1008,7535,-31.44,-5.04,-30.36,52.32,-54.12,-3.05,8,996.45,49.835,0,,,,,,,,
0.9386,8.6457,5.5188,0.496,7.7683,5.9646,0.4162,0.0442,-0.714,0.0276,-0.0232,0.0122,7776,-31.62,-3.66,-30.42,51.56,-52.39,-4.75,8,996.45,47.273,0,,,,,,,,
0.7494,6.4645,2.8731,0.3501,7.913,5.782,0.5645,-2.3439,-1.7093,0.4283,0.1551,-0.2205,7720,-33.12,-6.72,-29.1,56.26,-53.79,-3.46,8,996.46,50.159,0,,,,,,,,
0.8883,5.6218,4.0152,0.3073,7.7705,5.9745,0.4421,-2.2565,-2.5866,0.0184,0.0061,-0.0165,7280,-31.74,-6.36,-29.7,54.89,-52.41,-2.94,8,996.49,49.674,0,,,,,,,,
-0.8404,6.4861,6.2203,0.1375,7.8678,5.8523,-1.2341,-0.5844,0.6985,-0.185,0.328,-0.2437,6446,-32.04,-9.06,-27.3,61.7,-53.35,-1.35,8,996.47,47.906,0,,,,,,,,
-0.3472,7.0176,6.6465,0.3629,7.6572,6.116,-1.0022,0.7299,1.9264,0.0441,-0.0544,0.0782,6534,-32.94,-7.8,-28.02,59.6,-51.34,-3.4,8,996.47,47.876,0,,,,,,,,
1.0678,8.7104,9.5148,0.4109,7.9781,5.6879,1.0424,1.6589,1.483,-0.5991,-0.0281,0.0874,6442,-32.64,-7.86,-28.08,57.08,-54.44,-4.13,8,996.48,48.102,0,,,,,,,,
0.5052,8.368,8.0807,0.2677,7.8241,5.9062,0.2375,0.5439,2.1745,0.1858,-0.1265,-0.0049,6726,-32.94,-8.7,-26.82,61.43,-52.92,-2.6,8,996.48,48.086,0,,,,,,,,
0.486,8.459,5.9689,0.1269,7.5455,6.2625,0.3591,0.9135,-0.2936,0.1198,-0.0868,0.2987,7692,-31.02,-5.28,-29.88,56.17,-50.3,-1.16,8,996.48,47.861,0,,,,,,,,
0.1077,7.3265,3.328,0.2082,7.6859,6.0871,-0.0047,-1.0418,-2.5173,0.2817,0.229,0.0733,7055,-30.48,-5.22,-30.24,53.8,-51.6,-1.96,8,996.5,47.201,0,,,,,,,,
0.6321,5.1261,4.3719,0.1171,7.3067,6.5398,-0.1578,-1.7567,-2.9676,-0.1624,0.1111,0.2156,7057,-27.54,-0.84,-34.32,47.57,-48.17,-1.03,8,996.53,50.581,0,,,,,,,,
-1.2809,6.2682,5.368,-0.0286,7.5754,6.2276,-0.8093,-1.9512,-1.5899,-0.1868,-0.11,0.2327,6484,-26.22,-0.96,-35.1,43.62,-50.28,-1.01,8,996.51,57.102,0,,,,,,,,
-0.431,6.9626,7.4582,0.3375,7.4388,6.3813,-0.8523,0.4169,0.6028,-0.177,0.3066,0.5284,6504,-22.62,2.22,-37.68,34.06,-49.34,-3.03,8,996.46,50.838,0,,,,,,,,
0.6345,7.1062,8.7104,0.3063,7.2797,6.5638,-0.6965,0.1282,7.1147,-0.3566,-0.5547,0.3115,7407,-21.12,4.26,-39.54,30.03,-47.93,-2.67,8,996.44,51.105,0,,,,,,,,
0.6345,9.6561,5.8205,0.2453,7.7684,5.9802,0.4706,1.3059,2.0742,0.3031,0.0458,0.0159,6883,-18.54,0.6,-39.6,27.81,-52.39,-2.35,8,996.45,52.05,0,,,,,,,,
0.2682,9.4741,6.6274,0.1463,8.1584,5.4397,0.0836,1.5983,2.0304,0.1528,-0.0636,0.0886,7540,-14.64,0.3,-41.28,23.36,-55.66,-0.47,8,996.42,49.199,0,,,,,,,,
1.0056,8.6002,5.7678,-0.0795,8.3699,5.1097,0.4554,0.2831,0.4115,0.005,0.0617,0.2798,5958,-15.06,-4.02,-41.52,25,-58.59,0.89,8,996.41,55.118,0,,,,,,,,
0.0072,7.5755,3.6201,-0.2891,8.7066,4.5035,0.7872,-1.8542,-1.2066,0.0783,0.1258,-0.0672,5321,-10.56,-6,-42,22,-62.6,3.67,8,996.39,59.65,0,,,,,,,,
-1.336,7.3504,3.5411,-0.3214,8.7221,4.4713,-0.9044,-1.1681,-0.3436,-0.1245,0.1942,-0.0904,4008,-14.1,-6.72,-40.32,28.2,-62.8,4.11,8,996.33,66.444,0,,,,,,,,
-1.2187,7.9753,4.9394,-0.024,8.8442,4.2368,-0.9936,-0.2487,1.6172,-0.0017,0.3665,-0.1185,3215,-13.2,-6.84,-39.9,21.85,-64.4,0.32,8,996.33,70.348,0,,,,,,,,
0.8045,9.4502,3.1772,-0.0134,9.0263,3.8334,0.8179,0.4239,-0.6562,-0.0494,-0.0184,-0.193,2451,-15.18,-9.84,-38.7,25.36,-66.99,0.2,8,996.27,54.596,0,,,,,,,,
-0.3711,10.8724,6.6513,0.1427,9.0088,3.8719,-0.5138,1.8636,2.7794,-0.8325,0.0055,0.2101,2383,-15.24,-8.4,-40.14,21.64,-66.73,-2.11,8,996.26,59.636,0,,,,,,,,
0.6249,11.6074,5.3392,0.0729,8.7629,4.4018,-0.3099,1.9658,1.9837,0.1076,-0.2902,0.0843,2675,-15,-6.3,-39.18,23.91,-63.33,-0.95,8,996.29,59.957,0,,,,,,,,
0.8236,10.0847,4.4869,0.0351,8.7612,4.4057,0.8388,0.2389,0.2177,0.0264,-0.2303,0.2608,2423,-16.5,-6.06,-39.9,25.31,-63.3,-0.46,8,996.3,48.606,0,,,,,,,,
-0.0862,8.7319,5.1381,-0.1891,8.6233,4.6662,0.1029,0.1086,0.4719,0.0869,0.138,0.2144,2295,-14.34,-4.02,-40.62,24.96,-61.56,2.32,8,996.32,50.767,0,,,,,,,,
0.2466,6.2084,2.1189,-0.2521,8.6726,4.5708,0.2809,-2.7755,-2.2005,0.0423,-0.0391,0.0898,2276,-17.16,-6.36,-40.38,31.18,-62.17,3.16,8,996.32,51.938,0,,,,,,,,
-0.3687,6.2634,2.7965,-0.2429,8.7106,4.4985,-1.6989,-1.049,0.1488,-0.4599,-0.0257,0.2511,2077,-15.66,-5.7,-40.68,28.98,-62.65,3.09,8,996.33,49.841,0,,,,,,,,
0.3783,7.7167,4.1924,-0.387,8.7039,4.5015,0.818,-0.5825,-1.9564,0.3514,-0.2694,-0.2407,1897,-16.92,-6.6,-39.54,33.42,-62.57,4.91,8,996.34,58.307,0,,,,,,,,
-1.0726,10.7072,7.4127,-0.5467,8.6246,4.6354,-1.1819,1.1033,4.7286,-0.4556,-0.1167,0.0556,2284,-16.26,-7.92,-39.72,35.05,-63.16,7.39,8,996.32,53.528,0,,,,,,,,
0.0144,10.8149,5.9713,-0.3114,8.6687,4.5746,0.3258,2.1462,1.3968,-0.1202,-0.2725,0.1973,2738,-18.06,-6.6,-39.9,33.77,-62.12,3.89,8,996.34,53.959,0,,,,,,,,
-0.4142,10.2331,6.4669,-0.2046,8.9248,4.059,0.8463,1.0425,0.2291,-0.0488,-0.1589,0.0495,2225,-17.94,-9.66,-39.06,33.19,-65.52,2.89,8,996.31,52.58,0,,,,,,,,
-0.0982,9.0144,1.9585,-0.1729,9.1057,3.6369,0.1993,-0.4552,-1.7214,0.4552,0.2553,0.0275,1437,-17.76,-10.32,-39.54,31.38,-68.21,2.72,8,996.31,52.209,0,,,,,,,,
0.4262,7.9394,2.241,-0.0385,9.0263,3.8333,0.4647,-1.0869,-1.5922,0.6947,0.7257,-0.3134,1449,-19.5,-9.36,-39.48,31.06,-66.99,0.58,8,996.34,52.338,0,,,,,,,,
-0.7853,6.5029,2.7941,0.1896,8.8447,4.2315,0.0857,-3.053,-2.4382,0.0056,-0.1778,0.2902,1780,-18.06,-7.26,-40.68,23.54,-64.68,-3.76,8,996.34,52.14,0,,,,,,,,
-0.6967,8.1166,5.8947,0.2965,8.9045,4.0978,-0.9933,-0.7879,1.7969,0.0313,0.4282,-0.2083,2348,-18.9,-7.08,-39.96,24.94,-65.23,-4.14,8,996.34,51.087,0,,,,,,,,
-0.7303,10.1876,7.7072,0.0593,8.9998,3.8948,-0.0186,2.1479,1.3008,-0.7561,0.2156,0.146,2573,-16.2,-8.76,-40.62,24.16,-66.6,-0.87,8,996.34,50.738,0,,,,,,,,
-0.4573,12.1605,5.7439,-0.1854,9.0449,3.7848,0.0441,3.355,1.9303,0.3837,-0.3256,-0.1906,3175,-15.78,-8.94,-41.46,28.18,-67.27,2.8,8,996.32,49.846,0,,,,,,,,
-0.4453,11.2531,3.8356,-0.3165,9.3353,2.9869,-0.2797,2.3272,0.7553,0.1198,0.1673,0.1014,2821,-18.48,-13.44,-38.46,35.97,-72.16,6.05,8,996.32,49.963,0,,,,,,,,
0.7638,10.6665,5.1621,-0.2279,9.0941,3.6627,0.9917,1.5724,1.4993,0.1296,-0.1436,-0.1038,3184,-14.94,-8.82,-40.92,28.87,-68.52,4.95,8,996.32,51.641,0,,,,,,,,
0.0287,8.5356,1.2642,-0.4761,9.2651,3.1782,0.5048,-0.7295,-1.914,0.0746,0.1264,0.0238,3481,-16.98,-12.6,-40.62,35.85,-70.87,8.52,8,996.34,51.481,0,,,,,,,,
-0.3041,6.7255,1.2331,-0.3081,9.1488,3.5177,0.004,-2.4233,-2.2847,0.2878,0.0513,-0.1533,3237,-11.7,-9,-42.9,23.72,-68.89,5,8,996.36,48.013,0,,,,,,,,
-1.2354,8.2602,3.8141,0.0148,9.319,3.0538,-0.0028,-0.7092,-0.5733,0.2005,0.5406,-0.3604,3653,-15.36,-11.94,-40.74,22.75,-71.86,-0.28,8,996.36,49.167,0,,,,,,,,
-0.5172,9.2467,0.7446,0.426,9.2895,3.1136,-0.9407,0.2158,1.4954,0.4662,-0.1546,-0.0354,3345,-15.72,-11.28,-40.56,15.55,-71.31,-7.79,8,996.34,48.591,0,,,,,,,,
-0.2131,8.7152,7.4534,0.3778,9.3417,2.9599,0.4674,-1.34,2.3219,-0.1202,-1.019,0.171,3672,-16.38,-11.46,-40.44,18.84,-73.92,-4.97,8,996.33,50.072,0,,,,,,,,
0.7686,10.9586,3.8332,0.2806,9.2725,3.18,0.6556,2.0333,-0.9629,0.4949,0.0592,-0.1692,4739,-14.76,-9.12,-40.98,17.09,-70.11,-5.16,8,996.34,49.597,0,,,,,,,,
0.1077,11.5596,5.5427,0.3202,9.1779,3.4401,-0.2124,2.3817,2.1027,0.1162,0.0733,-0.0733,5202,-12.48,-8.58,-41.82,12.28,-69.37,-5.32,8,996.34,49.063,0,,,,,,,,
0.4405,9.6896,3.759,0.5939,8.7389,4.4101,-0.1533,0.9507,-0.6511,0.1198,0.3604,-0.1533,6998,-13.14,-4.38,-42.78,10.73,-63.01,-7.67,8,996.37,50.545,0,,,,,,,,
0.1389,8.8636,1.8029,0.3263,8.8696,4.1706,0.8948,-1.773,-2.4946,0.4729,-0.0495,-0.3567,7477,-12.42,-6.96,-42.9,13.23,-64.75,-4.47,8,996.35,51.522,0,,,,,,,,
0.0934,5.9953,1.5252,0.2993,9.3187,3.04,-0.7302,-2.6698,-0.8637,-0.2412,-0.4551,0.19,4697,-17.04,-12.18,-39.36,20.66,-71.85,-5.62,8,996.39,53.949,0,,,,,,,,
-1.1109,6.5555,3.1389,0.08,9.1845,3.4363,-1.1909,-2.629,-0.2974,-0.4776,-0.1234,0.2816,4881,-14.1,-8.76,-40.74,20.15,-69.48,-1.33,8,996.4,62.02,0,,,,,,,,
1.4437,9.1581,3.0838,0.1289,9.2183,3.343,1.0802,-0.1345,-1.2528,-0.0048,-0.3317,-0.2407,5455,-14.28,-10.38,-40.44,21.55,-69.83,-0.67,8,996.42,64.193,0,,,,,,,,
-1.2546,9.9243,7.1445,0.0577,9.2187,3.3441,-1.7457,1.7663,4.3439,-0.3951,0.0745,0.2749,5689,-14.28,-10.5,-40.02,21.14,-70.06,-0.99,8,996.4,67.664,0,,,,,,,,
0.9122,11.7774,2.3967,0.3389,9.4256,2.6857,0.9157,2.347,-0.1478,0.1272,-0.4606,-0.0574,5603,-15.06,-12.84,-40.26,15.19,-73.98,-7.19,8,996.38,69.117,0,,,,,,,,
-0.091,10.8317,4.3815,0.1417,9.5083,2.3962,0.1839,1.4455,0.362,-0.1477,0.361,0.0141,4927,-15.66,-14.94,-39.3,21.34,-75.83,-3.38,8,996.4,68.701,0,,,,,,,,
1.0224,8.9809,3.8476,0.4646,9.16,3.4712,0.486,-0.6483,-0.476,-0.0164,0.1643,0.0849,6822,-15.6,-9.72,-41.52,15.42,-69.08,-7.62,8,996.41,65.388,0,,,,,,,,
0.8835,8.5524,1.8196,0.1978,8.8812,4.1539,0.6857,-0.3289,-2.3342,0.0655,0.105,0,7887,-14.94,-6.66,-41.52,20,-64.91,-2.73,8,996.4,65.283,0,,,,,,,,
-0.522,6.6417,2.2027,0.2615,8.8155,4.2881,-0.7834,-2.1738,-2.0854,0.3147,0.1655,-0.0556,8513,-13.38,-4.44,-42.18,15.87,-64.02,-3.49,8,996.41,69.556,0,,,,,,,,
-0.5674,6.7351,3.8261,-0.0188,8.9128,4.0905,-0.8025,-1.1601,0.2815,-0.1166,-0.0727,0.0391,8115,-14.4,-6.24,-41.94,21.73,-65.35,0.26,8,996.41,65.226,0,,,,,,,,
-0.51,7.9562,4.2307,0.1176,9.0089,3.8726,-0.6276,-1.0527,0.3581,-0.2302,0.1594,0.2584,7597,-14.82,-7.08,-41.16,21.28,-66.73,-1.74,8,996.42,64.505,0,,,,,,,,
1.4629,8.6266,2.1908,0.2612,9.1968,3.3942,0.1482,0.1648,0.3744,0.4711,-0.3983,-0.1894,7907,-16.14,-9.84,-41.1,19.57,-69.69,-4.4,8,996.4,62.847,0,,,,,,,,
-0.1508,12.3209,3.024,0.0967,9.3132,3.0699,-0.2476,3.0077,-0.046,-0.634,0.4722,0.0886,7575,-15.9,-10.38,-39.48,20.26,-71.08,-4.6,8,996.38,63.904,0,,,,,,,,
0.9769,11.617,3.1676,0.3101,9.1288,3.5691,1.0211,1.746,0.8484,0.4002,-0.1925,-0.3091,7765,-14.94,-7.56,-39.96,17.98,-68.57,-4.97,8,996.41,67.708,0,,,,,,,,
-0.1341,11.1046,4.3312,0.0301,8.9966,3.9026,-0.1283,1.8016,0.7734,0.0423,0.1435,-0.1173,7924,-17.04,-7.44,-39.54,26.13,-66.55,-0.44,8,996.41,68.617,0,,,,,,,,
0.3927,8.3632,3.8548,0.0112,8.9339,4.0441,0.4294,-1.3441,-1.0225,-0.0139,-0.0898,-0.022,7901,-15.48,-7.32,-40.32,23.91,-65.65,-0.16,8,996.42,63.374,0,,,,,,,,
0.6943,7.2427,1.1612,0.0681,9.0297,3.8249,0.4754,-3.463,-1.1577,-0.0958,-0.187,0.036,7793,-17.76,-8.88,-39.24,27.89,-67.04,-1.02,8,996.44,65.833,0,,,,,,,,
1.1564,5.2123,1.9346,0.0551,8.8984,4.1214,-0.1149,-2.5272,-1.1357,-0.1404,-0.1839,0.5321,8881,-17.34,-7.02,-40.14,26.13,-65.15,-0.77,8,996.44,62.753,0,,,,,,,,
0.1341,7.1469,4.8819,-0.1992,8.9518,3.9995,0.3333,-1.8049,0.8824,0.3703,0.4569,-0.2865,8822,-16.32,-7.8,-40.2,27.53,-66.46,1.74,8,996.44,67.345,0,,,,,,,,
-0.4789,8.3943,3.9099,0.0544,9.3664,2.9048,-0.0496,-0.7278,0.282,-0.0958,0.0574,0.2767,7819,-14.88,-11.94,-39.3,22.79,-72.77,-1.07,8,996.46,65.282,0,,,,,,,,
-1.2426,10.7742,7.1134,0.1227,9.2823,3.1615,-0.4962,1.832,1.8569,-0.4977,-0.0025,-0.1264,7616,-14.58,-10.68,-39.36,21.69,-71.18,-2.22,8,996.46,68.365,0,,,,,,,,
0.0096,10.8796,4.7526,-0.0686,9.3036,3.0997,0.3607,1.2719,-0.3535,-0.2418,-0.1332,0.0354,7408,-14.04,-10.92,-40.32,23.54,-71.57,1.27,8,996.47,71.183,0,,,,,,,,
-0.0623,11.1382,3.5794,-0.1266,9.3291,3.0202,0.3134,0.734,0.5329,0.1339,0.1399,0.1142,8286,-13.2,-11.88,-39.72,23.45,-72.05,2.4,8,996.45,56.393,0,,,,,,,,
0.4908,9.9817,2.5882,-0.1344,9.3849,2.8418,0.0195,-0.9499,-2.588,0.2261,0.1276,0.1863,7850,-13.44,-13.98,-39.18,24.44,-73.14,2.71,8,996.47,56.445,0,,,,,,,,
0.1628,7.8005,2.7965,-0.1897,9.373,2.8777,0.3525,-1.5725,-0.0812,-0.0805,0.0116,-0.0061,8279,-11.64,-13.2,-39.6,24.75,-73.54,5.02,8,996.47,56.535,0,,,,,,,,
0.158,6.376,1.3815,-0.218,9.3472,2.9586,0.376,-2.9712,-1.5771,-0.0402,-0.1344,0.011,8682,-10.92,-12.54,-39.36,23.14,-72.39,4.21,8,996.49,64.637,0,,,,,,,,
-1.1014,8.1214,2.4805,-0.0341,9.3622,2.9186,-1.0672,-1.2408,-0.4381,-0.3939,-0.4142,0.2926,8715,-13.08,-12.12,-39.66,21.34,-72.68,0.67,8,996.48,55.501,0,,,,,,,,
0.2825,9.1629,2.5762,0.0223,9.3692,2.8962,1.0312,0.3276,-1.7901,0.4436,-0.237,-0.1289,8133,-14.76,-12.54,-38.64,23.67,-72.82,-0.44,8,996.48,64.795,0,,,,,,,,
-0.9745,10.882,6.613,-0.2484,9.4044,2.7688,-1.2384,3.5893,-0.6307,-0.3249,0.5778,0.0703,8154,-12.48,-12.42,-40.2,24.69,-73.53,5.13,8,996.47,57.958,0,,,,,,,,
-0.0599,12.4454,4.8364,0.1458,9.1277,3.5824,-0.2057,3.3177,1.254,-0.2516,-0.2542,0.0562,10396,-12.36,-9,-40.08,16.78,-68.55,-2.33,8,996.48,58.949,0,,,,,,,,
0.1221,10.8437,3.9434,0.4601,9.2413,3.2491,-0.338,1.6023,0.6943,0.052,-0.0831,0.1319,10071,-15.06,-10.56,-39.18,15.14,-70.45,-8.06,8,996.48,52.447,0,,,,,,,,
0.9888,10.5755,4.5036,0.3659,9.061,3.7328,-0.1241,1.5408,1.1084,0.1113,-0.157,0.2841,10697,-14.04,-7.32,-39.66,15.83,-67.51,-5.6,8,996.47,52.586,0,,,,,,,,
0.5148,8.3153,0.8212,0.2503,9.2459,3.2591,0.5063,-2.2665,-2.3038,0.352,0.116,-0.0263,9787,-17.4,-10.8,-38.4,22.87,-70.53,-4.39,8,996.49,57.454,0,,,,,,,,
-0.1963,7.5324,2.9354,0.3177,9.1995,3.3822,0.4341,-2.5242,-2.0893,0.0704,0.3213,-0.0519,9697,-14.34,-9.96,-39.54,16.19,-69.73,-5.37,8,996.51,61.769,0,,,,,,,,
-1.324,8.3297,4.4486,0.1241,9.2339,3.2999,-1.1105,-1.5699,-0.0101,-0.2119,-0.0471,0.0984,9147,-16.08,-11.64,-38.52,21.73,-71.87,-3.45,8,996.52,61.562,0,,,,,,,,
-0.2849,8.8923,2.2339,0.1202,9.2453,3.2681,-0.4051,-0.3529,-1.0343,0.1217,0.4868,0.0434,8879,-14.76,-11.4,-39.3,21.98,-70.52,-2.11,8,996.51,61.301,0,,,,,,,,
-1.0415,9.6441,9.103,0.034,9.155,3.5149,-1.0755,0.4891,5.5881,-0.2259,-0.2511,0.0745,10231,-14.16,-10.5,-40.32,21.89,-69,-0.55,8,996.52,67.772,0,,,,,,,,
0.7135,11.3393,2.0208,-0.0924,9.2338,3.3012,0.3821,1.2028,1.7842,0.2793,-0.1106,0.025,9801,-13.2,-11.16,-39.12,23.33,-70.32,1.6,8,996.52,59.239,0,,,,,,,,
-0.3256,11.3393,6.2084,-0.0373,9.116,3.6148,-0.2883,2.2232,2.5936,0.2695,-0.3543,-0.0464,10503,-11.1,-8.52,-40.44,19.12,-67.99,0.9,8,996.54,58.504,0,,,,,,,,
0.4549,9.7112,2.3871,0.0701,9.3114,3.0762,0.0232,1.4149,0.429,0.184,0.1472,0.0415,9294,-14.76,-12,-38.7,23.63,-70.77,-0.78,8,996.54,63.047,0,,,,,,,,
0.3089,7.7527,2.5882,0.0496,9.1585,3.5056,0.094,-0.35,-1.1952,0.2561,0.2706,-0.1845,9113,-14.4,-9.36,-40.56,20.84,-69.05,-0.81,8,996.53,61.036,0,,,,,,,,
-0.1245,6.7183,3.0024,-0.0228,9.1904,3.4214,-0.1017,-2.4721,-0.4189,-0.3346,0.0128,0.1949,9000,-13.92,-10.8,-39.78,23.03,-69.58,0.38,8,996.54,52.903,0,,,,,,,,
0.103,6.8285,4.1421,0.1678,9.2665,3.2053,-0.5485,-1.1092,0.3335,-0.2729,0.4037,0.0977,9075,-12.18,-10.92,-39.66,15.89,-70.9,-3,8,996.55,65.115,0,,,,,,,,
1.1062,8.9953,1.9585,0.2046,9.4299,2.6844,0.2336,0.2837,1.7642,0.4112,0.0733,-0.1087,7389,-14.04,-13.14,-38.34,18.09,-74.07,-4.36,8,996.57,59.902,0,,,,,,,,
-0.8883,11.2268,2.6145,-0.0464,9.5531,2.2151,-0.8419,1.6737,0.3994,-0.0848,0.4294,0.2266,7246,-12.54,-15.54,-37.5,23.19,-76.94,1.2,8,996.55,70.057,0,,,,,,,,
0.1437,11.7319,2.2722,0.1847,9.5147,2.3679,-0.041,2.2173,-0.0957,0.2695,-0.1473,-0.1362,6854,-13.62,-13.8,-38.7,16.85,-74.65,-4.96,8,996.59,60.739,0,,,,,,,,
0.8835,10.5324,2.9545,0.0578,9.405,2.7771,0.3971,1.0963,0.515,0.1559,-0.1045,0.3054,6963,-11.82,-12.9,-38.52,18.24,-73.55,-1.19,8,996.62,62.762,0,,,,,,,,
0.3879,8.9761,2.0256,0.4205,9.3766,2.8412,-0.1834,-0.9464,-0.3512,-0.0439,6.00E-04,-0.0654,6647,-11.76,-12.66,-37.92,10.57,-72.97,-8.42,8,996.64,65.557,0,,,,,,,,
1.3719,6.2179,0.8212,0.1863,9.3607,2.9176,-0.2103,-2.5322,-0.8705,0.0215,-0.132,0.2816,6144,-15.18,-12,-38.4,20.51,-72.66,-3.65,8,996.64,69.011,0,,,,,,,,
0.5938,7.1876,2.5571,0.3529,9.2207,3.3204,0.2409,-2.033,-0.7633,0.1321,-0.0092,0.1613,5797,-12.72,-10.62,-39.42,14.51,-70.09,-6.07,8,996.62,66.479,0,,,,,,,,
1.1876,9.0097,0.8093,0.4311,9.4638,2.5339,0.7565,-0.4542,-1.7246,-0.0811,-0.0666,-0.3152,5361,-15.12,-13.62,-37.32,14.18,-74.81,-9.65,8,996.62,52.207,0,,,,,,,,
0.0694,12.0049,1.0224,0.1058,9.544,2.2519,-0.0364,2.4609,-1.2296,-0.5093,0.2028,0.0275,5063,-13.08,-14.1,-37.44,15.9,-75.87,-5.28,8,996.61,60.209,0,,,,,,,,
0.747,11.8062,2.4039,0.3299,9.5215,2.3243,-0.0569,2.4882,0.3094,-0.0139,-0.0813,0.1698,4867,-13.2,-14.52,-38.28,12.24,-76.15,-8.08,8,996.6,65.912,0,,,,,,,,
0.6273,10.7982,3.2706,0.3137,9.3887,2.815,0.6081,1.1365,0.8315,0.2414,0.1264,-0.0324,5018,-14.46,-12.48,-38.28,15.85,-73.21,-6.36,8,996.6,73.025,0,,,,,,,,
0.5746,8.9354,2.684,0.2626,9.2765,3.1698,0.2497,-0.6332,-1.1395,-0.3389,-0.0507,0.0434,4593,-16.56,-11.1,-38.22,22.34,-71.07,-4.74,8,996.56,67.555,0,,,,,,,,
0.8212,6.8644,1.0702,0.2693,9.1256,3.5807,0.4825,-2.6419,-1.3851,0.2548,-0.1558,-0.0977,4735,-17.88,-10.44,-37.14,25.42,-68.52,-4.3,8,996.61,62.466,0,,,,,,,,
0.5459,7.2283,3.9075,0.1633,9.1285,3.5796,0.3826,-1.9002,0.3279,-0.4776,-0.3354,0.2071,4831,-17.52,-10.68,-37.68,26.86,-68.57,-2.61,8,996.6,68.558,0,,,,,,,,
-0.7518,8.7032,4.2355,0.4338,9.4381,2.6275,0.8448,-0.1268,-1.5764,-0.0652,0.0598,-0.3586,5100,-19.62,-13.8,-36.12,22.48,-74.24,-9.37,8,996.63,46.817,0,,,,,,,,
-1.5946,11.1142,6.0839,0.2364,9.4326,2.6721,-1.1295,2.2946,1.3143,-0.3976,0.3763,-0.0189,5047,-17.46,-13.92,-36.24,23.2,-74.12,-5.06,8,996.62,47.831,0,,,,,,,,
-0.0383,11.7008,3.0695,0.3784,9.4733,2.5069,0.1364,2.2778,-0.6897,-0.0793,0.1527,-0.0929,5279,-18.06,-12.9,-36.6,19.55,-75.02,-8.58,8,996.62,49.683,0,,,,,,,,
0.8955,11.3872,3.1293,0.1643,9.4292,2.6896,0.2188,2.1854,0.3991,-0.1624,-0.1839,0.3433,5435,-17.28,-13.86,-37.02,24.25,-74.05,-3.5,8,996.62,51.757,0,,,,,,,,
0.6105,9.285,3.4214,0.3238,9.3192,3.0362,0.2867,-0.0342,0.3852,-0.2522,-0.0397,0.1552,5374,-17.22,-11.82,-38.1,20.8,-71.86,-6.09,8,996.62,52.445,0,,,,,,,,
0.8811,6.8596,1.1085,0.1421,9.3563,2.9343,0.3129,-2.5493,-1.4523,0.016,-0.0965,0.1906,5414,-18.06,-13.26,-38.4,25.96,-72.57,-2.77,8,996.59,52.546,0,,,,,,,,
-0.0503,7.4103,3.5986,0.3414,9.3934,2.7959,-0.5712,-1.5306,0.4125,-0.6474,-0.0837,0.1411,5223,-17.88,-13.38,-37.74,21.03,-73.31,-6.96,8,996.58,51.469,0,,,,,,,,
0.9553,9.2682,1.7933,0.054,9.3524,2.9497,-0.4946,0.0045,0.6776,-0.0652,0.2895,-0.4337,4818,-18.3,-12.96,-38.64,27.23,-72.49,-1.05,8,996.58,50.832,0,,,,,,,,
-0.4669,10.518,5.1812,0.2381,9.4029,2.7747,-0.705,1.1151,2.4065,-0.6272,0.2156,-0.0098,5326,-18,-13.92,-38.7,22.78,-73.5,-4.9,8,996.58,51.93,0,,,,,,,,
0.9817,11.1549,3.6992,0.3017,9.3674,2.8863,0.68,1.7875,0.8129,0.4705,-0.0397,0.0843,5249,-16.5,-11.52,-39.96,18.06,-72.79,-5.97,8,996.59,51.902,0,,,,,,,,
0.6369,10.3935,3.3017,0.0504,9.3831,2.8504,0.3614,0.5675,1.1984,0.0398,0.0403,0.0574,5542,-17.04,-13.62,-39.66,25.29,-73.1,-1.01,8,996.56,62.12,0,,,,,,,,
-0.1628,8.7223,2.1979,0.2578,9.2661,3.2004,-0.1452,-1.6068,-1.6681,-0.0659,0.1906,-0.0318,5777,-16.32,-12.24,-41.7,18.85,-70.89,-4.6,8,996.53,62.487,0,,,,,,,,
-0.1628,7.0272,2.5044,0.293,9.3157,3.0499,-0.0153,-2.4274,-0.6269,-0.1544,-0.0764,0.1448,5405,-16.14,-13.26,-40.74,19.47,-72.77,-4.34,8,996.55,65.155,0,,,,,,,,
-1.5994,8.5428,2.6409,0.182,9.4332,2.6743,-1.7814,-0.8904,-0.0334,-0.4886,0.2962,0.0904,5280,-15.06,-15,-41.4,18.58,-74.14,-3.89,8,996.57,57.323,0,,,,,,,,
0.2753,8.8373,5.7941,0.2833,9.4232,2.7007,-0.0079,-0.5859,3.0935,-0.0897,-0.4667,-0.0648,4963,-14.7,-15.48,-42.42,15.7,-73.92,-5.99,8,996.55,63.592,0,,,,,,,,
0.3927,11.1884,3.4909,0.1243,9.41,2.758,0.2683,1.7784,0.7329,0.4027,-0.0379,0.0568,4597,-14.22,-15.72,-42,18.4,-73.65,-2.58,8,996.53,69.843,0,,,,,,,,
-0.4046,11.6266,2.9162,0.2986,9.363,2.9008,0.0749,1.1167,-0.382,0.3569,-0.0159,-0.1808,4474,-12.9,-15.9,-42.24,13.34,-72.7,-5.88,8,996.53,71.319,0,,,,,,,,
0.3137,9.7854,2.3584,0.2444,9.3891,2.8205,0.6582,-0.8607,-1.5707,0.1675,-0.0068,-0.0965,3520,-14.34,-17.76,-41.28,16.53,-73.22,-4.95,8,996.52,74.071,0,,,,,,,,
0.0718,7.846,0.984,0.5969,9.4,2.7301,-0.5251,-1.554,-1.7461,0.1241,0.0183,-0.2285,3951,-17.34,-17.22,-40.56,11.97,-73.44,-12.33,8,996.46,69.475,0,,,,,,,,
-0.668,7.3744,2.9474,0.5113,9.3711,2.8444,-1.1793,-1.9968,0.1029,-0.2381,0.0592,-0.0489,4011,-19.2,-16.5,-40.26,17.84,-72.86,-10.19,8,996.43,69.45,0,,,,,,,,
-0.2442,9.2539,2.8827,0.1915,9.3419,2.9769,-0.4357,-0.0881,-0.0942,0.5291,0.2956,-0.069,3909,-17.52,-16.26,-42,22.89,-72.29,-3.68,8,996.44,64.021,0,,,,,,,,
-0.0215,9.127,5.4015,0.3272,9.29,3.124,0.5611,0.8186,2.2895,-0.3188,-0.245,0.0525,3581,-17.34,-14.94,-43.44,18.39,-71.32,-5.98,8,996.45,52.343,0,,,,,,,,
0.7207,11.2268,4.3049,0.0939,9.3155,3.0632,0.4161,2.0358,0.873,-0.177,0.0403,0.168,3389,-19.14,-16.02,-44.1,25.3,-71.79,-1.76,8,996.47,44.792,0,,,,,,,,
0.9194,10.8269,3.6225,0.3281,9.2883,3.1288,0.4022,1.6056,0.9008,0.3544,-0.113,-0.0635,3432,-22.62,-15.6,-46.14,26.27,-70.9,-4.18,8,996.45,59.463,0,,,,,,,,
-0.0958,9.5819,2.3703,0.431,9.2824,3.1339,-0.1868,-0.5074,-1.7812,-0.0726,-0.0061,-0.2553,3193,-26.94,-19.74,-38.1,33.44,-71.18,-7.83,8,996.44,56.979,0,,,,,,,,
0.4573,7.19,2.6265,0.6217,9.1635,3.4372,-0.1333,-2.4188,-1.11,-0.3334,0.1741,0.069,2624,-26.4,-14.52,-36.9,29.93,-69.13,-10.25,8,996.48,53.266,0,,,,,,,,
0.1532,7.2618,3.2634,0.5266,9.2195,3.3006,-0.0454,-1.4644,0.2023,-0.3811,-0.2181,-0.1026,2799,-25.56,-14.46,-36.06,31.61,-70.07,-9.07,8,996.47,54.051,0,,,,,,,,
-0.8763,9.0599,3.5411,0.1828,9.2385,3.2844,-0.5084,0.7792,0.4148,0.4406,0.1893,0.1949,2864,-24.12,-14.28,-36.54,34.93,-70.4,-3.19,8,996.45,52.312,0,,,,,,,,
1.5323,8.957,4.1565,0.3471,9.3958,2.7874,0.297,0.428,2.0299,-0.1043,-0.5846,0.2254,2644,-21,-14.16,-35.28,27.48,-73.36,-7.1,8,996.42,52.414,0,,,,,,,,
0.7159,12.3449,1.3312,0.2439,9.4504,2.6078,0.3858,2.6718,-0.8911,0.4955,-0.1521,-0.1888,3029,-20.34,-15,-33.9,28.84,-74.51,-5.34,8,996.42,58.905,0,,,,,,,,
1.2666,10.5995,3.2418,0.2256,9.2765,3.1727,1.0409,1.323,0.0691,-0.0133,-0.0807,-0.1436,3009,-19.74,-10.8,-34.98,29.56,-71.07,-4.07,8,996.41,66.912,0,,,,,,,,
0.2059,10.8006,3.8907,0.2557,9.1556,3.5044,0.125,0.1486,-1.7326,-0.1825,0.3983,-0.2578,3020,-20.46,-8.34,-36.18,28.42,-69,-4.17,8,996.41,58.738,0,,,,,,,,
0.17,7.9418,2.3775,0.3782,8.922,4.0527,0.2107,-1.3633,-2.4677,0.4253,0.5833,0.0464,2919,-17.7,-3.78,-39.6,21.48,-65.48,-5.33,8,996.43,52.621,0,,,,,,,,
0.1053,7.5084,2.7582,0.1579,9.2164,3.347,0.3353,-2.218,-1.1922,-0.0616,-0.2963,-0.1875,3104,-16.68,-8.64,-38.82,22.33,-70.39,-3.96,8,996.42,54.145,0,,,,,,,,
-0.8739,7.5468,3.0503,-0.1689,9.2753,3.1798,-0.8918,-1.3622,-0.3953,-0.5277,0.2504,0.2498,2768,-17.46,-10.98,-39.06,30.44,-71.05,3.04,8,996.4,68.582,0,,,,,,,,
0.8308,10.0631,2.6768,0.2107,9.1558,3.5066,0.0622,0.8019,0.997,0.242,-0.2114,-0.1472,2858,-20.76,-9.48,-38.64,28.5,-69.01,-3.44,8,996.39,67.475,0,,,,,,,,
1.075,12.0911,3.8428,0.2231,9.1601,3.4948,1.1536,1.9494,0.7479,-0.3133,-0.5846,0.1979,2424,-21.66,-9.78,-38.28,30.5,-69.08,-3.65,8,996.39,66.311,0,,,,,,,,
0.8572,11.6194,4.7766,0.2781,9.0397,3.7916,0.579,2.5797,0.985,0.3764,-0.0245,-0.2291,2351,-20.7,-8.82,-38.58,28.17,-67.19,-4.2,8,996.39,62.109,0,,,,,,,,
0.0503,9.6944,3.6872,0.0229,9.0504,3.7763,0.1256,1.2905,0.9524,-0.1575,0.3048,0.0867,1806,-22.62,-10.5,-37.38,35.71,-68.09,-1.1,8,996.39,61.469,0,,,,,,,,
-0.5531,7.4845,1.5419,0.2253,8.9891,3.9135,-0.3522,-2.0553,-2.4794,0.0349,0.2278,-0.014,2124,-21.72,-8.64,-38.4,31.45,-66.44,-3.3,8,996.39,47.971,0,,,,,,,,
-0.8476,6.6848,2.9258,0.1732,8.8599,4.2002,-0.9849,-1.3108,1.0552,0.0514,0.1997,-0.0409,2408,-20.7,-8.04,-38.16,31.52,-64.62,-2.36,8,996.39,50.308,0,,,,,,,,
-0.7949,8.7559,-0.8476,0.3086,8.9844,3.9187,-0.7755,-0.2477,-0.9378,0.8773,0.0391,-0.2498,1697,-19.02,-9.42,-38.76,25.44,-66.37,-4.5,8,996.39,49.4,0,,,,,,,,
0.158,8.8085,6.4502,-0.0467,8.9487,4.0112,0.5567,0.1041,2.9131,0.0417,-0.2853,-0.1319,1625,-14.88,-8.34,-39.96,25.06,-65.85,0.67,8,996.38,49.141,0,,,,,,,,
1.0415,11.2914,4.3719,-0.1781,9.134,3.5648,0.633,2.0951,1.104,-0.0524,-0.2987,0.0654,1555,-14.46,-10.44,-39.78,25.89,-68.66,2.86,8,996.36,51.051,0,,,,,,,,
0.486,10.6018,4.1565,0.0282,9.1291,3.5817,0.4579,1.4727,0.5748,0.0588,-0.0727,-0.0586,1376,-14.04,-9.06,-39.96,21.9,-68.58,-0.45,8,996.38,49.204,0,,,,,,,,
0.498,9.0575,1.8125,-0.2857,9.2461,3.2556,0.9705,-1.5533,-2.3051,-0.0274,-0.0434,0.0941,1233,-15.9,-11.46,-38.76,31.44,-70.53,5.02,8,996.39,48.332,0,,,,,,,,
-0.1053,6.3688,0.9122,-0.0129,9.2183,3.3456,-0.0062,-3.1752,-0.7382,-0.075,-0.3598,0.0293,1210,-14.52,-10.02,-39.48,24.53,-70.05,0.22,8,996.38,50.434,0,,,,,,,,
-1.0247,7.7934,5.3464,-0.2288,9.1501,3.5205,-0.7959,-1.3567,1.8259,-0.1337,0.2089,-0.2016,1204,-15.42,-10.68,-38.34,29.74,-68.91,3.72,8,996.41,49.488,0,,,,,,,,
0.0168,7.8341,2.2363,0.0351,9.0884,3.6837,-0.5714,-1.0868,1.4425,0.5053,-0.38,0.0037,1300,-16.68,-9.66,-37.62,27.76,-67.94,-0.55,8,996.37,48.282,0,,,,,,,,
0.6225,9.9099,6.4789,-0.0118,9.2032,3.3869,0.9144,2.2702,-0.1355,-0.1483,-0.2841,0.2462,1442,-15.66,-10.32,-37.98,26.64,-69.8,0.2,8,996.36,48.255,0,,,,,,,,
-0.3376,11.0807,4.7143,-0.0425,9.1852,3.4353,-0.2113,2.0512,0.8121,0.2775,0.1594,-0.0611,1221,-17.94,-11.94,-37.56,30.64,-69.49,0.71,8,996.38,48.219,0,,,,,,,,
-0.8404,10.9658,4.4605,-0.4791,9.1529,3.4878,-0.3613,1.8129,0.9728,-0.1251,0.1533,0.1405,1259,-12.9,-10.5,-38.58,30.54,-68.96,7.82,8,996.39,47.978,0,,,,,,,,
0.407,6.9171,1.2785,-0.2263,9.3734,2.8738,0.6333,-2.4563,-1.5952,0.0282,-0.4637,0.1735,943,-17.7,-14.82,-36.72,35.25,-72.91,4.5,8,996.37,49.266,0,,,,,,,,
-0.6201,5.8348,3.7111,-0.0696,9.3,3.1104,-0.5505,-3.4652,0.6008,-0.3243,0.2193,0.3427,1010,-16.68,-12.36,-36.78,29.97,-71.5,1.28,8,996.39,49.144,0,,,,,,,,
1.9801,8.5978,1.0535,0.1109,9.3673,2.9002,1.8692,-0.7695,-1.8467,0.3501,-0.0159,-0.3946,1289,-15.72,-11.82,-37.38,24.25,-72.79,-2.19,8,996.38,49.954,0,,,,,,,,
-1.1038,9.5723,5.7151,0.0267,9.3754,2.8762,-0.3787,1.2552,2.4583,-0.3627,0.251,-0.0452,1113,-15.36,-12.66,-36.6,24.82,-72.94,-0.53,8,996.37,48.916,0,,,,,,,,
0.2322,11.526,3.0814,-0.081,9.2842,3.1571,0.3132,2.2419,-0.0757,-0.0775,-0.1387,-0.0257,1585,-13.14,-10.8,-38.7,22.63,-69.87,0.9,8,996.41,49.789,0,,,,,,,,
-0.1461,11.7679,3.352,-0.3683,9.2887,3.1233,0.2222,2.4792,0.2286,-0.1813,0.0085,0.1387,1221,-13.62,-12.54,-37.5,32.09,-71.29,6.72,8,996.4,49.147,0,,,,,,,,
-0.2658,9.7184,3.2083,-0.5218,9.1348,3.5289,0.1363,0.3417,-1.0197,0.0013,0.1967,0.0159,1256,-11.94,-10.38,-38.82,29.82,-68.67,8.41,8,996.38,48.781,0,,,,,,,,
-0.3879,6.3185,2.0327,-0.6159,9.3975,2.7346,-0.5071,-2.4038,-0.8096,-0.2186,-0.3635,0.3653,1177,-14.64,-13.68,-36.72,39.69,-73.39,12.69,8,996.4,49.266,0,,,,,,,,
-0.2203,5.4973,3.2203,-0.3831,9.3672,2.8772,0.1629,-3.87,0.3431,-0.6877,-0.1906,0.5217,1132,-14.34,-13.8,-36.24,33.47,-72.78,7.58,8,996.4,49.212,0,,,,,,,,
1.7742,8.7559,0.747,-0.2366,9.4168,2.7275,2.0107,-0.6609,-1.9805,0.176,-0.5223,-0.1692,1218,-15.84,-12.18,-37.5,31.92,-73.79,4.96,8,996.41,48.541,0,,,,,,,,
0.9912,10.5037,7.1661,0.0421,9.177,3.4571,1.5955,1.966,0.7233,-1.1929,-0.4197,0.0141,1297,-16.32,-9.72,-37.26,26.43,-69.36,-0.7,8,996.39,48.954,0,,,,,,,,
1.4318,11.4805,2.8899,0.0188,9.248,3.2625,0.0028,2.5533,2.321,0.3648,-0.1576,0.0648,1438,-14.04,-9.06,-39.18,22.14,-70.57,-0.33,8,996.37,48.014,0,,,,,,,,
0.4118,11.2675,4.3217,-0.0842,9.4537,2.606,0.769,0.54,-0.2046,-0.0365,0.0775,0.0996,1174,-15.18,-12.24,-37.38,26.84,-74.58,1.85,8,996.37,49.684,0,,,,,,,,
0.1891,8.5739,1.6616,0.3555,9.2657,3.1922,0.2718,-0.5865,-1.1618,-0.0182,0.0513,0.2492,1262,-14.64,-9.48,-39.66,18.09,-70.52,-4.7,8,996.36,47.74,0,,,,,,,,
0.3974,6.7327,2.2363,0.4617,9.2747,3.1524,-0.0643,-2.542,-0.9162,0.1516,0.171,-0.0513,1273,-14.58,-9.36,-38.22,15.06,-71.04,-8.33,8,996.37,49.745,0,,,,,,,,
-1.0271,7.7287,4.3672,0.4373,9.3849,2.8111,-0.8371,-0.902,-0.5725,-0.3682,0.3384,0.1313,1139,-11.22,-9.9,-39.3,7.8,-73.14,-8.84,8,996.36,49.506,0,,,,,,,,
2.7343,8.4566,0.7326,0.5005,9.2896,3.1021,1.0629,-1.0605,3.0488,-0.5228,-1.0165,0.1558,1121,-13.86,-8.58,-39.3,12.03,-71.31,-9.17,8,996.35,49.691,0,,,,,,,,
-0.9409,11.7846,4.2355,0.347,9.3367,2.9792,-1.288,2.4479,1.2563,-0.2613,0.4001,-0.1472,1109,-11.88,-8.82,-40.38,11.33,-72.19,-6.64,8,996.35,49.859,0,,,,,,,,
0.6919,11.3632,4.5156,0.3882,9.3002,3.0865,0.002,2.3336,0.5552,0.6012,-0.1521,-0.3018,1170,-10.8,-8.94,-39.48,10.02,-70.42,-7.04,8,996.34,49.691,0,,,,,,,,
-0.0455,11.1789,4.2953,0.0821,9.3677,2.9,0.2435,1.0785,1.5222,-0.0145,0.0531,-0.0898,1129,-15.06,-12.24,-37.92,22.78,-72.79,-1.62,8,996.34,49.28,0,,,,,,,,
0,9.3281,2.8803,0.1746,9.3002,3.1058,-0.2273,-1.6792,-2.2559,-0.0304,0.2859,-0.0367,1636,-13.68,-10.74,-38.28,19.61,-71.51,-3.22,8,996.36,50.057,0,,,,,,,,
-0.9242,6.1198,2.7103,0.0578,9.2827,3.1621,-0.4816,-2.7128,-1.4502,0.2121,0.1759,-0.036,1977,-16.92,-10.2,-37.08,25.67,-71.58,-2.11,8,996.35,50.698,0,,,,,,,,
0.0646,5.672,3.2251,0.0513,9.0081,3.8758,-0.4416,-3.3025,0.137,-0.51,-0.3757,0.4233,2368,-14.58,-5.94,-39.12,23.3,-66.72,-0.76,8,996.38,49.62,0,,,,,,,,
1.8747,7.9131,0.5196,0.2268,9.143,3.5389,2.0574,-1.4095,-1.9922,0.3697,-0.3391,-0.7165,2395,-17.16,-7.8,-37.62,23.47,-68.8,-3.67,8,996.36,50.028,0,,,,,,,,
0.7326,11.5428,3.6465,0.0954,9.1045,3.6426,1.0826,2.4502,-0.0392,-0.1068,-0.3421,-0.3378,2689,-18.12,-9.18,-37.32,28.44,-68.19,-1.5,8,996.35,49.546,0,,,,,,,,
-0.2682,12.7519,4.8245,-0.2018,9.0925,3.6683,-0.0664,3.6594,1.1562,0.5297,0.1258,-0.193,3383,-21.24,-9.3,-35.88,38.46,-68,3.15,8,996.35,49.838,0,,,,,,,,
1.0511,10.1565,3.9075,0.0223,9.1863,3.4325,1.012,0.477,0.5898,0.1406,0.1502,-0.0232,3423,-25.86,-12.24,-32.16,44.84,-69.51,-0.37,8,996.33,50.226,0,,,,,,,,
-0.51,10.0751,2.4613,-0.2312,9.1455,3.5323,-0.3554,-1.4096,-2.1652,0.1559,0.2651,-0.0629,3643,-23.64,-12.78,-32.58,46.75,-68.84,3.74,8,996.34,50.741,0,,,,,,,,
-0.6153,6.7806,2.1357,-0.5481,9.2954,3.0766,-0.7712,-2.51,-0.079,0.1241,0.1582,0.0061,3387,-24.18,-14.46,-32.1,53.79,-71.42,10.1,8,996.36,49.648,0,,,,,,,,
-0.012,5.6074,1.9896,-0.1908,9.6184,1.9027,-1.0686,-2.4068,1.2578,-0.7775,0.2089,0.5302,2646,-22.98,-16.2,-32.46,45.24,-78.76,5.73,8,996.32,51.891,0,,,,,,,,
1.6209,7.4893,0.6153,0.3885,9.6081,1.9244,0.1526,-1.6855,0.2712,-0.2235,0.2174,-0.5156,2589,-22.92,-15.18,-33.6,23.71,-79.28,-12.3,8,996.33,52.274,0,,,,,,,,
-0.091,9.3065,2.4613,0.407,9.5837,2.0391,-0.6895,0.1347,2.5819,-0.0023,-0.157,0.1753,2338,-20.7,-14.82,-35.34,21.79,-77.76,-11.29,8,996.33,55.183,0,,,,,,,,
-0.2299,9.9458,5.3392,0.1299,9.6756,1.5923,0.3202,2.9661,1.0199,-0.1874,-0.088,0.4337,2907,-14.52,-15.78,-37.14,18.85,-80.62,-4.66,8,996.33,54.501,0,,,,,,,,
1.5515,12.9075,1.8077,0.2038,9.6864,1.5176,-0.0122,3.5468,0.7043,0.1302,0.0049,0.1289,2492,-16.26,-17.22,-36.3,17.69,-81.02,-7.65,8,996.33,52.333,0,,,,,,,,
0.4453,12.0384,2.2027,-0.2519,9.6858,1.5137,0.9008,2.0629,1.5773,-0.1612,-0.424,0.1588,2546,-14.1,-18.3,-36.6,40.32,-81.51,16.78,8,996.34,53.119,0,,,,,,,,
0.3591,9.9817,1.0846,-0.2201,9.6976,1.4416,0.462,-0.5012,-0.7616,0.0942,0.3543,-0.1607,2782,-16.08,-18.9,-35.58,35.33,-81.45,8.68,8,996.34,53.454,0,,,,,,,,
0.4669,6.6561,-0.2777,-0.1024,9.6528,1.7272,1.1224,-3.7772,-2.1534,0.1767,0.3592,-0.1674,3143,-14.88,-16.26,-37.02,27.72,-79.84,3.39,8,996.34,54.734,0,,,,,,,,
-1.415,7.0392,-0.2299,-0.1421,9.7457,1.0821,-1.4764,-1.95,-0.5099,0.8077,0.2229,-0.3305,3223,-15.84,-19.2,-33.9,34.69,-83.61,7.48,8,996.35,53.638,0,,,,,,,,
-1.4533,7.6784,2.7845,0.0268,9.7312,1.2139,-1.3892,-2.5364,1.7359,-0.0976,0.2034,0.0428,2855,-15.06,-19.08,-35.4,20.55,-84.29,-3.74,8,996.33,55.109,0,,,,,,,,
1.8268,8.605,-1.4916,0.0789,9.743,1.1123,1.7479,-1.138,-2.6039,-0.017,-0.5749,-0.2352,2882,-15.3,-19.5,-35.88,19.76,-83.47,-4.06,8,996.34,55.556,0,,,,,,,,
0.3232,12.7447,4.8747,0.3079,9.7064,1.3641,1.2891,3.7566,-2.2021,-0.9394,0.4917,0.5339,2569,-14.28,-18.54,-36.3,9.27,-81.8,-12.72,8,996.34,53.605,0,,,,,,,,
0.3567,13.0656,-1.257,0.0836,9.774,0.7949,-0.244,3.1838,0.0694,0.5322,-0.0807,-0.1319,2287,-13.74,-21.3,-35.28,16.59,-85.32,-6,8,996.33,54.528,0,,,,,,,,
0.2514,12.3138,1.4988,0.1395,9.7711,0.8227,0.9738,1.2019,-0.1164,-0.0414,0.1777,-0.0977,1894,-15.42,-20.88,-35.04,14.29,-85.12,-9.63,8,996.35,53.159,0,,,,,,,,
0.2873,10.5133,0.8045,-0.0369,9.6866,1.529,0.0871,1.9184,0.1111,-0.0579,0.1417,-0.0953,1862,-13.32,-17.46,-37.92,20.55,-81.4,0.18,8,996.33,53.605,0,,,,,,,,
0.8931,6.8644,1.1804,-0.2104,9.5767,2.1009,0.706,-3.3348,-0.2716,-0.0292,-0.0794,0.1246,1727,-14.16,-15.78,-37.74,28.88,-77.57,5.72,8,996.34,55.641,0,,,,,,,,
0.6249,6.6441,-0.0479,0.2879,9.5308,2.2917,0.0689,-3.253,-1.9541,-0.0952,-0.1705,0.1765,1940,-15.6,-13.86,-37.26,18.17,-76.38,-7.16,8,996.35,55.874,0,,,,,,,,
0.1437,8.7008,3.838,0.3486,9.6518,1.7007,0.384,-0.8145,1.0958,-0.4165,0.1844,-0.3256,1813,-16.86,-16.62,-37.08,14.36,-79.8,-11.58,8,996.34,54.02,0,,,,,,,,
1.1493,8.4757,-1.1277,0.3486,9.6449,1.739,-0.1978,-0.3001,-0.6233,0.3984,-0.0721,0.2046,1652,-14.28,-16.08,-37.38,10.31,-79.58,-11.34,8,996.34,54.589,0,,,,,,,,
-0.7829,10.3481,6.3568,0.4095,9.615,1.8851,-1.1924,0.733,4.4717,-0.2302,-0.0116,0.0727,1767,-13.26,-16.5,-38.28,7.35,-78.66,-12.25,8,996.34,54.315,0,,,,,,,,
-0.0048,11.4566,2.8851,0.0752,9.4873,2.4812,-0.6331,1.797,1.5891,0.0734,-0.0043,-0.1258,1656,-11.52,-13.62,-38.52,17.39,-75.34,-1.74,8,996.35,55.029,0,,,,,,,,
-0.0527,10.5228,2.3416,0.0622,9.4437,2.6426,-0.1508,0.471,-1.1198,-0.028,0.0916,-0.1161,1491,-12.66,-13.5,-40.26,18.86,-74.36,-1.35,8,996.34,55.031,0,,,,,,,,
0.7757,6.8117,0.7757,0.1139,9.5152,2.3703,0.5756,-3.4026,-1.4102,-0.0378,-0.1344,0.1533,1367,-16.5,-13.92,-39,21.87,-76,-2.75,8,996.37,55.558,0,,,,,,,,
0.9888,5.5188,0.2059,0.1242,9.5497,2.2267,0.8646,-4.0309,-2.0208,0.1058,0.0604,0.2773,1275,-16.56,-15.18,-40.62,21.46,-76.85,-3.19,8,996.36,55.569,0,,,,,,,,
-0.8164,9.0264,4.4605,0.3738,9.5405,2.2379,-0.4504,-0.2675,1.4732,-0.3407,0.2254,-0.2767,941,-17.58,-14.16,-38.34,17.66,-76.62,-9.48,8,996.36,55.338,0,,,,,,,,
1.5898,9.4909,0.2634,0.2583,9.5215,2.3332,-1.9869,1.4562,6.3388,-0.0219,-0.1204,0.1301,806,-13.32,-14.82,-43.92,11.35,-76.15,-6.32,8,996.35,55.799,0,,,,,,,,
0.7183,12.7902,3.0838,0.4902,9.5624,2.1191,0.3597,2.7921,-0.6227,0.2017,0.0385,-0.0092,799,-13.02,-15.06,-42.6,4.21,-77.19,-13.03,8,996.38,59.513,0,,,,,,,,
1.6137,11.3177,2.8372,1.2226,9.5668,1.7753,0.3912,1.7509,1.062,0.1449,0.2419,0.2266,815,-13.74,-15.6,-42.06,342.06,-77.3,-34.55,8,996.37,57.162,0,,,,,,,,
2.9186,10.1421,1.3073,2.633,9.2551,1.8922,0.2856,0.8871,-0.5849,0.1412,-0.4967,-0.0208,541,-16.08,-12.48,-38.22,323.63,-70.69,-54.3,8,996.37,56.712,0,,,,,,,,
2.7774,7.7287,-1.3049,1.6066,9.5594,1.4852,0.3327,-2.0821,-1.4397,-0.0042,-0.5987,-0.2321,555,-20.7,-14.76,-34.68,341.82,-77.11,-47.25,8,996.36,56.514,0,,,,,,,,
0.0072,6.3041,2.842,0.1842,8.2519,5.2955,-1.3646,-2.1657,0.6711,0.7887,0.6634,0.4704,1604,-15.3,-1.68,-41.04,21.85,-57.29,-1.99,8,996.39,58.077,0,,,,,,,,
-1.2354,8.866,1.5802,-0.2988,9.6427,1.7602,-0.9366,-0.7767,-0.18,-0.1495,-0.2126,-0.3372,1752,-12.54,-19.74,-37.02,24.96,-76.17,2,8,996.35,56.894,0,,,,,,,,
-2.1668,10.2355,2.8995,-0.3554,9.6418,1.7546,-1.8114,0.5937,1.1448,0.407,0.4923,-0.5156,742,-13.98,-18.96,-37.56,34.96,-79.48,11.45,8,996.33,56.609,0,,,,,,,,
-1.5275,11.787,6.2922,-0.2763,9.5665,2.1392,-1.2513,2.2205,4.153,-0.5191,0.3036,0.0275,742,-13.5,-16.92,-38.82,28.93,-77.29,7.36,8,996.35,56.416,0,,,,,,,,
-0.589,11.9738,4.1349,-0.2176,9.4854,2.4798,0.1553,1.8467,2.0861,-0.3536,0.218,0.1521,869,-13.26,-14.58,-39.6,26.06,-75.3,5.01,8,996.35,56.391,0,,,,,,,,
0.1987,10.0416,3.1317,-0.0213,9.3818,2.8552,-0.0721,-0.1447,-0.7075,-0.1831,0.1258,0.1356,885,-11.76,-12.18,-40.8,19.05,-73.07,0.43,8,996.35,54.042,0,,,,,,,,
0.5291,8.2555,0.237,-0.0125,9.3547,2.9427,0.6661,-2.1096,-2.4902,-0.05,0.0366,-0.2126,936,-13.98,-11.88,-39.54,20.78,-72.48,-1.14,8,996.35,54.452,0,,,,,,,,
0.3041,6.2491,2.9066,0.1106,9.2801,3.1683,0.1935,-3.031,-0.2617,0.093,-0.0177,-0.0116,994,-13.26,-10.5,-40.5,18.32,-71.14,-2,8,996.35,54.408,0,,,,,,,,
0.2801,7.7455,2.0232,0.1386,9.4822,2.4977,0.6372,-0.8987,-2.062,-0.086,-0.413,-0.1955,1016,-17.34,-13.8,-38.52,22.95,-75.22,-3.18,8,996.35,55.971,0,,,,,,,,
-2.1094,10.3457,8.2076,-0.0775,9.4327,2.6811,-0.3344,2.8619,0.4746,-0.5093,0.1136,0.0476,1155,-15.36,-12.72,-38.82,25.68,-74.13,1.65,8,996.34,54.297,0,,,,,,,,
0.1604,12.4694,1.5419,0.1254,9.5072,2.4017,0.7413,2.3134,-0.6539,-0.2308,-0.3012,0.1973,1270,-15.6,-12.78,-39.3,21.78,-73.88,-3.13,8,996.36,54.162,0,,,,,,,,
-0.067,12.1581,2.4039,-0.3915,9.5906,2.0095,0.4753,2.4455,-0.5657,-0.4147,-0.0074,-0.1319,896,-15.18,-16.74,-37.5,36.78,-77.95,11.02,8,996.35,55.298,0,,,,,,,,
-0.1844,9.9961,3.5316,-0.4374,9.4381,2.627,0.1789,-0.1723,-0.2567,-0.3884,0.2907,0.168,984,-13.08,-13.5,-38.82,31.45,-74.24,9.45,8,996.34,54.341,0,,,,,,,,
0.1173,6.9937,0.5148,-0.5437,9.3651,2.8581,-1.1994,-1.6699,-0.8015,0.3129,-0.1448,0.212,1523,-17.58,-14.7,-37.62,41.53,-72.74,10.77,8,996.37,54.98,0,,,,,,,,
-0.9457,8.0112,3.2035,-0.0675,9.4407,2.6531,-0.8783,-1.4295,0.5505,0.261,0.3585,-0.5174,1415,-17.88,-14.58,-37.44,31.33,-74.3,1.46,8,996.36,55.301,0,,,,,,,,
1.6329,9.8884,0.9146,0.2085,9.3353,2.9963,0.7324,0.292,-0.7074,0.275,-0.1033,-0.171,1630,-21.6,-12.36,-37.38,30.49,-72.16,-3.98,8,996.37,55.542,0,,,,,,,,
-1.099,11.5643,4.8628,0.0789,9.4597,2.5841,0.4838,2.5045,-0.5035,-0.5894,-0.135,0.0525,1633,-20.88,-14.7,-36.54,31.56,-74.71,-1.75,8,996.32,54.409,0,,,,,,,,
0.9745,11.8948,3.2826,0.2955,9.4692,2.5332,0.8274,1.9084,1.7118,0.7619,-0.2309,-0.1704,1661,-20.04,-12.72,-37.02,26.56,-73.79,-4.98,8,996.33,53.508,0,,,,,,,,
0.6943,11.0831,3.103,0.0191,9.4263,2.7045,-0.2082,0.8308,0.183,0.0062,0.2938,0.1863,1556,-21.54,-14.76,-35.88,35.39,-73.99,-0.4,8,996.34,54.199,0,,,,,,,,
-0.079,8.4566,2.095,0.257,9.4347,2.6628,-0.3647,-0.1832,-0.4816,-0.0555,-0.2028,0.099,1537,-22.62,-14.52,-36.18,31.38,-74.5,-4.96,8,996.32,55.246,0,,,,,,,,
0.0024,7.0823,0.3903,-0.0759,9.536,2.2866,-0.0558,-2.6022,-1.937,0.0581,-0.2346,-0.0397,1521,-23.64,-17.7,-32.76,42.79,-76.51,1.9,8,996.35,54.129,0,,,,,,,,
-0.3807,8.0639,2.4493,-0.0464,9.5692,2.1443,-0.375,-0.6194,-0.7628,-0.4122,0.295,0.4215,1265,-20.1,-17.52,-35.52,34.03,-77.37,1.24,8,996.35,53.597,0,,,,,,,,
1.0559,9.3425,0.1796,-0.1208,9.6186,1.9073,-0.5113,-0.1852,2.2036,0.1956,-0.3989,-0.0586,1279,-18.42,-18.78,-36.12,33.64,-78.76,3.62,8,996.34,54.72,0,,,,,,,,
1.0655,12.0025,0.3615,-0.146,9.7034,1.4118,1.0821,3.2281,-1.0096,0.1803,0.0745,-0.0556,1265,-16.98,-21.24,-36.18,38.33,-81.08,9.79,8,996.33,53.598,0,,,,,,,,
-0.103,12.127,3.2107,0.0207,9.7126,1.355,-0.1212,2.3067,1.3434,0.0062,-0.0257,-0.1264,1295,-16.08,-20.7,-35.7,25.09,-82.06,-0.87,8,996.34,53.195,0,,,,,,,,
0.8045,10.7072,2.8923,0.2181,9.5213,2.3384,0.2583,1.7989,0.3959,0.611,0.171,0.0623,1394,-21.96,-17.1,-34.68,30.44,-76.14,-5.33,8,996.34,54.079,0,,,,,,,,
0.4382,8.3081,0.1915,0.5011,9.6743,1.5254,-0.8028,-1.2153,-0.2348,0.1437,-0.0013,-0.0489,1317,-21.84,-18.3,-33,16.96,-80.58,-18.19,8,996.35,52.311,0,,,,,,,,
-0.5722,8.5524,3.6513,0.39,9.5275,2.2901,-0.9623,-0.9752,1.3612,-0.2192,0.3323,0.1222,1506,-23.52,-16.08,-33.66,25.85,-77.07,-12.1,8,996.33,54.867,0,,,,,,,,
-0.2179,9.7998,6.2826,0.6778,9.3734,2.8017,-1.2309,1.0536,4.0292,-0.0628,0.0446,0.1307,1568,-22.44,-12.24,-35.46,21.19,-72.91,-13.6,8,996.32,56.139,0,,,,,,,,
1.3935,11.7319,2.605,1.0088,9.3982,2.6126,0.3846,2.3337,-0.0076,0.5181,0.2003,-0.1851,1959,-22.86,-11.34,-34.44,14.66,-73.41,-21.11,8,996.3,54.575,0,,,,,,,,
1.9322,10.8772,2.083,0.8389,9.5019,2.2759,0.8155,1.234,-0.5616,-0.1465,0.0684,0.0654,1619,-22.62,-14.4,-34.56,14.72,-75.68,-20.23,8,996.32,56.041,0,,,,,,,,
0.8404,8.5069,1.3576,1.0959,9.4043,2.5551,-0.2555,-0.8974,-1.1976,0.0013,-0.0385,-0.1466,2027,-26.04,-12.72,-33.84,16.2,-73.53,-23.21,8,996.34,55.494,0,,,,,,,,
-0.4741,7.4438,1.5611,-0.0309,9.6316,1.8444,-0.0864,-2.4943,-1.4278,0.3917,0.1038,0.025,1886,-23.7,-17.82,-33.12,36.96,-78.46,-2.69,8,996.33,54.248,0,,,,,,,,
