ACCELEROMETER X (m/sÂ²),ACCELEROMETER Y (m/sÂ²),ACCELEROMETER Z (m/sÂ²),GRAVITY X (m/sÂ²),GRAVITY Y (m/sÂ²),GRAVITY Z (m/sÂ²),LINEAR ACCELERATION X (m/sÂ²),LINEAR ACCELERATION Y (m/sÂ²),LINEAR ACCELERATION Z (m/sÂ²),GYROSCOPE X (rad/s),GYROSCOPE Y (rad/s),GYROSCOPE Z (rad/s),LIGHT (lux),MAGNETIC FIELD X (Î¼T),MAGNETIC FIELD Y (Î¼T),MAGNETIC FIELD Z (Î¼T),ORIENTATION Z (azimuth Â°),ORIENTATION X (pitch Â°),ORIENTATION Y (roll Â°),PROXIMITY (i),ATMOSPHERIC PRESSURE (hPa),SOUND LEVEL (dB),LOCATION Latitude : ,LOCATION Longitude : ,LOCATION Altitude ( m),LOCATION Altitude-google ( m),LOCATION Altitude-atmospheric pressure ( m),LOCATION Speed ( Kmh),LOCATION Accuracy ( m),LOCATION ORIENTATION (Â°),Satellites in range,Time since start in ms ,YYYY-MO-DD HH-MI-SS_SSS,OUT
1.269,9.3592,2.0495,1.4048,8.9432,3.7705,-0.1358,0.4161,-1.721,0.2426,-0.0407,-0.2278,5133,13.98,-37.5,19.74,189.48,-65.78,-20.43,3.1,993.74,50.227,23.027018,72.53848,50.22,NaN,,0,38.709675,,19 / 19,24,2018-06-11 15:39:16:900,0
0.7614,8.55,3.5866,1.1403,9.3284,2.8019,-0.379,-0.7785,0.7848,0.7032,-0.3009,-0.0696,4622,15.12,-35.1,21.78,188.95,-72.03,-22.15,3.1,993.77,51.591,23.027018,72.53848,50.22,NaN,,0,38.709675,,19 / 19,524,2018-06-11 15:39:17:400,0
2.5547,8.9283,0.9505,1.4322,9.3824,2.4675,0.5311,-0.0807,-0.236,0.267,0.1756,0.1185,4550,14.28,-35.4,22.2,181.74,-73.09,-30.13,3.1,993.73,53.992,23.027018,72.53848,50.22,NaN,,0,38.709675,,19 / 19,1024,2018-06-11 15:39:17:900,0
0.1939,7.2427,1.3504,0.5724,9.3426,2.9254,0.0478,-3.1726,-1.8384,-0.3115,-0.0816,-0.2388,4324,7.74,-35.52,24.66,184.87,-72.3,-11.07,3.1,993.78,59.132,23.027018,72.53848,50.22,NaN,,0,38.709675,,20 / 20,1525,2018-06-11 15:39:18:401,0
-1.1014,5.9258,0.4334,0.3779,9.5649,2.1309,-0.4713,-3.9359,-1.087,1.1094,0.8622,-0.5999,5243,14.4,-32.22,24.42,196.45,-77.25,-10.06,3.1,993.79,62.767,23.027018,72.53848,50.22,NaN,,0,38.709675,,20 / 20,2024,2018-06-11 15:39:18:900,0
-1.5204,6.0647,3.5268,0.5461,9.2037,3.3411,-1.8653,-1.1925,-1.4928,-0.0494,1.1768,0.179,7361,12.84,-36.12,20.22,196.26,-69.8,-9.28,3.1,993.77,65.308,23.027018,72.53848,50.22,NaN,,0,38.709675,,20 / 20,2525,2018-06-11 15:39:19:401,0
0.6369,6.0288,4.767,1.0134,8.7126,4.3856,0.4208,0.4527,-2.6425,-0.6028,-0.2801,-0.1368,7660,11.1,-39.06,15.24,192.51,-62.68,-13.01,3.1,993.76,64.309,23.027018,72.53848,50.22,NaN,,0,38.709675,,20 / 20,3024,2018-06-11 15:39:19:900,0
-0.1077,5.9594,3.9529,1.5204,8.1257,5.2756,-1.2833,-1.6181,-1.6123,0.0709,0.6765,-0.0458,8560,11.64,-41.04,9.42,195.37,-55.95,-16.08,3.1,993.78,57.563,23.027018,72.53848,50.22,NaN,,0,38.709675,,20 / 20,3525,2018-06-11 15:39:20:401,0
0.3304,5.2099,3.7638,1.6248,8.2365,5.0685,-0.6407,-1.8773,-2.3103,0.0056,0.4364,-0.3262,8704,14.58,-40.8,9.24,199.11,-57.13,-17.77,3.1,993.77,53.682,23.027018,72.53848,50.22,NaN,,0,38.709675,,20 / 20,4025,2018-06-11 15:39:20:901,0
-0.091,7.8101,5.3488,1.5079,8.2004,5.1624,-1.5989,-0.3902,0.1864,-0.32,0.5183,0.4893,9048,10.86,-41.7,12.18,191.54,-56.74,-16.28,3.1,993.77,56.111,23.027018,72.53848,50.22,NaN,,0,38.709675,,19 / 20,4524,2018-06-11 15:39:21:400,0
0.3687,7.9969,1.6832,1.2936,9.1289,3.3406,0.7798,0.6636,-4.3964,0.3354,-0.7737,-0.4484,7798,11.34,-36.66,22.32,183.65,-68.57,-21.17,3.1,993.75,63.27,23.027018,72.53848,50.22,NaN,,0,38.709675,,19 / 20,5024,2018-06-11 15:39:21:900,0
0.6967,8.8445,4.2187,0.8154,9.206,3.2794,-1.3039,1.9681,4.897,0.2982,0.3106,0.5437,7125,9.3,-36.54,23.94,184.59,-69.84,-13.96,3.1,993.74,56.786,23.027018,72.53848,50.22,NaN,,0,38.709675,,19 / 20,5524,2018-06-11 15:39:22:400,0
0.929,10.4151,1.4222,0.8738,9.7247,0.9151,0.3305,0.9035,-1.8943,1.0721,-1.1976,0.0324,4364,9.12,-31.56,30.66,170.53,-78.91,-27.29,3.1,993.75,58.106,23.027018,72.53848,50.22,NaN,,0,38.709675,,19 / 20,6024,2018-06-11 15:39:22:900,0
1.1181,14.7056,4.6425,0.7292,9.7349,0.9332,-1.8139,4.3531,6.0509,0.6794,2.0687,-0.595,3674,4.44,-28.44,33.36,137.61,-82.5,-53.32,3.1,993.73,60.529,23.027018,72.53848,50.22,NaN,,0,38.709675,,20 / 21,6525,2018-06-11 15:39:23:401,0
0.6776,13.7503,3.1772,0.7412,9.7258,1.0143,-0.0636,4.0245,2.1629,-0.6297,0.4767,0.1747,3395,-15.96,-27.54,30.66,121.4,-82.64,-36.16,3.1,993.74,63.617,23.027018,72.53848,50.22,NaN,,0,38.709675,,20 / 21,7025,2018-06-11 15:39:23:901,0
-0.7734,12.6921,2.6696,0.4446,9.7457,0.9968,-1.218,2.9463,1.6728,0.3788,0.8512,0.0434,3898,-24.78,-26.22,25.62,116.1,-83.61,-24.04,3.1,993.77,58.551,23.027018,72.53848,50.22,NaN,,0,38.709675,,20 / 22,7524,2018-06-11 15:39:24:400,0
1.6497,11.9283,1.1229,0.4322,9.6893,1.4493,0.2717,2.646,1.3233,0.0789,-0.0425,0.1393,4508,-34.92,-24,12.48,97.98,-81.13,-16.61,3.1,993.77,56.107,23.027018,72.53848,50.22,NaN,,0,38.709675,,20 / 22,8024,2018-06-11 15:39:24:900,0
-0.1939,12.1462,2.6457,-0.0571,9.6868,1.5274,0.4115,2.4929,0.673,0.22,0.4383,-0.2804,5467,-35.88,-24.66,6,107.32,-81.03,2.14,3.1,993.77,53.684,23.027018,72.53848,50.22,NaN,,0,38.709675,,20 / 21,8525,2018-06-11 15:39:25:401,0
1.4054,11.2555,2.1405,0.5918,9.6128,1.8479,0.8974,2.7226,0.6517,0.0318,-0.0614,-0.099,8114,-39.48,-19.98,0.84,80.83,-77.23,-17.45,3.1,993.79,55.712,23.027018,72.53848,50.22,NaN,,0,38.709675,,20 / 21,9024,2018-06-11 15:39:25:900,0
0.5148,8.5332,1.4773,-0.0925,9.5996,2.0023,0.6072,-1.0664,-0.525,0.1198,-0.0175,0.0721,9118,-37.8,-22.62,-1.32,98.63,-78.16,3.12,3.1,993.78,61.695,23.027018,72.53848,50.22,NaN,,0,38.709675,,19 / 19,9525,2018-06-11 15:39:26:401,0
0.9338,7.5084,0.0192,0.2095,9.5161,2.36,0.7243,-2.0077,-2.3408,0.3422,-0.1262,-0.0922,9205,-38.4,-21.06,-1.98,89.82,-76.02,-5.07,3.1,993.78,62.408,23.027018,72.53848,50.22,NaN,,0,38.709675,,19 / 19,10024,2018-06-11 15:39:26:900,0
0.1868,6.3903,0.8619,-0.2482,9.5959,2.0069,0.435,-3.2056,-1.145,0.0807,-0.0908,0.2999,6083,-35.64,-23.88,3.42,109.02,-78.1,7.05,3.1,993.82,61.962,23.027018,72.53848,50.22,NaN,,0,38.709675,,20 / 20,10524,2018-06-11 15:39:27:400,0
-0.2897,6.2251,0.8093,-0.1333,9.6474,1.7548,-0.9226,-3.4367,0.2348,0.0147,0.6863,-0.0611,6398,-35.4,-23.94,5.1,108.9,-79.66,4.34,3.1,993.83,59.245,23.027018,72.53848,50.22,NaN,,0,38.709675,,20 / 20,11024,2018-06-11 15:39:27:900,0
0.012,6.8764,2.2195,0.0592,9.6298,1.8529,1.1428,-1.0416,-1.4458,-0.5253,-0.6821,-0.1888,7249,-31.38,-24.96,14.28,119.1,-79.1,-1.83,3.1,993.82,65.309,23.027018,72.53848,50.22,NaN,,0,38.709675,,20 / 20,11524,2018-06-11 15:39:28:400,0
0.0766,9.3425,3.1245,0.0761,9.571,2.1355,-0.1384,-0.3913,0.3019,0.1632,0.4205,-0.0684,31228,-31.14,-26.94,14.58,122.13,-77.49,-1.48,3.1,993.82,68.595,23.027018,72.53848,50.22,NaN,,0,38.709675,,20 / 20,12025,2018-06-11 15:39:28:901,0
0.079,8.6314,3.996,-0.4646,9.5915,1.9895,-0.4548,1.3121,3.0098,0.0948,-0.4805,0.0073,33322,-28.92,-28.62,14.88,137.16,-77.98,13.15,3.1,993.83,57.815,23.027018,72.53848,50.22,NaN,,0,38.709675,,19 / 21,12525,2018-06-11 15:39:29:401,0
0.34,11.6697,4.2953,-0.387,9.5681,2.1148,1.2322,2.432,1.2204,-0.9022,-0.428,0.2138,18061,-24.6,-31.08,20.46,145.36,-77.34,10.37,3.1,993.83,64.186,23.027018,72.53848,50.22,NaN,,0,38.709675,,19 / 21,13024,2018-06-11 15:39:29:900,0
-0.7039,12.4119,1.9561,-0.4627,9.5926,1.9843,0.3717,3.2503,-1.2444,0.3904,-0.9337,-0.3091,27848.998,-23.88,-29.28,20.64,149.32,-78.01,13.13,3.1,993.83,62.595,23.027018,72.53848,50.22,NaN,,0,38.709675,,21 / 21,13524,2018-06-11 15:39:30:400,0
-0.3663,12.8525,3.8931,-0.2683,9.5699,2.1249,1.0584,2.2554,0.1185,0.1192,0.189,-0.3745,6860,-17.7,-31.08,25.26,156.06,-77.38,7.2,3.1,993.83,60.707,23.027018,72.53848,50.22,NaN,,0,38.709675,,21 / 21,14024,2018-06-11 15:39:30:900,0
-0.8069,10.949,4.846,-0.3694,9.4645,2.5409,-1.2491,1.5012,1.1176,-0.4819,-0.1763,0.2297,5361,-14.46,-32.7,24.6,163.42,-74.82,8.27,3.1,993.8,72.227,23.027018,72.53848,50.22,NaN,,0,38.709675,,22 / 22,14525,2018-06-11 15:39:31:401,0
0.1293,7.609,1.5778,0.0594,9.3999,2.7944,-0.2126,-2.4134,-0.2086,-0.284,-0.0535,0.2437,4479,-12.6,-33.42,25.44,157.77,-73.44,-1.22,3.1,993.81,64.424,23.027018,72.53848,50.22,NaN,,0,38.709675,,22 / 22,15024,2018-06-11 15:39:31:900,0
0.7063,6.8548,0.4477,-0.1087,9.449,2.6219,0.815,-2.5942,-2.1741,0.2139,0.2361,0.226,5346,-19.14,-32.58,22.02,153.47,-74.4,7.24,3.1,993.84,67.192,23.027018,72.53848,50.22,NaN,,0,38.709675,,21 / 21,15524,2018-06-11 15:39:32:400,0
-0.9122,7.1397,1.8029,-0.5255,9.6272,1.7917,-0.6501,-2.6192,0.4732,-0.2693,0.0198,-0.1313,3502,-15.24,-32.04,26.1,168.48,-79.02,16.35,3.1,993.83,55.094,23.027018,72.53848,50.22,NaN,,0,38.709675,,21 / 21,16024,2018-06-11 15:39:32:900,0
-1.0894,6.5076,3.601,-0.0407,9.6641,1.6652,-0.6393,-2.4717,0.267,-0.3628,0.6771,0.0794,3670,-15.36,-29.88,27,155.91,-80.22,1.4,3.1,993.84,71.569,23.026945,72.53851,33.83,NaN,,3.15,6.451613,170.48,20 / 20,16525,2018-06-11 15:39:33:401,0
0.9386,7.8317,1.5467,-0.0172,9.6848,1.5408,1.8058,-1.1277,-1.4929,-0.2864,-0.7853,0.1283,3432,-15.12,-30.42,28.32,155.7,-80.96,0.64,3.1,993.84,60.48,23.026945,72.53851,33.83,NaN,,3.15,6.451613,170.48,20 / 20,17024,2018-06-11 15:39:33:900,0
-0.6249,10.518,3.9458,-0.3962,9.6619,1.6313,-1.7227,1.1578,1.2346,0.0874,-0.3437,-0.0226,3201,-12.24,-31.98,28.32,176.26,-81,18.89,3.1,993.79,59.365,23.026945,72.53851,33.83,NaN,,3.15,6.451613,170.48,21 / 21,17525,2018-06-11 15:39:34:401,0
-2.4206,11.1813,7.1206,-0.1113,9.7407,1.1302,0.0921,3.3896,-2.1215,-0.6267,-0.0914,-0.3115,3481,-10.86,-30.18,29.76,166.82,-83.35,5.62,3.1,993.73,54.874,23.026945,72.53851,33.83,NaN,,3.15,6.451613,170.48,21 / 21,18024,2018-06-11 15:39:34:900,0
0.1796,11.9235,2.854,-0.2647,9.7459,1.0569,1.0069,2.326,0.0205,-0.2992,-0.6961,0.2309,3723,-7.38,-30.18,30.6,181.22,-83.62,14.06,3.1,993.73,63.213,23.026945,72.53851,33.83,NaN,,3.15,6.451613,170.48,21 / 21,18524,2018-06-11 15:39:35:400,0
-0.1413,12.8405,3.0359,-0.0805,9.7788,0.7334,-0.0608,3.0617,2.3025,0.1027,-0.4921,-0.1313,4029,-4.32,-29.22,33.96,179.58,-85.69,6.26,3.1,993.74,70.181,23.026945,72.53851,33.83,NaN,,3.15,6.451613,170.48,21 / 21,19025,2018-06-11 15:39:35:901,0
0.5674,10.7216,0.4429,-0.1339,9.7678,0.8619,0.7133,0.2092,-1.3168,0.0068,0.2984,0.1197,3715,6.36,-29.1,33.6,197.61,-84.9,8.83,3.1,993.73,67.728,23.026945,72.53851,33.83,NaN,,3.15,6.451613,170.48,21 / 21,19524,2018-06-11 15:39:36:400,0
-0.3735,9.2347,1.5922,-0.302,9.557,2.178,-0.6629,-0.2935,-0.6504,-0.1758,-0.2111,0.022,4790,5.04,-33.18,29.16,194.43,-77.04,7.89,3.1,993.74,65.806,23.026945,72.53851,33.83,NaN,,3.15,6.451613,170.48,21 / 21,20024,2018-06-11 15:39:36:900,0
0.8739,7.6641,3.34,-0.2209,9.0393,3.7965,1.0948,-1.3752,-0.4565,0.121,-0.2453,0.1087,5105,13.14,-35.88,22.62,204.46,-68.31,5.62,3.1,993.77,69.878,23.026945,72.53851,33.83,NaN,,3.15,6.451613,170.48,21 / 22,20525,2018-06-11 15:39:37:401,0
-0.6034,8.0184,2.8109,-0.2119,9.288,3.1399,-0.3915,-1.2695,-0.329,0.0716,-0.1915,-0.003,5224,13.98,-33.3,24.18,205.7,-71.28,3.86,3.1,993.75,66.081,23.026945,72.53851,33.83,NaN,,3.15,6.451613,170.48,21 / 22,21025,2018-06-11 15:39:37:901,0
0.8069,8.6553,1.1109,0.1569,9.6233,1.8807,0.65,-0.968,-0.7698,0.1076,-0.7688,-0.0544,4435,17.88,-30.36,26.82,205.01,-78.9,-4.77,3.1,993.71,69.764,23.026945,72.53851,33.83,NaN,,3.15,6.451613,170.48,21 / 21,21525,2018-06-11 15:39:38:401,0
1.4246,11.301,1.1493,0.305,9.5677,2.1298,1.1196,1.7333,-0.9806,-0.3591,-0.0175,-0.0281,4697,19.92,-31.92,24.42,206.44,-77.33,-8.15,3.1,993.71,56.925,23.026945,72.53851,33.83,NaN,,3.15,6.451613,170.48,21 / 21,22025,2018-06-11 15:39:38:901,0
1.3336,11.799,0.1556,0.215,9.6145,1.9196,0.5991,2.1701,-0.7201,0.3806,-0.2154,0.1203,4627,16.74,-31.62,26.22,202.69,-78.64,-6.39,3.1,993.74,59.437,23.026945,72.53851,33.83,NaN,,3.15,6.451613,170.48,20 / 20,22524,2018-06-11 15:39:39:400,0
0.8476,10.5779,1.5347,0.3897,9.5302,2.279,0.8625,0.3749,-0.7012,0.132,0.0351,-0.0568,5317,18.42,-32.4,24.06,202.25,-76.36,-9.7,3.1,993.76,69.409,23.026945,72.53851,33.83,NaN,,3.15,6.451613,170.48,20 / 20,23024,2018-06-11 15:39:39:900,0
0.2394,9.6465,2.2913,0.0883,9.3673,2.9011,0.1512,0.2792,-0.6097,-0.4178,-0.4518,-0.1258,5434,23.28,-30.84,20.52,217.75,-73.67,-0.97,3.1,993.79,62.66,23.026945,72.53851,33.83,NaN,,3.15,6.451613,170.48,20 / 21,23524,2018-06-11 15:39:40:400,0
-0.6105,6.9985,1.9298,0.2676,9.4698,2.5339,-0.8015,-1.9494,-0.47,0.1974,-0.0431,0.0568,4207,30.24,-29.82,14.16,229.5,-74.69,-5.81,3.1,993.75,70.191,23.026945,72.53851,33.83,NaN,,3.15,6.451613,170.48,20 / 21,24024,2018-06-11 15:39:40:900,0
0.5052,6.6345,1.3839,0.4735,9.3706,2.8528,0.5034,-3.3729,-1.8879,0.1058,0.6069,0.1955,4766,23.64,-32.88,19.14,213.23,-72.85,-9.42,3.1,993.72,67.623,23.026945,72.53851,33.83,NaN,,3.15,6.451613,170.48,20 / 20,24524,2018-06-11 15:39:41:400,0
-0.996,8.131,2.2698,0.3476,9.5311,2.2821,-1.4873,-0.6004,2.0371,-0.0366,-0.1158,-0.0501,3380,22.56,-32.76,24.84,208.36,-76.38,-8.66,3.1,993.78,60.012,23.026945,72.53851,33.83,NaN,,3.15,6.451613,170.48,20 / 20,25024,2018-06-11 15:39:41:900,0
0,9.0049,-1.19,0.2585,9.6116,1.9288,-0.8571,0.2887,-1.5457,1.0679,0.4218,0.3195,3143,16.92,-31.26,27.72,200.26,-78.55,-7.63,3.1,993.72,62.429,23.026857,72.53849,31.85,NaN,,3.11,9.677419,245.81,22 / 22,25525,2018-06-11 15:39:42:401,0
0.2993,9.6298,1.7023,0.1348,9.586,2.0642,-1.4637,0.3766,2.9494,0.1192,-0.2765,-0.0617,3327,10.56,-32.1,29.76,193.81,-77.82,-3.74,3.1,993.71,58.499,23.026857,72.53849,31.85,NaN,,3.11,9.677419,245.81,22 / 22,26024,2018-06-11 15:39:42:900,0
-0.4741,10.0392,3.8979,0.2748,9.3496,2.9461,-0.7489,0.6896,0.9518,0.4766,0.153,0.1845,3558,0.9,-35.04,27.24,177.61,-72.44,-5.33,3.1,993.71,59.22,23.026857,72.53849,31.85,NaN,,3.11,9.677419,245.81,21 / 21,26524,2018-06-11 15:39:43:400,0
-0.565,10.894,8.7367,0.4852,9.3799,2.82,0.4821,2.0815,2.2128,-0.0427,0.4034,-0.4136,3673,-8.22,-33.72,27.9,160.16,-73.04,-9.76,3.1,993.7,58.39,23.026857,72.53849,31.85,NaN,,3.11,9.677419,245.81,21 / 21,27024,2018-06-11 15:39:43:900,0
1.269,11.7176,-0.3735,0.0967,9.5521,2.2178,0.3319,2.041,-0.458,0.2921,0.8591,0.3006,2978,-15.72,-31.02,28.62,153.48,-76.92,-2.5,3.1,993.7,63.36,23.026857,72.53849,31.85,NaN,,3.11,9.677419,245.81,21 / 21,27524,2018-06-11 15:39:44:400,0
0.3304,8.5931,4.7383,-0.0931,8.7335,4.4595,-0.0865,0.2139,1.1647,0.4069,0.4254,0.3232,3357,-31.5,-29.82,10.92,127.98,-62.95,1.2,3.1,993.71,57.049,23.026857,72.53849,31.85,NaN,,3.11,9.677419,245.81,21 / 21,28024,2018-06-11 15:39:44:900,0
0.498,7.5228,1.4078,0.4011,9.3785,2.8378,0.8918,-2.5931,-2.1483,0.2377,0.1927,0.0483,4728,-0.18,-32.64,26.34,173.94,-73.01,-8.05,3.1,993.76,47.412,23.026665,72.538506,28.08,NaN,,4.76,9.677419,190.04,18 / 20,21,2018-06-11 15:40:13:628,0
0.3304,6.6872,0.5842,0.4271,9.5233,2.301,-0.9634,-2.3668,-0.8165,0.2511,-0.1488,0.0354,4962,0.18,-31.38,28.56,171.42,-76.19,-10.52,3.1,993.75,45.935,23.026665,72.538506,28.08,NaN,,4.76,9.677419,190.04,18 / 20,520,2018-06-11 15:40:14:127,0
0.826,5.854,0.2155,0.2271,9.5649,2.152,0.599,-3.7109,-1.9365,-0.2858,-0.1097,0.0837,4965,-1.8,-30.66,29.28,170.08,-78.24,-7.91,3.1,993.75,48.666,23.026548,72.53851,27.56,NaN,,4.42,9.677419,175.28,18 / 19,1020,2018-06-11 15:40:14:627,0
-0.8811,7.1038,1.0942,0.2127,9.4993,2.4265,-1.1009,-1.9119,-1.0642,0.1381,-0.0987,0.0031,5704,1.74,-31.74,28.14,179.26,-75.62,-5.01,3.1,993.74,46.573,23.026548,72.53851,27.56,NaN,,4.42,9.677419,175.28,18 / 19,1520,2018-06-11 15:40:15:127,0
-1.1229,7.7766,3.7542,0.5427,9.5953,1.9507,-1.6178,-1.1771,0.7477,-0.7562,0.2367,0.2077,7019,0.12,-30.48,28.98,166.95,-78.08,-15.55,3.1,993.76,48.231,23.026548,72.53851,27.56,NaN,,4.42,9.677419,175.28,18 / 19,2020,2018-06-11 15:40:15:627,0
1.1756,9.1796,-0.1628,1.0029,9.5536,1.9728,1.5973,-0.4027,-0.4764,0.7435,-0.4145,-0.6335,6134,2.4,-31.08,27.72,161.29,-76.96,-26.95,3.1,993.74,45.58,23.026548,72.53851,27.56,NaN,,4.42,9.677419,175.28,18 / 19,2520,2018-06-11 15:40:16:127,0
1.0846,9.6968,5.4302,0.9178,9.5862,1.8525,0.265,0.9581,2.4787,-0.6297,0.6178,0.6616,5005,-2.16,-30.9,28.86,154.73,-77.83,-26.36,3.1,993.73,47.063,23.026548,72.53851,27.56,NaN,,4.42,9.677419,175.28,18 / 19,3020,2018-06-11 15:40:16:627,0
1.4773,9.5699,4.2738,0.8645,9.4992,2.2777,-0.685,1.1529,6.0065,0.6824,-0.8275,-0.2871,5340,-3.78,-32.76,26.94,154.77,-76.89,-22.97,3.1,993.7,46.948,23.026548,72.53851,27.56,NaN,,4.42,9.677419,175.28,18 / 19,3521,2018-06-11 15:40:17:128,0
1.087,12.1964,3.091,0.9173,9.6869,1.2216,0.481,3.1991,1.0194,-0.5253,0.4242,0.248,4817,-2.58,-29.22,31.62,142.35,-81.04,-36.9,3.1,993.72,49.879,23.026548,72.53851,27.56,NaN,,4.42,9.677419,175.28,18 / 20,4020,2018-06-11 15:40:17:627,0
1.9465,12.8525,2.2506,0.7631,9.5874,1.9156,1.0877,3.1956,1.264,0.1339,-0.417,0.0275,5951,-6,-32.34,28.8,152.18,-77.86,-21.72,3.1,993.73,49.885,23.026548,72.53851,27.56,NaN,,4.42,9.677419,175.28,18 / 20,4520,2018-06-11 15:40:18:127,0
0.577,12.7423,2.0447,0.4862,9.7524,0.9075,0.0909,2.9899,1.1373,0.7007,0.7638,-0.1997,6266,-0.96,-29.7,31.38,152.53,-83.97,-28.18,3.1,993.73,49.562,23.026548,72.53851,27.56,NaN,,4.42,9.677419,175.28,18 / 20,5020,2018-06-11 15:40:18:627,0
0.2777,13.293,1.2857,0.4647,9.6152,1.8715,-0.1271,1.4464,-0.1596,0.6598,0.4651,-0.1582,5576,-0.36,-32.04,31.08,168.21,-78.66,-13.94,3.1,993.71,47.573,23.026548,72.53851,27.56,NaN,,4.42,9.677419,175.28,18 / 20,5520,2018-06-11 15:40:19:127,0
2.0782,10.0368,0.249,0.4911,9.6882,1.4382,0.7252,-1.5069,-1.3066,-0.0757,-0.3003,0.0434,5072,2.76,-30,32.28,168.08,-81.08,-18.85,3.1,993.73,47.791,23.026548,72.53851,27.56,NaN,,4.42,9.677419,175.28,18 / 19,6020,2018-06-11 15:40:19:627,0
0.4453,8.8995,0.5627,0.536,9.5943,1.9577,0.2972,-2.9382,-2.0726,0.1271,0.2055,-0.1588,5305,-0.96,-31.86,30.9,165.59,-78.05,-15.31,3.1,993.73,45.687,23.026548,72.53851,27.56,NaN,,4.42,9.677419,175.28,18 / 19,6520,2018-06-11 15:40:20:127,0
0.7949,6.1102,-0.8356,0.202,9.7083,1.3706,0.5929,-3.5981,-2.2062,0.5517,-0.2606,0.0654,5123,1.68,-30.06,32.46,175.72,-81.88,-8.38,3.1,993.75,46.146,23.026548,72.53851,27.56,NaN,,4.42,9.677419,175.28,19 / 21,7021,2018-06-11 15:40:20:628,0
0.7398,6.601,0.5148,0.3276,9.6112,1.9203,0.3668,-3.5369,-1.9346,-0.1215,-0.1097,0.1735,5141,-3.48,-30.72,31.62,167.16,-78.54,-9.68,3.1,993.74,46,23.026548,72.53851,27.56,NaN,,4.42,9.677419,175.28,19 / 21,7520,2018-06-11 15:40:21:127,0
-0.8572,6.6968,1.0726,0.4439,9.5962,1.9712,-1.3011,-2.8994,-0.8986,0.0948,0.109,-0.2669,4915,-0.18,-30.66,30.48,169.34,-78.11,-12.69,3.1,993.75,45.845,23.026548,72.53851,27.56,NaN,,4.42,9.677419,175.28,19 / 21,8020,2018-06-11 15:40:21:627,0
-1.1325,7.9179,2.3608,0.3576,9.6102,1.9201,-0.3983,-1.3044,-1.6136,-0.0054,0.6435,-0.2077,4796,-0.54,-30.18,30.66,169.42,-78.51,-10.55,3.1,993.73,46.879,23.026548,72.53851,27.56,NaN,,4.42,9.677419,175.28,19 / 21,8521,2018-06-11 15:40:22:128,0
0.7757,9.4598,-0.0479,-0.158,9.6888,1.5076,1.3288,-0.2697,-1.5172,-0.0219,-0.8922,-0.1527,4869,1.98,-28.26,31.38,188.59,-81.11,5.98,3.1,993.75,45.554,23.026548,72.53851,27.56,NaN,,4.42,9.677419,175.28,19 / 21,9020,2018-06-11 15:40:22:627,0
-1.439,10.0775,3.8859,-0.238,9.6613,1.6652,0.4774,1.666,1.9382,-0.4685,0.1493,0.0641,4709,0.12,-29.34,29.88,187.07,-80.12,8.13,3.1,993.75,45.557,23.026548,72.53851,27.56,NaN,,4.42,9.677419,175.28,19 / 21,9520,2018-06-11 15:40:23:127,0
-0.6058,10.9754,3.0886,-0.7954,9.7357,0.8686,0.1896,1.2397,2.22,0.2652,-0.3504,0.2877,4865,0.96,-27.36,32.16,220.68,-83.1,42.48,3.1,993.76,46.595,23.02644,72.53854,27.79,NaN,,3.89,9.677419,173.5,18 / 21,10021,2018-06-11 15:40:23:628,0
-0.5842,13.1015,1.3192,-0.3369,9.7964,0.2953,0.301,3.1327,-1.6624,-0.9235,-0.2123,-0.0159,4767,0.72,-25.8,34.68,228.97,-87.38,48.77,3.1,993.75,47.534,23.02644,72.53854,27.79,NaN,,3.89,9.677419,173.5,18 / 21,10520,2018-06-11 15:40:24:127,0
1.4461,11.9977,-0.4382,0.2221,9.7665,0.8577,0.556,2.4443,-0.0412,-0.1972,-0.7242,0.022,6406,2.58,-27.66,32.7,171.3,-84.82,-14.52,3.1,993.74,48.595,23.02644,72.53854,27.79,NaN,,3.89,9.677419,173.5,18 / 21,11020,2018-06-11 15:40:24:627,0
-0.4214,12.5316,2.2674,0.0975,9.7704,0.8361,0.5106,1.9998,0.1408,0.1033,0.4554,-0.292,6343,2.52,-28.32,32.94,178.64,-85.08,-6.65,3.1,993.75,50.61,23.02644,72.53854,27.79,NaN,,3.89,9.677419,173.5,18 / 21,11520,2018-06-11 15:40:25:127,0
0.6465,12.4574,0.7997,0.5541,9.7049,1.2957,0.7963,-0.2978,0.6676,1.1638,0.3485,-0.6145,6638,-3.48,-28.14,33,154.43,-81.74,-23.15,3.1,993.76,51.701,23.02644,72.53854,27.79,NaN,,3.89,9.677419,173.5,17 / 20,12020,2018-06-11 15:40:25:627,0
1.1971,9.2347,-0.7925,-0.0504,9.7827,0.6824,0.5939,-2.3294,-1.4701,0.0196,-0.1579,0.2077,5961,3.18,-26.52,34.56,188.68,-86,4.22,3.1,993.76,55.619,23.02644,72.53854,27.79,NaN,,3.89,9.677419,173.5,17 / 20,12520,2018-06-11 15:40:26:127,0
-0.5004,10.5707,0.6058,-0.145,9.6933,1.4795,-1.0187,2.5462,0.2324,0.2573,0.3869,-0.2926,6889,-0.42,-30.18,32.64,176.95,-81.16,-3.44,3.1,993.74,58.958,23.02644,72.53854,27.79,NaN,,3.89,9.677419,173.5,18 / 21,13021,2018-06-11 15:40:26:628,0
0.1748,6.3448,-0.5818,0.0316,9.7761,0.7722,0.1431,-3.4313,-1.354,0.1247,-0.4023,0.259,6002,2.64,-27.54,34.62,182.41,-85.48,-2.35,3.1,993.74,48.517,23.02644,72.53854,27.79,NaN,,3.89,9.677419,173.5,18 / 21,13521,2018-06-11 15:40:27:128,0
0.0742,7.5061,-0.6512,0.0321,9.6994,1.4458,-0.7456,-2.8949,-1.8265,0.0551,-0.2313,0.2297,6028,-0.54,-29.76,31.92,177.28,-81.52,-1.27,3.1,993.73,47.208,23.02644,72.53854,27.79,NaN,,3.89,9.677419,173.5,19 / 21,14021,2018-06-11 15:40:27:628,0
-0.4501,6.9075,0.7686,-0.2437,9.7415,1.1016,-0.4889,-2.3576,-0.5365,0.4759,0.2684,0.3042,5399,3.36,-28.26,32.4,196.32,-83.39,12.48,3.1,993.75,49.771,23.02644,72.53854,27.79,NaN,,3.89,9.677419,173.5,19 / 21,14520,2018-06-11 15:40:28:127,0
0.8595,5.6337,0.4693,0.0854,9.7559,0.9923,-0.3799,-4.0432,-0.0729,-0.7214,-0.1335,0.5052,5090,-0.72,-27.6,31.62,173.81,-84.17,-4.92,3.1,993.76,49.452,23.02644,72.53854,27.79,NaN,,3.89,9.677419,173.5,18 / 21,15020,2018-06-11 15:40:28:627,0
-0.7853,7.2427,0.5674,-0.0338,9.7543,1.0116,-0.5002,-2.2386,-0.2455,-0.0806,-0.0309,-0.1014,5363,1.68,-28.32,33,184.97,-84.08,1.91,3.1,993.75,48.035,23.02644,72.53854,27.79,NaN,,3.89,9.677419,173.5,18 / 21,15520,2018-06-11 15:40:29:127,0
-0.5148,6.7973,1.1277,-0.421,9.6859,1.4755,-0.4266,-2.515,1.3091,0.0343,0.0375,-0.1393,4394,-2.52,-30.48,32.58,189.51,-81,15.93,3.1,993.75,57.156,23.02644,72.53854,27.79,NaN,,3.89,9.677419,173.5,19 / 21,16020,2018-06-11 15:40:29:627,0
0.0072,8.0974,2.9426,-0.1663,9.7692,0.8395,0.6691,-1.1474,2.4407,-0.0292,-0.1427,-0.2028,3523,-0.06,-27.9,34.2,190.49,-84.99,11.21,3.1,993.74,47.182,23.02644,72.53854,27.79,NaN,,3.89,9.677419,173.5,19 / 21,16520,2018-06-11 15:40:30:127,0
-1.3719,8.8133,0.2107,-0.2894,9.7865,0.5571,-0.5941,-0.6332,-0.8827,-0.0396,0.1426,0.0635,3175,2.46,-27.06,35.16,209.39,-86.33,27.45,3.1,993.73,45.518,23.02644,72.53854,27.79,NaN,,3.89,9.677419,173.5,17 / 19,17020,2018-06-11 15:40:30:627,0
2.5331,9.0695,-0.4549,0.0364,9.7649,0.9028,1.7019,-0.3363,-1.396,-0.105,-0.4554,0.1234,3096,3.12,-28.98,33.66,182.55,-84.71,-2.31,3.1,993.74,45.66,23.02644,72.53854,27.79,NaN,,3.89,9.677419,173.5,17 / 19,17521,2018-06-11 15:40:31:128,0
-1.3552,10.724,0.9074,-0.0067,9.7589,0.9665,-0.0244,2.3035,1.7151,-0.243,0.1805,0.0171,2798,2.76,-27.78,34.02,185.06,-84.34,0.4,3.1,993.74,51.843,23.02644,72.53854,27.79,NaN,,3.89,9.677419,173.5,18 / 21,18020,2018-06-11 15:40:31:627,0
1.1708,10.281,0.9817,0.0956,9.7855,0.6365,1.0752,0.4955,0.3451,-0.1154,-1.018,0.2602,3020,-0.3,-26.64,33.96,171.86,-86.24,-8.54,3.1,993.74,54.978,23.02644,72.53854,27.79,NaN,,3.89,9.677419,173.5,18 / 21,18520,2018-06-11 15:40:32:127,0
-0.4334,14.5309,1.2402,-0.1999,9.771,0.8105,-0.5495,3.6991,3.2286,-1.3157,-0.208,0.3519,2786,4.08,-25.74,34.26,221.75,-87.64,36.21,3.1,993.73,46.317,23.026333,72.538536,27.93,NaN,,3.89,9.677419,192.97,18 / 20,19021,2018-06-11 15:40:32:628,0
-1.6257,12.9698,3.6896,-0.206,9.7934,0.4649,0.218,3.6193,-1.4777,-0.4764,-0.0535,-0.1319,2914,2.52,-26.22,34.44,207.91,-87.03,23.9,3.1,993.72,48.396,23.026333,72.538536,27.93,NaN,,3.89,9.677419,192.97,18 / 20,19521,2018-06-11 15:40:33:128,0
0.9745,11.6434,-1.7478,-0.2922,9.7998,0.221,0.1773,3.0407,-0.4963,-0.3878,-0.1195,0.1845,2969,2.46,-26.04,34.68,234.89,-87.86,52.9,3.1,993.72,43.36,23.026333,72.538536,27.93,NaN,,3.89,9.677419,192.97,17 / 18,20021,2018-06-11 15:40:33:628,0
1.4054,12.8309,-1.8316,-0.125,9.7939,0.4828,1.1186,2.5773,-1.304,0.2689,-0.5123,0.1979,3500,2.82,-27.24,34.86,198.71,-87.09,14.51,3.1,993.72,46.233,23.026333,72.538536,27.93,NaN,,3.89,9.677419,192.97,17 / 18,20520,2018-06-11 15:40:34:127,0
-0.4956,12.4478,1.3911,-0.2521,9.8019,0.1706,-0.107,2.3371,0.8039,-0.0054,0.335,-0.0904,3154,4.86,-26.04,34.98,242.89,-88.22,55.91,3.1,993.73,44.16,23.026333,72.538536,27.93,NaN,,3.89,9.677419,192.97,19 / 20,21020,2018-06-11 15:40:34:627,0
-0.51,13.4151,0.6393,-0.3248,9.7831,0.5962,1.1509,2.7653,-1.8125,0.0025,-0.5336,0.2584,3483,1.86,-26.94,33.9,206.04,-85.9,24.05,3.1,993.73,44.516,23.026333,72.538536,27.93,NaN,,3.89,9.677419,192.97,19 / 20,21520,2018-06-11 15:40:35:127,0
-0.8308,12.6537,0.8021,-0.1859,9.7987,0.3488,-0.4007,2.2828,0.6209,0.4087,0.3381,-0.1051,3337,5.1,-26.52,33.84,189.28,-85.75,1.42,3.1,993.72,51.809,23.026333,72.538536,27.93,NaN,,3.89,9.677419,192.97,19 / 21,22020,2018-06-11 15:40:35:627,0
0.0311,12.7328,2.8612,-0.4073,9.739,1.0748,0.5078,2.4071,0.6922,-0.0818,-0.0187,0.0672,3309,0.66,-29.22,33.24,200.55,-83.27,20.75,3.1,993.74,44.012,23.026333,72.538536,27.93,NaN,,3.89,9.677419,192.97,19 / 21,22521,2018-06-11 15:40:36:128,0
1.925,8.6745,-0.3256,0.3962,9.7523,0.9519,1.5288,-2.3157,-1.6798,0.2499,0.3423,-0.1906,3378,2.46,-27.84,32.82,162.33,-83.96,-22.6,3.1,993.73,44.254,23.026333,72.538536,27.93,NaN,,3.89,9.677419,192.97,19 / 22,23020,2018-06-11 15:40:36:627,0
-0.0192,11.6841,1.4988,0.0842,9.7274,1.2413,-0.0147,1.0516,0.4227,0.4533,0.3362,-0.124,2544,-0.42,-29.7,32.34,176.51,-82.71,-3.88,3.1,993.73,46.399,23.026333,72.538536,27.93,NaN,,3.89,9.677419,192.97,19 / 22,23520,2018-06-11 15:40:37:127,0
0.7853,8.6026,-0.1915,0.1487,9.776,0.7606,0.311,-1.7623,-1.0479,0.1143,-0.26,0.2358,2234,2.4,-28.08,33.84,172.75,-85.47,-11.06,3.1,993.76,49.634,23.026333,72.538536,27.93,NaN,,3.89,9.677419,192.97,19 / 22,24020,2018-06-11 15:40:37:627,0
-0.2275,10.0129,1.1253,0.029,9.7546,1.0086,-0.2564,0.2583,0.1167,0.4985,0.2422,-0.4771,2121,-1.44,-29.34,32.22,165.88,-82.68,-13.84,3.1,993.78,55.948,23.026333,72.538536,27.93,NaN,,3.89,9.677419,192.97,19 / 22,24520,2018-06-11 15:40:38:127,0
-0.17,6.3855,-0.4046,0.3586,9.759,0.8966,-0.3131,-2.8778,-1.7059,0.5065,-0.1244,0.0922,1979,2.58,-28.74,33.18,174.43,-83.09,-11.31,3.1,993.8,57.714,23.026333,72.538536,27.93,NaN,,3.89,9.677419,192.97,18 / 21,25020,2018-06-11 15:40:38:627,0
0.5722,6.5843,-0.8643,0.171,9.7537,1.0035,0.4012,-3.1694,-1.8678,0.0685,-0.1408,0.0165,1833,-0.72,-28.98,33.3,169.69,-83.41,-9.54,3.1,993.79,53.255,23.026333,72.538536,27.93,NaN,,3.89,9.677419,192.97,18 / 21,25520,2018-06-11 15:40:39:127,0
-0.0168,6.4238,-0.4405,-0.0733,9.7444,1.1009,-0.3122,-3.3014,-1.2063,0.2004,-0.1158,0.3971,1793,2.16,-27.84,32.82,186.69,-83.54,3.81,3.1,993.77,55.44,23.026333,72.538536,27.93,NaN,,3.89,9.677419,192.97,17 / 20,26020,2018-06-11 15:40:39:627,0
0.6153,6.0743,0.0694,0.1668,9.7454,1.0816,-0.0543,-4.1188,-0.1262,-0.3017,-0.004,0.2156,1927,-1.56,-28.86,32.76,168.79,-83.59,-8.77,3.1,993.78,56.706,23.026333,72.538536,27.93,NaN,,3.89,9.677419,192.97,17 / 20,26520,2018-06-11 15:40:40:127,0
-1.0271,6.4885,0.7662,-0.0415,9.7724,0.8172,-0.7726,-2.6231,-0.1708,0.0758,-0.0743,-0.0629,2373,2.82,-27.9,32.16,187.73,-85.21,2.91,3.1,993.78,57.395,23.026333,72.538536,27.93,NaN,,3.89,9.677419,192.97,17 / 22,27020,2018-06-11 15:40:40:627,0
-0.182,6.3233,0.7231,0.0258,9.7281,1.2388,-0.2077,-3.4048,-0.5157,-0.2864,-0.0242,0.4105,2701,-0.36,-28.92,32.16,178.92,-82.74,-1.19,3.1,993.79,59.643,23.026333,72.538536,27.93,NaN,,3.89,9.677419,192.97,17 / 22,27522,2018-06-11 15:40:41:129,0
-0.5387,7.4869,1.3911,0.2599,9.7374,1.1339,-0.7986,-2.2505,0.2571,0.2786,0.1011,-0.0373,3013,3.12,-29.52,32.16,173.16,-83.19,-12.91,3.1,993.77,55.597,23.026188,72.53846,28.04,NaN,,4.19,9.677419,197.71,17 / 18,28020,2018-06-11 15:40:41:627,0
-0.7279,7.9322,2.9761,0.6345,9.7438,0.9086,-1.4198,-0.7581,1.2678,0.0172,0.3118,0.1423,3423,3.3,-28.68,33.36,152.72,-83.51,-34.93,3.1,993.75,55.333,23.026188,72.53846,28.04,NaN,,4.19,9.677419,197.71,17 / 18,28523,2018-06-11 15:40:42:130,0
0.51,7.5491,1.2642,0.2395,9.7894,0.5296,0.2705,-2.2402,0.7346,-0.7366,-0.1806,0.2505,5321,7.86,-27.36,34.44,169.37,-86.6,-24.33,3.1,993.75,46.083,23.026188,72.53846,28.04,NaN,,4.19,9.677419,197.71,17 / 21,29021,2018-06-11 15:40:42:628,0
-0.5363,7.7862,0.9649,0.4427,9.7597,0.8496,-0.493,-1.1786,0.0698,-0.0793,0.1689,0.0196,4794,4.14,-27.96,32.7,160.85,-84.39,-27.52,3.1,993.74,51.532,23.026188,72.53846,28.04,NaN,,4.19,9.677419,197.71,17 / 21,29520,2018-06-11 15:40:43:127,0
0.9529,9.2874,-1.3121,0.2544,9.8033,0.0072,1.4742,-0.4609,-0.8883,-0.1484,-0.902,-0.1649,4944,8.28,-24.66,35.04,105.49,-88.51,-88.38,3.1,993.75,49.381,23.026188,72.53846,28.04,NaN,,4.19,9.677419,197.71,18 / 20,30020,2018-06-11 15:40:43:627,0
0.0694,9.2658,-0.8069,0.2771,9.796,0.3621,-2.1231,-0.1902,-0.7069,0.7007,1.0522,-0.5907,4926,4.44,-27.54,33.72,153.59,-85.35,-34.73,3.1,993.74,52.703,23.026188,72.53846,28.04,NaN,,4.19,9.677419,197.71,18 / 20,30521,2018-06-11 15:40:44:128,0
2.0184,9.455,-0.9625,0.1314,9.7855,0.6306,2.0307,-0.9769,-2.0504,-0.309,-0.7425,0.0935,4109,5.22,-27.12,33.42,189.74,-86.53,1.58,3.1,993.76,44.136,23.026188,72.53846,28.04,NaN,,4.19,9.677419,197.71,18 / 21,31020,2018-06-11 15:40:44:627,0
0.0742,10.4582,0.2083,0.3878,9.7989,0.0194,-0.3136,0.6592,0.1889,-0.287,-0.1384,0.1729,3967,7.32,-24.54,35.1,105.7,-87.73,-87.13,3.1,993.75,48.78,23.026188,72.53846,28.04,NaN,,4.19,9.677419,197.71,18 / 21,31520,2018-06-11 15:40:45:127,0
0.5076,10.36,1.9082,0.0408,9.7924,0.5258,-1.0775,3.3234,3.7408,0.0031,-0.1427,0.1533,4120,5.4,-26.94,34.62,183.55,-86.92,-4.44,3.1,993.77,48.059,23.026188,72.53846,28.04,NaN,,4.19,9.677419,197.71,17 / 20,32020,2018-06-11 15:40:45:627,0
0.3831,11.6003,2.6409,0.5542,9.7723,0.6039,0.3604,2.1512,0.9691,-0.6401,0.2177,0.2334,5167,3.6,-27.18,34.38,146.18,-85.21,-42.54,3.1,993.76,50.367,23.026188,72.53846,28.04,NaN,,4.19,9.677419,197.71,17 / 20,32520,2018-06-11 15:40:46:127,0
-0.2179,13.4055,3.2347,0.4582,9.7867,0.4258,1.0143,3.8487,-1.3596,0.077,0.0552,-0.1344,5112,1.98,-27.12,33.78,138.15,-86.34,-47.1,3.1,993.74,49.624,23.026188,72.53846,28.04,NaN,,4.19,9.677419,197.71,18 / 20,33021,2018-06-11 15:40:46:628,0
0.5555,13.1254,2.2099,0.5768,9.781,0.4109,-0.0213,3.3444,1.799,-0.6083,0.3271,0.1918,5324,2.82,-25.44,35.04,79.06,-87.41,-107.66,3.1,993.76,54.545,23.026188,72.53846,28.04,NaN,,4.19,9.677419,197.71,18 / 20,33521,2018-06-11 15:40:47:128,0
1.743,14.0328,-1.1277,0.38,9.7924,0.3658,1.3631,4.2404,-1.4935,0.0636,0.3851,-0.4148,5077,0,-26.7,34.2,141.26,-85.68,-40.81,3.1,993.76,50.87,23.026188,72.53846,28.04,NaN,,4.19,9.677419,197.71,18 / 21,34020,2018-06-11 15:40:47:627,0
2.1596,12.8381,-0.4549,0.5396,9.7892,0.2243,0.952,3.1566,-0.5116,-0.2339,0.197,0.2767,4697,-0.54,-25.68,35.16,113.23,-86.58,-67.43,3.1,993.76,50.949,23.026188,72.53846,28.04,NaN,,4.19,9.677419,197.71,18 / 21,34520,2018-06-11 15:40:48:127,0
1.1588,13.372,-0.9409,0.4637,9.7911,0.2978,0.1875,3.1763,-0.657,0.2444,-0.2783,0.0287,5006,0.3,-26.46,35.16,124.64,-86.78,-57.29,3.1,993.76,53.767,23.026188,72.53846,28.04,NaN,,4.19,9.677419,197.71,18 / 20,35020,2018-06-11 15:40:48:627,0
0.9577,12.7663,1.7071,0.607,9.7787,0.4237,1.0259,1.247,0.0576,0.1058,0.4126,-0.0452,5012,0.06,-27.72,34.56,127.58,-85.67,-55.08,3.1,993.77,54.557,23.026188,72.53846,28.04,NaN,,4.19,9.677419,197.71,18 / 20,35520,2018-06-11 15:40:49:127,0
0.3017,12.8788,1.0631,0.4475,9.7548,0.9018,0.0338,0.8542,0.6042,0.5181,0.3766,-0.2181,4669,-3.72,-29.16,34.02,149.31,-84.11,-26.39,3.1,993.75,50.655,23.026188,72.53846,28.04,NaN,,4.19,9.677419,197.71,18 / 20,36020,2018-06-11 15:40:49:627,0
1.5467,8.7822,-0.8955,0.5758,9.7648,0.6987,0.0707,-2.8621,-0.9812,0.2017,-0.1072,0.0373,4185,0.36,-28.38,35.1,142.95,-84.7,-39.49,3.1,993.74,53.351,23.026188,72.53846,28.04,NaN,,4.19,9.677419,197.71,18 / 20,36520,2018-06-11 15:40:50:127,0
-0.1149,10.1972,-0.0766,0.3886,9.7531,0.9466,-0.5035,0.4441,-1.0232,0.0355,0.28,-0.0049,4263,-2.1,-28.56,35.7,151.15,-82.93,-28.23,3.1,993.76,60.138,23.02608,72.53846,28.27,NaN,,3.88,9.677419,200.49,19 / 21,37020,2018-06-11 15:40:50:627,0
0.9601,7.2427,-0.996,0.7804,9.7296,0.9468,0.036,-3.1908,-1.8063,0.2316,-0.3186,0.1222,3492,3.24,-28.44,34.2,148.43,-82.81,-39.5,3.1,993.77,56.908,23.02608,72.53846,28.27,NaN,,3.88,9.677419,200.49,19 / 21,37520,2018-06-11 15:40:51:127,0
1.1828,7.0056,-0.2921,0.6068,9.7224,1.1298,0.327,-3.2962,-1.1609,0.4362,0.3882,-0.088,3438,-3,-29.16,33.24,149.67,-82.49,-28.24,3.1,993.76,49.666,23.02608,72.53846,28.27,NaN,,3.88,9.677419,200.49,18 / 20,38020,2018-06-11 15:40:51:627,0
0.1628,6.3257,0.2969,0.2371,9.7612,0.9127,-1.3719,-1.5704,0.9811,0.4246,0.0473,-0.1191,3120,-0.54,-28.26,33.6,164.87,-84.48,-14.56,3.1,993.74,47.96,23.02608,72.53846,28.27,NaN,,3.88,9.677419,200.49,18 / 20,38520,2018-06-11 15:40:52:127,0
0.3232,4.9657,-0.5746,0.7329,9.7327,0.9523,-0.8047,-4.3887,-0.9523,-0.2235,-0.3974,0.2431,3024,-1.08,-28.98,33.96,144.05,-82.96,-37.58,3.1,993.71,47.926,23.02608,72.53846,28.27,NaN,,3.88,9.677419,200.49,19 / 21,39020,2018-06-11 15:40:52:627,0
-0.85,7.688,0.905,0.1563,9.7907,0.5368,-0.5705,-1.4131,1.539,0.0606,0.233,-0.372,3159,-0.06,-27,37.08,164.38,-86.73,-16.24,3.1,993.73,51.248,23.02608,72.53846,28.27,NaN,,3.88,9.677419,200.49,19 / 21,39520,2018-06-11 15:40:53:127,0
-1.5946,7.4558,3.4717,-0.1218,9.6254,1.8729,-1.4728,-2.1696,1.5988,-1.1306,-0.2826,0.0122,4168,-2.34,-31.14,31.98,180.12,-78.97,3.72,3.1,993.73,52.847,23.02608,72.53846,28.27,NaN,,3.88,9.677419,200.49,18 / 20,40020,2018-06-11 15:40:53:627,0
-0.4525,7.9873,2.5906,-0.2274,9.4461,2.6247,0.4166,-0.8052,-0.4148,-0.7146,0.2373,-0.157,5447,-0.48,-34.08,28.08,183.84,-74.42,4.95,3.1,993.73,50.289,23.02608,72.53846,28.27,NaN,,3.88,9.677419,200.49,18 / 20,40521,2018-06-11 15:40:54:128,0
-1.5443,9.534,0.8548,-0.3835,9.3506,2.9307,-1.1608,0.1834,-2.0759,0.4717,0.0552,-0.1362,5674,-0.18,-35.7,25.8,185.44,-72.46,7.45,3.1,993.77,61.293,23.02608,72.53846,28.27,NaN,,3.88,9.677419,200.49,18 / 21,41020,2018-06-11 15:40:54:627,0
1.1612,9.0551,0.9505,-0.1555,9.6212,1.8919,0.5721,0.7197,1.4361,-0.0738,-0.679,0.2841,4381,2.64,-32.64,30.12,188.73,-78.84,4.7,3.1,993.74,55.531,23.02608,72.53846,28.27,NaN,,3.88,9.677419,200.49,18 / 21,41520,2018-06-11 15:40:55:127,0
-0.5052,10.3504,6.5795,0.1603,9.5276,2.3173,-0.4165,1.7471,3.5032,-1.1233,0.0394,0.3952,3959,2.22,-33.6,29.1,179.99,-76.3,-3.96,3.1,993.75,55.351,23.02608,72.53846,28.27,NaN,,3.88,9.677419,200.49,16 / 17,42020,2018-06-11 15:40:55:627,0
0.9577,9.8237,2.7558,0.1342,9.5134,2.3764,-0.2947,1.2944,2.1415,-0.1239,-0.3418,-0.0421,3514,-0.42,-32.82,28.5,177.41,-75.95,-3.23,3.1,993.75,50.095,23.02608,72.53846,28.27,NaN,,3.88,9.677419,200.49,16 / 17,42520,2018-06-11 15:40:56:127,0
-1.6257,11.1262,8.0807,-0.1027,9.4126,2.7501,-1.5231,1.7136,5.3306,-0.2601,0.5,-0.099,2653,0.72,-34.44,26.82,183.24,-73.7,2.14,3.1,993.76,51.637,23.02608,72.53846,28.27,NaN,,3.88,9.677419,200.49,18 / 20,43020,2018-06-11 15:40:56:627,0
-0.1508,13.1087,6.4741,-0.2617,9.2315,3.2987,0.8722,3.9897,1.2911,-0.2101,-0.0456,-0.1246,2186,2.22,-35.28,25.02,186.45,-70.28,4.54,3.1,993.75,59.177,23.02608,72.53846,28.27,NaN,,3.88,9.677419,200.49,18 / 20,43520,2018-06-11 15:40:57:127,0
-0.1915,11.8828,3.4478,-0.3501,9.3844,2.8249,0.1585,2.4983,0.6229,0.2194,-0.2477,0.0153,2116,2.34,-34.02,26.58,188.55,-73.13,7.06,3.1,993.75,61.725,23.02608,72.53846,28.27,NaN,,3.88,9.677419,200.49,17 / 19,44022,2018-06-11 15:40:57:629,0
0.2634,10.9227,4.099,0.2885,9.2875,3.1353,-0.0251,1.6352,0.9637,0.264,0.3326,0.5266,2061,0.48,-34.74,26.16,176.19,-71.27,-5.26,3.1,993.74,53.893,23.02608,72.53846,28.27,NaN,,3.88,9.677419,200.49,17 / 19,44521,2018-06-11 15:40:58:128ACCELEROMETER X (m/sÂ²),0
1.3719,6.8261,2.1836,0.3914,9.0889,3.6617,0.9806,-2.2629,-1.4782,0.0532,-0.1689,-0.1118,3595,-0.96,-31.26,20.46,175.83,-67.34,-3.47,3.1,993.71,58.829,23.025976,72.53842,28.66,NaN,,5.02,9.677419,193.28,16 / 19,34,2018-06-11 15:41:02:318,0
-0.1077,6.6465,3.012,0.3598,9.1885,3.4077,-0.8411,-1.6034,-1.7508,0.1534,-0.3675,-0.0751,3348,6.12,-31.08,22.08,186.13,-68.03,-6.46,3.1,993.7,66.755,23.025976,72.53842,28.66,NaN,,5.02,9.677419,193.28,16 / 19,534,2018-06-11 15:41:02:818,0
1.3192,5.3273,1.2091,0.2598,9.1371,3.5519,0.7314,-3.4148,-2.1416,-0.0488,0.0326,0.19,3265,3.12,-32.1,24.18,182.08,-68.71,-4.18,3.1,993.72,60.913,23.025976,72.53842,28.66,NaN,,5.02,9.677419,193.28,17 / 21,1034,2018-06-11 15:41:03:318,0
-0.68,7.3385,2.9282,0.0412,9.4597,2.5849,-0.7212,-2.1213,0.3433,-0.0323,0.1383,-0.1515,3200,6.06,-31.86,28.2,188.88,-74.71,-0.91,3.1,993.71,56.215,23.025976,72.53842,28.66,NaN,,5.02,9.677419,193.28,17 / 21,1533,2018-06-11 15:41:03:817,0
-0.1939,7.6042,2.4948,0.3192,9.5178,2.341,-0.8938,-0.5081,-0.7512,0.0569,0.1615,-0.0886,3340,3.36,-31.8,30.96,178.16,-76.06,-7.76,3.1,993.71,52.26,23.025976,72.53842,28.66,NaN,,5.02,9.677419,193.28,16 / 20,2034,2018-06-11 15:41:04:318,0
1.9944,8.5404,1.3097,0.3685,9.5158,2.3417,1.2524,0.0421,-0.3545,0.1339,-0.7352,0.1344,3682,4.26,-31.8,30.54,178.69,-76.01,-8.94,3.1,993.72,54.816,23.025976,72.53842,28.66,NaN,,5.02,9.677419,193.28,16 / 20,2533,2018-06-11 15:41:04:817,0
-0.7446,10.032,4.8604,0.0315,9.5335,2.2981,-0.7761,0.4985,2.5623,0.8449,-0.0529,-0.3671,3660,4.5,-33.24,28.44,184.76,-75.91,-4.17,3.1,993.72,55.662,23.025976,72.53842,28.66,NaN,,5.02,9.677419,193.28,16 / 18,3034,2018-06-11 15:41:05:318,0
-0.9529,13.1158,5.0184,-0.2304,9.6311,1.8329,-0.7226,3.4848,3.1855,0.1522,0.1817,-0.2877,3914,3,-30.36,30.6,185.48,-79.26,0.84,3.1,993.71,44.841,23.025976,72.53842,28.66,NaN,,5.02,9.677419,193.28,16 / 18,3533,2018-06-11 15:41:05:817,0
0.4621,12.9363,2.2003,0.2874,9.6891,1.4861,-0.309,3.046,0.1851,0.5816,0.3039,0.0574,5226,2.1,-29.88,30.9,173.62,-81.12,-10.95,3.1,993.69,43.368,23.025976,72.53842,28.66,NaN,,5.02,9.677419,193.28,16 / 20,4033,2018-06-11 15:41:06:317,0
0.8045,13.1015,1.7215,0.0843,9.6914,1.4964,1.6779,2.2009,0.1053,0.1491,-0.2221,-0.2211,6128,2.52,-29.7,31.08,182.03,-81.21,-3.22,3.1,993.7,45.26,23.025976,72.53842,28.66,NaN,,5.02,9.677419,193.28,16 / 20,4533,2018-06-11 15:41:06:817,0
-0.1772,13.1805,2.0639,0.4969,9.7394,1.0328,0.705,-0.112,-0.0679,0.0917,0.109,-0.11,6385,5.04,-30.36,31.86,164.72,-83.29,-25.69,3.1,993.68,45.704,23.025976,72.53842,28.66,NaN,,5.02,9.677419,193.28,15 / 18,5033,2018-06-11 15:41:07:317,0
1.3145,10.5085,1.1876,0.6486,9.6075,1.8562,-0.1841,0.2521,-0.6687,0.2854,0.2348,-0.0366,6365,-0.3,-32.76,29.58,163.93,-78.43,-19.26,3.1,993.67,49.812,23.025976,72.53842,28.66,NaN,,5.02,9.677419,193.28,15 / 18,5534,2018-06-11 15:41:07:818,0
0.6393,8.4039,0.5818,0.4401,9.6678,1.5845,0.1991,-1.2639,-1.0027,0.2628,0.0229,-0.0568,6101,1.86,-32.04,30.3,169.94,-80.35,-15.52,3.1,993.67,53.111,23.025845,72.538376,29.02,NaN,,4.13,9.677419,213.1,18 / 20,6033,2018-06-11 15:41:08:317,0
1.5491,8.0041,-0.0718,0.7824,9.5819,1.9354,0.5967,-1.9657,-2.5891,0.319,-0.1647,0.0373,6111,-0.78,-32.4,29.34,160.17,-77.71,-22.01,3.1,993.67,51.516,23.025845,72.538376,29.02,NaN,,4.13,9.677419,213.1,18 / 20,6534,2018-06-11 15:41:08:818,0
-0.3041,7.1589,1.3815,0.47,9.5824,2.0314,-0.774,-2.4858,0.3605,0.5187,0.313,0.1155,6140,2.4,-32.94,29.7,172.39,-77.72,-13.03,3.1,993.67,51.643,23.025845,72.538376,29.02,NaN,,4.13,9.677419,213.1,17 / 21,7033,2018-06-11 15:41:09:317,0
1.1062,6.2682,0.9529,0.5899,9.4949,2.381,-1.4039,-1.7159,2.2471,-0.2626,-0.2282,0.5082,5871,-2.94,-33.48,28.14,164.11,-75.51,-13.91,3.1,993.65,55.771,23.025845,72.538376,29.02,NaN,,4.13,9.677419,213.1,17 / 21,7533,2018-06-11 15:41:09:817,0
-0.9793,7.9346,2.1596,0.2484,9.6942,1.4595,-0.1287,-1.5753,0.6283,0.0532,0.0339,-0.234,5589,0.78,-30.24,31.86,173.04,-81.32,-9.66,3.1,993.66,46.246,23.025845,72.538376,29.02,NaN,,4.13,9.677419,213.1,15 / 18,8034,2018-06-11 15:41:10:318,0
-0.8619,9.2563,1.9561,0.5156,9.6873,1.4356,-1.2554,-1.5084,1.3633,-0.8044,-0.139,0.2755,4912,-3.06,-29.58,32.58,157.85,-81.05,-19.76,3.1,993.66,46.756,23.025845,72.538376,29.02,NaN,,4.13,9.677419,213.1,15 / 18,8534,2018-06-11 15:41:10:818,0
0.4166,9.6178,2.4374,0.6015,9.7163,1.1839,2.1303,-0.4385,-1.8831,-0.193,-0.2398,-0.2798,5088,0.18,-28.5,33,155.59,-82.22,-26.93,3.1,993.68,41.935,23.025845,72.538376,29.02,NaN,,4.13,9.677419,213.1,16 / 18,9034,2018-06-11 15:41:11:318,0
-0.0168,11.2196,3.0886,0.6691,9.7208,1.1084,-0.6858,1.4988,1.9802,-0.1074,0.2006,0.1735,3880,-0.96,-27.66,33.18,150.13,-82.41,-31.12,3.1,993.68,43.196,23.025845,72.538376,29.02,NaN,,4.13,9.677419,213.1,16 / 18,9533,2018-06-11 15:41:11:817,0
0.7805,11.4207,3.5723,0.4224,9.6384,1.7587,-0.3864,3.5493,2.4313,-0.5595,-0.2765,0.1491,3619,-2.52,-30.42,32.16,163.65,-79.37,-13.5,3.1,993.69,41.615,23.025845,72.538376,29.02,NaN,,4.13,9.677419,213.1,18 / 20,10033,2018-06-11 15:41:12:317,0
-1.2929,11.6865,1.9968,0.3569,9.793,0.3748,-0.0959,2.2502,-2.2447,-1.0311,0.142,-0.3592,3281,-2.46,-25.86,33.54,134.64,-86.98,-43.6,3.1,993.66,41.543,23.025845,72.538376,29.02,NaN,,4.13,9.677419,213.1,18 / 20,10533,2018-06-11 15:41:12:817,0
0.2969,11.5332,-0.1772,0.3083,9.664,1.6378,1.5376,1.7423,-2.392,0.3104,-0.3046,-0.1881,3362,-6.36,-29.4,31.26,161.04,-80.22,-10.66,3.1,993.68,40.981,23.025845,72.538376,29.02,NaN,,4.13,9.677419,213.1,18 / 21,11034,2018-06-11 15:41:13:318,0
-1.1445,12.546,1.9729,-0.0749,9.7755,0.7771,-0.7008,2.9501,-1.2464,0.6494,0.1377,-0.135,2979,-2.28,-27.48,32.76,170.52,-84.16,-6.75,3.1,993.69,40.923,23.025845,72.538376,29.02,NaN,,4.13,9.677419,213.1,18 / 21,11533,2018-06-11 15:41:13:817,0
1.2857,12.1438,0.6225,0.2342,9.7545,0.9819,0.9486,2.4108,0.2823,0.3281,-0.197,-0.1112,3332,-4.98,-28.62,32.28,165.31,-82.29,-7.43,3.1,993.67,41.878,23.025845,72.538376,29.02,NaN,,4.13,9.677419,213.1,18 / 21,12033,2018-06-11 15:41:14:317,0
0.8284,11.4231,0.5387,0.5355,9.7635,0.7463,0.2929,1.6596,-0.2076,0.2786,0.5,-0.1771,2987,-6.36,-28.14,33.84,137.17,-84.63,-35.66,3.1,993.68,40.147,23.025845,72.538376,29.02,NaN,,4.13,9.677419,213.1,18 / 21,12533,2018-06-11 15:41:14:817,0
0.9625,10.6641,0.2849,0.7987,9.6577,1.5037,0.1638,1.0064,-1.2188,0.3978,0.1988,-0.149,3815,-9.24,-29.94,31.74,141.52,-80,-27.97,3.1,993.68,40.782,23.025845,72.538376,29.02,NaN,,4.13,9.677419,213.1,19 / 23,13033,2018-06-11 15:41:15:317,0
1.0918,8.9881,0.1413,0.6022,9.7254,1.1063,-0.1233,-2.7461,-1.4535,0.3275,-0.4328,0.0544,4123,-2.64,-28.68,32.4,149.28,-82.62,-28.56,3.1,993.69,41.275,23.025845,72.538376,29.02,NaN,,4.13,9.677419,213.1,19 / 23,13533,2018-06-11 15:41:15:817,0
2.0327,8.8445,1.415,0.6193,9.4795,2.4342,1.0376,-2.5194,-2.032,-0.0689,0.2354,0.3384,5580,-8.58,-33,28.8,154.63,-75.16,-14.27,3.1,993.69,41.427,23.025845,72.538376,29.02,NaN,,4.13,9.677419,213.1,18 / 20,14033,2018-06-11 15:41:16:317,0
1.4868,7.0056,0.5962,0.7896,9.6494,1.5608,0.4195,-2.9406,-1.7524,-0.0751,-0.635,0.0336,5929,-4.14,-30.36,31.5,150.37,-79.73,-26.83,3.1,993.68,42.096,23.025845,72.538376,29.02,NaN,,4.13,9.677419,213.1,18 / 20,14533,2018-06-11 15:41:16:817,0
0.9625,6.9147,-0.498,0.5414,9.7018,1.3237,0.4211,-2.7871,-1.8217,0.1852,0.0497,0.0098,6445,-5.76,-30,32.46,150.66,-81.61,-22.25,3.1,993.69,41.013,23.025732,72.53838,29.27,NaN,,3.8,9.677419,153.83,19 / 22,15034,2018-06-11 15:41:17:318,0
-0.3974,5.9953,0.6393,0.3426,9.7616,0.8737,-0.4671,-3.4695,-1.0389,-0.0836,-0.0822,0.2413,6052,-2.1,-28.56,33.9,156.96,-84.51,-21.41,3.1,993.68,41.091,23.025732,72.53838,29.27,NaN,,3.8,9.677419,153.83,19 / 22,15533,2018-06-11 15:41:17:817,0
0.4908,5.7702,0.1221,0.2465,9.7237,1.2484,-0.5937,-3.1107,0.193,-0.7898,-0.1909,0.4417,5393,-3.66,-29.46,31.68,163.48,-82.54,-11.17,3.1,993.67,40.784,23.025732,72.53838,29.27,NaN,,3.8,9.677419,153.83,18 / 21,16034,2018-06-11 15:41:18:318,0
0.5938,7.2666,0.9002,0.3868,9.7283,1.1748,-1.0117,0.0427,1.6409,-0.1368,0.0039,0.2462,5351,-1.62,-29.34,33.24,160.3,-82.75,-18.22,3.1,993.68,41.363,23.025732,72.53838,29.27,NaN,,3.8,9.677419,153.83,18 / 21,16533,2018-06-11 15:41:18:817,0
-0.6129,8.1908,0.929,0.2114,9.7454,1.0734,-1.1595,1.4933,-0.8651,0.019,-0.0052,0.3739,5681,-3.48,-29.4,33.6,165.12,-83.59,-11.14,3.1,993.68,41.532,23.025732,72.53838,29.27,NaN,,3.8,9.677419,153.83,19 / 22,17033,2018-06-11 15:41:19:317,0
2.1333,10.1733,2.5068,0.6849,9.7381,0.9329,1.7884,0.3777,0.8293,-0.6383,-1.1292,-0.1338,4724,-3.48,-30,33.6,142.14,-83.22,-36.29,3.1,993.66,49.716,23.025732,72.53838,29.27,NaN,,3.8,9.677419,153.83,19 / 22,17533,2018-06-11 15:41:19:817,0
0.2346,11.1142,2.3655,0.7189,9.7288,1.0021,-0.3741,2.1851,2.3188,0.1528,0.0895,-0.0959,4238,0.6,-29.4,33.6,149,-82.78,-35.66,3.1,993.66,41.414,23.025732,72.53838,29.27,NaN,,3.8,9.677419,153.83,17 / 21,18033,2018-06-11 15:41:20:317,0
1.0056,9.6657,0.4932,0.6334,9.7593,0.7242,-0.9399,1.3118,2.4626,0.3532,0.0895,0.2627,3520,-0.72,-28.2,35.58,139.92,-84.37,-41.17,3.1,993.65,40.971,23.025732,72.53838,29.27,NaN,,3.8,9.677419,153.83,17 / 21,18533,2018-06-11 15:41:20:817,0
1.5994,11.9905,1.6951,0.78,9.749,0.7198,1.1211,2.6533,-1.0119,-0.8344,-0.0333,0.0678,3492,-1.74,-27.18,35.46,132.78,-83.79,-47.3,3.1,993.65,41.647,23.025732,72.53838,29.27,NaN,,3.8,9.677419,153.83,19 / 22,19033,2018-06-11 15:41:21:317,0
1.8196,13.6091,1.3719,0.607,9.7083,1.245,2.0339,3.0819,-0.905,0.2621,-0.2526,-0.1753,4107,-2.94,-28.08,33.3,151.81,-81.88,-25.99,3.1,993.65,41.394,23.025732,72.53838,29.27,NaN,,3.8,9.677419,153.83,19 / 22,19533,2018-06-11 15:41:21:817,0
0.4597,11.8852,1.7287,0.6437,9.7468,0.8698,0.9988,0.6372,0.0736,0.3452,0.5354,-0.2462,3368,0.3,-26.64,32.58,146.22,-83.67,-36.51,3.1,993.65,43.789,23.025732,72.53838,29.27,NaN,,3.8,9.677419,153.83,19 / 22,20033,2018-06-11 15:41:22:317,0
0.7279,13.6761,1.9106,0.8401,9.6966,1.2002,-0.1122,3.9795,0.7105,0.6696,0.4743,-0.5113,3223,-0.6,-27.18,30.84,146.95,-81.41,-34.99,3.1,993.66,46.299,23.025732,72.53838,29.27,NaN,,3.8,9.677419,153.83,19 / 22,20534,2018-06-11 15:41:22:818,0
1.4892,10.0775,0.1963,0.8312,9.7193,1.0074,0.6581,0.3582,-0.8111,0.3446,0.3191,-0.102,3212,3.36,-27.42,33.3,148.68,-82.35,-39.52,3.1,993.66,47.508,23.025732,72.53838,29.27,NaN,,3.8,9.677419,153.83,19 / 22,21033,2018-06-11 15:41:23:317,0
1.858,8.4374,1.5898,0.6053,9.6447,1.6683,1.4586,-3.489,-1.5437,-0.2314,0.2073,-0.2126,2911,0,-29.76,32.28,162.69,-79.57,-19.94,3.1,993.67,48.114,23.025732,72.53838,29.27,NaN,,3.8,9.677419,153.83,19 / 22,21533,2018-06-11 15:41:23:817,0
0.3998,6.3496,0.6704,0.4318,9.7287,1.1563,-0.0319,-3.379,-0.4859,-0.0995,-0.1928,0.2773,2674,3.24,-28.02,33.54,167.8,-82.64,-18.42,3.1,993.66,49.609,23.025732,72.53838,29.27,NaN,,3.8,9.677419,153.83,18 / 21,22034,2018-06-11 15:41:24:318,0
0.7686,6.3161,0.8452,0.8546,9.6817,1.3057,-0.414,-2.9945,0.0111,-0.0305,0.2342,0.1063,2740,-0.3,-29.04,32.58,150.45,-80.84,-33.2,3.1,993.65,51.825,23.025732,72.53838,29.27,NaN,,3.8,9.677419,153.83,18 / 21,22534,2018-06-11 15:41:24:818,0
-0.5315,7.7575,0.905,0.5846,9.7486,0.8901,-0.338,-1.2274,0.0389,0.3312,0.481,-0.2498,2773,2.76,-28.44,33.06,154.07,-83.77,-33.3,3.1,993.65,54.639,23.025732,72.53838,29.27,NaN,,3.8,9.677419,153.83,18 / 21,23033,2018-06-11 15:41:25:317,0
0.0718,8.7654,2.1405,0.6514,9.7568,0.7425,-0.2922,-2.0759,1.0748,-0.499,-0.0914,0.157,2600,3.9,-27.12,34.38,129.41,-85.84,-59.77,3.1,993.66,50.612,23.025732,72.53838,29.27,NaN,,3.8,9.677419,153.83,18 / 21,23534,2018-06-11 15:41:25:818,0
0.5291,9.7423,0.9745,0.3174,9.7802,0.6458,0.2117,-0.0379,0.3287,-0.1532,0.1554,-0.0531,2409,4.56,-28.38,34.08,163.14,-85.79,-26.18,3.1,993.66,48.323,23.025648,72.53842,29.48,NaN,,2.56,9.677419,161.57,17 / 21,24033,2018-06-11 15:41:26:317,0
0.4812,9.9147,0.8835,0.5189,9.7856,0.3778,-0.8469,2.2863,1.8656,-0.411,-0.0284,0.2975,2264,3.6,-27.48,34.5,134.57,-86.25,-53.94,3.1,993.66,44.658,23.025648,72.53842,29.48,NaN,,2.56,9.677419,161.57,17 / 21,24533,2018-06-11 15:41:26:817,0
2.1309,9.534,0.4214,0.4955,9.7909,0.2502,0.9506,0.0711,1.7586,-0.3457,-0.6295,0.3201,2200,2.82,-26.82,35.28,123.72,-86.76,-63.22,3.1,993.66,44.087,23.025648,72.53842,29.48,NaN,,2.56,9.677419,161.57,18 / 20,25033,2018-06-11 15:41:27:317,0
-0.4765,12.6537,2.7534,0.1986,9.8046,0.0235,-0.1435,3.3543,1.2071,-0.7433,0.0363,0.2444,1882,3.72,-26.46,36.66,103.72,-88.83,-83.24,3.1,993.67,44.009,23.025648,72.53842,29.48,NaN,,2.56,9.677419,161.57,18 / 20,25535,2018-06-11 15:41:27:819,0
1.4533,12.7399,-0.7757,0.5465,9.7896,0.1872,1.3378,2.6606,-0.8623,0.5682,-0.0284,-0.0617,2035,1.44,-25.26,35.82,112.63,-86.62,-71.1,3.1,993.68,50.99,23.025648,72.53842,29.48,NaN,,2.56,9.677419,161.57,19 / 21,26033,2018-06-11 15:41:28:317,0
2.2171,12.8501,-1.2642,0.3975,9.7956,-0.2401,0.5937,3.2963,0.7932,-0.05,0.0626,0.1961,1871,0.48,-24.12,36.54,60.43,-87.29,-121.13,3.1,993.68,51.224,23.025648,72.53842,29.48,NaN,,2.56,9.677419,161.57,19 / 21,26533,2018-06-11 15:41:28:817,0
0.9936,12.6801,-0.0215,0.6699,9.7837,0.0254,0.3238,2.8964,-0.0469,0.3617,-0.2508,-0.1197,1769,0.9,-25.68,35.22,96.69,-86.08,-87.83,3.1,993.66,47.74,23.025648,72.53842,29.48,NaN,,2.56,9.677419,161.57,18 / 20,27033,2018-06-11 15:41:29:317,0
1.9489,10.7647,0.1245,0.6564,9.7846,-0.0033,1.2925,0.98,0.1278,0.0654,0.2428,-0.201,1574,3.72,-24.96,34.74,98.91,-86.16,-90.29,3.1,993.65,50.038,23.025648,72.53842,29.48,NaN,,2.56,9.677419,161.57,18 / 20,27533,2018-06-11 15:41:29:817,0
0.7829,11.8876,0.1939,0.7279,9.7795,0.0328,-0.7663,0.693,-0.1022,0.3874,0.2916,-0.1582,1682,3.54,-24.72,34.92,102.03,-85.74,-87.42,3.1,993.67,44.937,23.025648,72.53842,29.48,NaN,,2.56,9.677419,161.57,18 / 21,28033,2018-06-11 15:41:30:317,0
1.2331,10.4486,-0.7015,0.5315,9.7917,-0.1008,0.3927,-0.8706,-1.0556,0.4246,0.2,-0.0232,1461,5.58,-24.6,35.4,91.21,-86.84,-100.74,3.1,993.68,43.435,23.025648,72.53842,29.48,NaN,,2.56,9.677419,161.57,18 / 21,28533,2018-06-11 15:41:30:817,0
0.9218,10.0703,-0.1341,0.7835,9.7703,0.3128,1.1559,-2.8484,-1.146,0.3049,-0.0162,-0.0635,1382,1.8,-24.36,34.74,117.93,-85.07,-68.24,3.1,993.67,42.185,23.025648,72.53842,29.48,NaN,,2.56,9.677419,161.57,19 / 21,29033,2018-06-11 15:41:31:317,0
0.1221,8.4015,-0.1772,0.5873,9.7883,-0.1182,-0.2617,-0.6877,-1.1005,0.6085,-0.0199,0.0037,1216,6.6,-23.7,34.44,99.81,-86.37,-94.29,3.1,993.67,44.821,23.025648,72.53842,29.48,NaN,,2.56,9.677419,161.57,19 / 21,29533,2018-06-11 15:41:31:817,0
1.3192,5.933,-0.9002,0.7748,9.7566,0.6148,0.8677,-2.8468,-1.5845,-0.4184,-0.1146,0.0165,1124,4.74,-25.32,34.02,135.02,-84.87,-55.87,3.1,993.68,45.302,23.025648,72.53842,29.48,NaN,,2.56,9.677419,161.57,20 / 21,30033,2018-06-11 15:41:32:317,0
-0.0431,6.8955,0.4884,0.6536,9.7775,0.3793,-1.1133,-2.6162,0.5114,0.2066,-0.2838,-0.0092,1142,8.4,-24.96,32.28,136.39,-85.58,-59.87,3.1,993.7,46.756,23.025648,72.53842,29.48,NaN,,2.56,9.677419,161.57,20 / 21,30533,2018-06-11 15:41:32:817,0
-0.0144,6.8572,-0.5196,0.5658,9.7408,0.9838,-0.9393,-2.3137,-1.0891,0.4875,0.2458,-0.2181,1100,7.26,-27,30.66,164.25,-83.35,-29.9,3.1,993.69,48.287,23.025648,72.53842,29.48,NaN,,2.56,9.677419,161.57,21 / 22,31033,2018-06-11 15:41:33:317,0
-0.7303,7.2259,0.929,0.2781,9.7671,0.8347,-0.9797,-2.0001,-0.0422,0.2731,0.5494,-0.1692,1076,9.3,-26.4,30.78,177.9,-84.85,-18.43,3.1,993.69,55.689,23.025648,72.53842,29.48,NaN,,2.56,9.677419,161.57,21 / 22,31533,2018-06-11 15:41:33:817,0
-0.4453,7.0344,1.0415,0.4709,9.786,0.427,-1.6776,-1.4132,0.7127,-0.433,0.4902,0.1002,1104,3.84,-25.2,33,140.82,-86.28,-47.8,3.1,993.69,58.77,23.025648,72.53842,29.48,NaN,,2.56,9.677419,161.57,20 / 21,32033,2018-06-11 15:41:34:317,0
-0.2346,8.8852,1.0559,0.598,9.7824,0.3413,-0.8326,-0.8973,0.7146,-0.0659,0.3521,-0.0739,1287,3.36,-24.36,35.76,120.89,-85.55,-66.33,3.1,993.69,64.071,23.025648,72.53842,29.48,NaN,,2.56,9.677419,161.57,20 / 21,32533,2018-06-11 15:41:34:817,0
-0.0168,8.0136,2.2051,0.3102,9.7879,0.5204,0.0969,-0.5676,1.2586,-0.5876,0.3369,0.1692,1391,-2.34,-24.54,34.44,147.2,-86.46,-30.8,3.1,993.67,60.292,23.02553,72.538345,29.76,NaN,,3.89,12.903226,210.35,21 / 22,33033,2018-06-11 15:41:35:317,0
1.1804,10.2164,-0.0168,0.4458,9.7765,0.6261,1.4864,0.3154,-1.9214,-0.254,-0.2477,-0.2388,1452,0.48,-25.02,33.48,146.35,-85.5,-35.45,3.1,993.68,56.468,23.02553,72.538345,29.76,NaN,,3.89,12.903226,210.35,21 / 22,33533,2018-06-11 15:41:35:817,0
0.1844,10.1829,0.1149,0.6346,9.7494,0.8467,-0.2252,1.0225,2.1868,0.0709,-0.1634,0.099,1603,-1.74,-26.76,33.06,142.59,-83.81,-36.85,3.1,993.68,53.718,23.02553,72.538345,29.76,NaN,,3.89,12.903226,210.35,18 / 21,34033,2018-06-11 15:41:36:317,0
1.5228,10.2619,-0.3065,0.6286,9.7665,0.6255,0.717,0.6367,1.2444,0.3886,-0.6802,-0.1533,1694,-3.6,-26.28,34.38,131.01,-84.81,-45.14,3.1,993.68,51.033,23.02553,72.538345,29.76,NaN,,3.89,12.903226,210.35,18 / 21,34533,2018-06-11 15:41:36:817,0
-0.0383,12.6968,3.2538,0.3837,9.7833,0.557,0.5884,3.8785,1.6505,-0.722,0.0333,0.0391,1856,-1.08,-27.18,34.26,145.47,-86.05,-34.56,3.1,993.69,47.154,23.02553,72.538345,29.76,NaN,,3.89,12.903226,210.35,19 / 20,35033,2018-06-11 15:41:37:317,0
-0.3352,12.7328,3.1796,0.2824,9.7794,0.6733,-0.6176,2.9533,2.5062,-0.5882,-0.1176,-0.0617,1893,-2.1,-25.56,35.04,128.83,-86.99,-49.59,3.1,993.68,45.184,23.02553,72.538345,29.76,NaN,,3.89,12.903226,210.35,19 / 20,35535,2018-06-11 15:41:37:819,0
0.328,12.2395,-1.9825,0.0259,9.8065,-0.0518,0.3022,2.4331,-1.9306,-0.309,-0.1763,-0.0067,2067,-0.54,-24.54,36.78,25.07,-89.66,-153.48,3.1,993.68,44.794,23.02553,72.538345,29.76,NaN,,3.89,12.903226,210.35,19 / 21,36034,2018-06-11 15:41:38:318,0
1.2977,11.7248,-0.2346,0.1015,9.7892,0.5763,0.94,1.8805,0.9537,0.3055,-0.1732,0.0434,2285,-1.32,-26.4,31.44,168.71,-86.58,-9.99,3.1,993.7,44.201,23.02553,72.538345,29.76,NaN,,3.89,12.903226,210.35,19 / 21,36534,2018-06-11 15:41:38:818,0
0.6465,11.3201,0.4836,-0.1833,9.7947,0.447,0.8298,1.5254,0.0367,0.1772,0.145,0.0568,2533,2.16,-26.94,30.12,205.06,-87.18,22.3,3.1,993.67,41.663,23.02553,72.538345,29.76,NaN,,3.89,12.903226,210.35,18 / 21,37033,2018-06-11 15:41:39:317,0
0.1197,9.4071,-1.0487,0.3583,9.7951,0.314,-0.2577,-1.7958,-0.7689,0.5431,-0.0309,-0.0855,2661,-0.42,-26.04,31.2,132.91,-87.22,-48.77,3.1,993.68,42.779,23.02553,72.538345,29.76,NaN,,3.89,12.903226,210.35,18 / 21,37534,2018-06-11 15:41:39:818,0
0.1915,8.0328,-0.9218,0.0357,9.7866,0.6256,-0.1075,-2.4194,-1.2385,0.3697,-0.2258,-0.0373,3094,-0.24,-26.7,35.4,176.89,-86.34,-3.26,3.1,993.68,41.296,23.02553,72.538345,29.76,NaN,,3.89,12.903226,210.35,18 / 21,38033,2018-06-11 15:41:40:317,0
0.8188,8.2028,0.1963,0.3651,9.7635,0.8433,0.6117,-1.9438,-0.3573,0.5004,0.0534,-0.0605,3260,-3.72,-27.24,34.38,151.78,-84.62,-23.41,3.1,993.68,39.975,23.02553,72.538345,29.76,NaN,,3.89,12.903226,210.35,18 / 21,38533,2018-06-11 15:41:40:817,0
0.5363,6.2443,0.1508,0.557,9.7728,0.5935,-0.0207,-3.5285,-0.4427,0.1516,-0.1347,0.0904,4193,-0.72,-27.06,35.16,137.56,-85.24,-43.18,3.1,993.67,39.426,23.02553,72.538345,29.76,NaN,,3.89,12.903226,210.35,19 / 20,39033,2018-06-11 15:41:41:317,0
-0.0144,5.854,0.1628,0.0867,9.7885,0.5906,-0.5608,-3.142,0.1995,0.1296,-0.2465,0.4765,4467,-0.18,-27.3,34.92,172.01,-86.51,-8.35,3.1,993.67,39.08,23.02553,72.538345,29.76,NaN,,3.89,12.903226,210.35,19 / 20,39533,2018-06-11 15:41:41:817,0
-0.2801,8.0017,0.9074,0.1998,9.7726,0.7917,0.0851,-1.6608,0.5587,0.0697,-0.114,-0.3195,5077,1.86,-27.6,35.94,169.65,-85.22,-14.16,3.1,993.67,39.154,23.02553,72.538345,29.76,NaN,,3.89,12.903226,210.35,18 / 19,40033,2018-06-11 15:41:42:317,0
-1.0224,9.4622,-1.3121,0.4594,9.7927,0.2474,-1.9391,0.5146,1.7398,0.5584,0.3833,-0.303,4033,3.24,-26.34,36.24,124.83,-86.95,-61.69,3.1,993.66,39.387,23.02553,72.538345,29.76,NaN,,3.89,12.903226,210.35,18 / 19,40533,2018-06-11 15:41:42:817,0
0.9266,9.7447,-0.431,-0.156,9.7963,0.4223,0.1919,1.124,0.6384,-0.1985,-0.5287,0.0556,4997,1.2,-26.16,34.92,201.22,-87.37,20.27,3.1,993.67,40.878,23.02553,72.538345,29.76,NaN,,3.89,12.903226,210.35,19 / 20,41033,2018-06-11 15:41:43:317,0
-2.0591,12.4191,3.4645,-0.3559,9.7847,0.5504,-1.6003,1.3511,1.0873,0.6195,0.1133,0.0709,5043,-0.66,-27.12,34.5,198.43,-85.76,21.06,3.1,993.66,39.93,23.02553,72.538345,29.76,NaN,,3.89,12.903226,210.35,19 / 20,41534,2018-06-11 15:41:43:818,0
0.0239,11.2483,2.6888,0.1804,9.8042,0.126,-1.1141,2.9262,3.9538,0.5047,0.1597,0.11,5045,-2.7,-25.68,35.7,120.97,-88.71,-55.06,3.1,993.67,40.146,23.025396,72.538284,29.93,NaN,,3.78,12.903226,190.85,18 / 20,42033,2018-06-11 15:41:44:317,0
0.5507,12.1174,1.9322,0.2809,9.8021,-0.0995,0.2698,2.3153,2.0317,-0.5925,-0.3931,0.2053,4467,1.8,-24.42,36.06,74.8,-88.26,-109.5,3.1,993.65,40.303,23.025396,72.538284,29.93,167.8579812,,3.78,12.903226,190.85,18 / 20,42533,2018-06-11 15:41:44:817,0
0.8667,13.3409,0.7207,0.7324,9.7787,-0.1019,0.3115,2.6643,0.6646,0.4094,-0.0309,-0.1179,4909,0.06,-24.54,34.2,85.27,-85.68,-97.92,3.1,993.65,39.74,23.025396,72.538284,29.93,167.8579812,,3.78,12.903226,190.85,18 / 19,43034,2018-06-11 15:41:45:318,0
1.6616,11.8804,0.3567,0.546,9.7885,-0.2391,1.2688,-0.4532,-1.3483,-0.0952,-0.0394,-0.1038,6733,3.72,-24.9,35.04,75.29,-86.51,-113.65,3.1,993.67,40.608,23.025396,72.538284,29.93,167.8579812,,3.78,12.903226,190.85,18 / 19,43533,2018-06-11 15:41:45:817,0
1.0176,11.6721,-0.4046,0.5407,9.7911,0.107,-0.366,-0.0488,-0.7726,0.1241,-0.0401,-0.0202,6491,0.84,-25.8,35.28,105.12,-86.78,-78.81,3.1,993.67,40.869,23.025396,72.538284,29.93,167.8579812,,3.78,12.903226,190.85,19 / 20,44034,2018-06-11 15:41:46:318,0
1.9944,8.5428,-1.7311,0.6799,9.7817,-0.1611,1.3145,-1.2389,-1.5699,0.008,-0.23,0.1527,6249,2.58,-24.72,36.54,85.85,-86.18,-101.37,3.1,993.65,39.785,23.025396,72.538284,29.93,167.8579812,,3.78,12.903226,190.85,19 / 20,44534,2018-06-11 15:41:46:818,0
0.4238,8.0879,-0.7374,0.6152,9.7844,0.2381,-0.1914,-1.6966,-0.9756,0.1809,0.1023,-0.033,6405,-1.14,-26.16,34.92,114.01,-85.45,-67.38,3.1,993.67,38.025,23.025396,72.538284,29.93,167.8579812,,3.78,12.903226,190.85,19 / 21,45034,2018-06-11 15:41:47:318,0
0.5459,7.0104,-0.1101,0.5395,9.7901,0.1835,-0.3743,-2.94,0.2451,-0.0262,-0.1854,0.1692,6262,0.9,-25.56,35.58,112.56,-86.67,-71.22,3.1,993.65,38.665,23.025396,72.538284,29.93,167.8579812,,3.78,12.903226,190.85,19 / 21,45533,2018-06-11 15:41:47:817,0
-0.5076,7.1804,-0.8452,0.7449,9.7774,0.1308,-1.0059,-2.4869,0.6282,0.3843,0.0522,-0.1851,5964,-2.52,-25.98,36.54,98.37,-85.58,-80.04,3.1,993.66,37.856,23.025396,72.538284,29.93,167.8579812,,3.78,12.903226,190.85,18 / 19,46033,2018-06-11 15:41:48:317,0
0,5.8133,-0.0575,0.5135,9.7853,0.3918,-0.8487,-3.0981,-0.3702,-0.0622,-0.1189,0.1167,6554,0.78,-25.56,36,130.93,-86.22,-52.66,3.1,993.68,38.858,23.025396,72.538284,29.93,167.8579812,,3.78,12.903226,190.85,18 / 19,46533,2018-06-11 15:41:48:817,0
0.249,6.5436,0.7973,0.5597,9.779,0.4771,-1.3163,-0.1349,0.9499,-0.1319,0.627,0.1668,6742,-3,-26.22,37.08,128.11,-85.7,-49.55,3.1,993.67,40.415,23.025396,72.538284,29.93,167.8579812,,3.78,12.903226,190.85,19 / 20,47033,2018-06-11 15:41:49:317,0
-0.5243,8.0998,0.8931,0.4981,9.7584,0.8339,-0.8357,-1.3928,0.732,-0.2076,-0.0028,-0.0623,6687,-4.68,-25.62,38.28,143.8,-84.32,-30.85,3.1,993.67,38.68,23.025396,72.538284,29.93,167.8579812,,3.78,12.903226,190.85,19 / 20,47536,2018-06-11 15:41:49:820,0
-0.7303,9.3736,0.4238,0.5255,9.7854,0.3751,-1.2557,-0.4118,0.0487,-0.4312,0.0949,0.5571,5994,-9.72,-21.18,41.28,113.49,-86.23,-54.48,3.1,993.68,39.207,23.025396,72.538284,29.93,167.8579812,,3.78,12.903226,190.85,19 / 21,48034,2018-06-11 15:41:50:318,0
1.2666,9.2515,-1.0511,0.5108,9.785,0.4051,0.7558,-0.5335,-1.4561,0.1241,-0.7395,-0.1319,5776,-17.46,-17.22,35.82,104.68,-86.19,-51.59,3.1,993.68,40.506,23.025396,72.538284,29.93,167.8579812,,3.78,12.903226,190.85,19 / 21,48533,2018-06-11 15:41:50:817,0
-1.008,12.783,3.6201,0.4476,9.7903,0.3451,-0.9265,3.7493,3.9526,0.3519,-0.0193,-0.2639,4089,-13.56,-16.92,30.78,104.9,-86.7,-52.37,3.1,993.67,40.986,23.025396,72.538284,29.93,167.8579812,,3.78,12.903226,190.85,19 / 20,49033,2018-06-11 15:41:51:317,0
0.0934,11.7391,2.3224,0.4935,9.7942,0.0211,0.0667,2.9314,0.046,-0.3811,-0.1103,0.1087,3883,-11.16,-15,31.26,74.2,-87.11,-87.55,3.1,993.66,40.441,23.025396,72.538284,29.93,167.8579812,,3.78,12.903226,190.85,19 / 20,49533,2018-06-11 15:41:51:817,0
0.1149,14.0688,0.1868,0.3667,9.7947,-0.3143,0.3731,3.855,-1.0983,-0.039,0.1121,0.033,4074,-9.6,-13.38,32.82,33.16,-87.18,-130.6,3.1,993.66,42.114,23.025396,72.538284,29.93,167.8579812,,3.78,12.903226,190.85,19 / 20,50033,2018-06-11 15:41:52:317,0
1.7023,13.3744,-1.4749,0.6843,9.7823,-0.0931,0.6469,2.5243,-0.6946,-0.2125,-0.5159,0.0159,4459,-6.18,-14.52,30.72,73.18,-85.96,-97.75,3.1,993.67,41.453,23.025396,72.538284,29.93,167.8579812,,3.78,12.903226,190.85,19 / 20,50533,2018-06-11 15:41:52:817,0
-0.1293,13.6976,0.0838,0.3038,9.8012,-0.1173,-0.4331,3.8964,0.2011,0.2976,-0.1451,-0.1173,5312,-0.06,-17.7,31.86,103.19,-87.32,-78.27,3.1,993.69,42.472,23.025255,72.53824,29.97,167.8579812,,4.52,12.903226,199.8,18 / 19,51033,2018-06-11 15:41:53:317,0
0.5842,11.9833,0.7877,0.3523,9.7948,0.328,0.4498,2.4232,0.1197,0.4827,-0.2477,-0.0977,6817,0.96,-21.54,31.32,146.55,-86.56,-36.6,3.1,993.67,41.601,23.025255,72.53824,29.97,167.8579812,,4.52,12.903226,199.8,18 / 19,51533,2018-06-11 15:41:53:817,0
1.9394,9.2347,0.103,0.5427,9.7705,0.6424,1.3967,-0.5358,-0.5394,0.1589,-0.0113,0.1417,6703,5.52,-24.72,32.28,152.11,-85.08,-40.19,3.1,993.67,57.738,23.025255,72.53824,29.97,167.8579812,,4.52,12.903226,199.8,19 / 20,52033,2018-06-11 15:41:54:317,0
0.091,11.3513,0.577,0.6793,9.7398,0.9192,0.2521,-1.4652,-1.0868,0.2047,0.0522,-0.0983,7244,2.34,-26.94,32.7,149.6,-83.31,-36.47,3.1,993.68,44.372,23.025255,72.53824,29.97,167.8579812,,4.52,12.903226,199.8,19 / 20,52533,2018-06-11 15:41:54:817,0
0.8739,6.0001,-0.2538,0.3121,9.7998,0.1916,-0.1253,-3.2323,-0.6489,-0.2443,-0.4383,0.4911,7284,4.02,-24.72,33.96,129.44,-87.86,-58.46,3.1,993.68,44.946,23.025255,72.53824,29.97,167.8579812,,4.52,12.903226,199.8,19 / 20,53033,2018-06-11 15:41:55:317,0
0.4932,7.5491,-0.1461,0.7484,9.7456,0.7963,-0.0612,-2.4957,-0.1833,0.4503,0.3833,-0.1924,6989,0.36,-26.52,32.7,139.97,-83.6,-43.22,3.1,993.68,48.786,23.025255,72.53824,29.97,167.8579812,,4.52,12.903226,199.8,19 / 20,53533,2018-06-11 15:41:55:817,0
-0.0048,7.5899,1.7239,0.7962,9.7499,0.6901,-0.5089,-2.3133,1.2157,0.1974,0.0833,-0.0177,6417,1.8,-26.64,32.58,137.62,-83.83,-49.08,3.1,993.67,39.79,23.025255,72.53824,29.97,167.8579812,,4.52,12.903226,199.8,19 / 20,54034,2018-06-11 15:41:56:318,0
0.5411,6.7614,1.1445,1.1204,9.7284,0.5221,-0.5793,-2.967,0.6224,0.2169,0.1163,-0.1069,6225,-0.48,-27,33.78,119.8,-82.76,-65.01,3.1,993.67,45.383,23.025255,72.53824,29.97,167.8579812,,4.52,12.903226,199.8,19 / 20,54533,2018-06-11 15:41:56:817,0
-0.7901,9.0288,1.3336,0.5825,9.7893,0.0195,-1.3727,-0.7605,1.3142,-0.1691,0.4725,-0.0727,5940,3.84,-25.26,34.56,100.79,-86.59,-88.09,3.1,993.67,50.28,23.025255,72.53824,29.97,167.8579812,,4.52,12.903226,199.8,19 / 21,55033,2018-06-11 15:41:57:317,0
-0.8787,9.7112,-0.2514,0.4017,9.7908,-0.3862,-1.2804,-0.0796,0.1348,-0.2803,0.2532,0.1167,5468,0.3,-25.08,36.6,47.81,-86.74,-133.87,3.1,993.67,39.642,23.025255,72.53824,29.97,167.8579812,,4.52,12.903226,199.8,19 / 21,55533,2018-06-11 15:41:57:817,0
-0.2873,11.0089,-0.261,0.2824,9.8013,0.1555,0.9531,0.7981,-1.3934,-0.1264,-0.7853,-0.4252,5491,3.3,-26.28,35.34,124.88,-88.12,-61.15,3.1,993.66,40.979,23.025255,72.53824,29.97,167.8579812,,4.52,12.903226,199.8,18 / 21,56033,2018-06-11 15:41:58:317,0
0.5986,9.9147,-0.0646,0.1117,9.806,-0.0307,-0.6193,2.9699,1.5582,-0.0073,0.0381,0.3726,4191,2.82,-25.86,35.04,80.05,-89.32,-105.35,3.1,993.65,44.64,23.025255,72.53824,29.97,167.8579812,,4.52,12.903226,199.8,18 / 21,56533,2018-06-11 15:41:58:817,0
0.4621,10.7264,1.415,0.4797,9.7829,0.485,1.1748,0.1246,-1.311,0.1094,-0.9649,0.2334,3970,1.32,-28.14,32.58,146.07,-86.51,-37.27,3.1,993.63,40.573,23.025255,72.53824,29.97,167.8579812,,4.52,12.903226,199.8,18 / 21,57033,2018-06-11 15:41:59:317,0
-0.249,12.6418,3.3879,0.2333,9.8012,0.2272,-0.4823,2.8405,3.1607,-0.2388,0.2202,0.3024,3229,2.1,-26.64,33.72,138.59,-88.1,-45.76,3.1,993.64,43.178,23.025255,72.53824,29.97,167.8579812,,4.52,12.903226,199.8,18 / 21,57533,2018-06-11 15:41:59:817,0
0.917,13.3816,2.0878,0.3993,9.7875,0.4653,0.5177,3.5942,1.6225,-0.6878,0.0082,-0.1045,3186,2.58,-26.4,33.18,146.08,-86.42,-40.64,3.1,993.64,52.964,23.025255,72.53824,29.97,167.8579812,,4.52,12.903226,199.8,17 / 19,58033,2018-06-11 15:42:00:317,0
0.9074,12.9171,0.5483,0.5015,9.792,-0.1899,-0.2597,2.9504,2.2298,0.1271,0.1078,-0.3867,2844,3.48,-24.96,34.74,76.35,-86.87,-110.74,3.1,993.62,52.082,23.025255,72.53824,29.97,167.8579812,,4.52,12.903226,199.8,17 / 19,58533,2018-06-11 15:42:00:817,0
1.3432,12.8309,-1.7335,0.4543,9.7722,0.6837,0.6303,1.6796,-0.0325,0.2151,-0.3626,-0.3653,2673,3.36,-26.76,31.86,153.47,-85.2,-33.61,3.1,993.64,58.966,23.025255,72.53824,29.97,167.8579812,,4.52,12.903226,199.8,18 / 20,59033,2018-06-11 15:42:01:317,0
0.6345,11.5715,2.028,0.3855,9.7719,0.7286,0.6297,-1.1573,-0.6209,-0.116,0.2898,-0.1008,2824,5.1,-26.82,32.7,161.88,-85.18,-27.88,3.1,993.66,54.447,23.025255,72.53824,29.97,167.8579812,,4.52,12.903226,199.8,18 / 20,59534,2018-06-11 15:42:01:818,0
0.0407,12.3712,1.2738,0.4141,9.7491,0.9763,-0.3734,2.6221,0.2975,0.3678,-0.0468,-0.0085,2455,2.94,-28.8,30.9,166.07,-81.68,-21.18,3.1,993.66,58.435,23.025145,72.53823,29.99,167.8579812,,4.35,12.903226,191.37,19 / 21,60034,2018-06-11 15:42:02:318,0
1.3336,10.6952,-0.5962,0.265,9.7659,0.8524,0.7549,0.1655,-1.2019,0.6916,0.2269,-0.069,2489,3.84,-27.42,31.8,173.95,-82.69,-13.77,3.1,993.67,50.629,23.025145,72.53823,29.99,167.8579812,,4.35,12.903226,191.37,19 / 21,60533,2018-06-11 15:42:02:817,0
0.0383,9.4023,-0.7853,0.0976,9.7809,0.704,-0.3681,-0.4647,-1.4175,0.2731,-0.1366,0.1277,2483,2.52,-26.46,33.36,177.44,-85.84,-7.89,3.1,993.67,54.294,23.025145,72.53823,29.99,167.8579812,,4.35,12.903226,191.37,19 / 21,61034,2018-06-11 15:42:03:318,0
0.917,8.1453,-1.269,0.2693,9.8009,0.1992,0.0851,-2.2781,-0.3357,-0.014,-0.2508,0.0843,2364,5.7,-24.72,34.44,137.45,-88.04,-53.5,3.1,993.67,41.43,23.025145,72.53823,29.99,167.8579812,,4.35,12.903226,191.37,19 / 21,61533,2018-06-11 15:42:03:817,0
0.6488,8.1932,-0.6536,-0.0823,9.7694,0.8499,0.3648,-2.8643,-1.2234,0.1748,0.2758,0.1216,1909,1.2,-26.82,33.78,186.77,-85,5.53,3.1,993.66,40.926,23.025145,72.53823,29.99,167.8579812,,4.35,12.903226,191.37,18 / 19,62033,2018-06-11 15:42:04:317,0
-0.51,7.779,0.9505,0.1634,9.7747,0.7733,-0.6471,-2.149,0.0863,-0.2968,-0.0889,-0.0538,1984,3.6,-27.24,34.08,175.07,-85.38,-11.93,3.1,993.65,42.109,23.025145,72.53823,29.99,167.8579812,,4.35,12.903226,191.37,18 / 19,62533,2018-06-11 15:42:04:817,0
0.5028,5.6265,-0.8188,0.4039,9.7708,0.7338,0.3551,-3.8186,-1.3109,-0.2773,0.0106,0.2016,2780,2.58,-26.28,35.76,156.04,-87,-29.58,3.1,993.66,40.511,23.025145,72.53823,29.99,167.8579812,,4.35,12.903226,191.37,19 / 21,63034,2018-06-11 15:42:05:318,0
-0.17,6.5747,1.1349,0.3982,9.7741,0.6923,-0.5682,-3.1994,0.4425,0.2792,0.4114,-0.0892,3076,7.14,-26.76,34.08,162.75,-85.33,-29.9,3.1,993.65,41.129,23.025145,72.53823,29.99,167.8579812,,4.35,12.903226,191.37,19 / 21,63533,2018-06-11 15:42:05:817,0
-0.5986,6.8788,0.7231,0.3361,9.7827,0.5965,-1.6625,-1.6541,0.8209,-0.6035,0.1237,0.3519,3081,5.52,-26.76,34.56,161.26,-86,-29.4,3.1,993.64,41.234,23.025145,72.53823,29.99,167.8579812,,4.35,12.903226,191.37,17 / 20,64033,2018-06-11 15:42:06:317,0
-0.4908,9.5268,2.3057,0.4727,9.79,-0.3206,1.1817,-0.1243,-0.12,-0.3652,0.2611,-0.2902,3116,6.3,-23.76,36.3,67.39,-86.66,-124.14,3.1,993.63,41.51,23.025145,72.53823,29.99,167.8579812,,4.35,12.903226,191.37,17 / 20,64533,2018-06-11 15:42:06:817,0
-0.589,9.6824,0.0599,0.6881,9.7823,0.0564,-0.4821,-0.3632,0.9421,-0.254,0.3588,-0.0788,4478,4.44,-25.08,36.12,103.7,-85.96,-85.32,3.1,993.63,40.514,23.025145,72.53823,29.99,167.8579812,,4.35,12.903226,191.37,17 / 21,65034,2018-06-11 15:42:07:318,0
0.2275,8.8181,0.929,0.085,9.806,0.0712,0.1281,0.6306,-0.5549,-0.8771,-0.1769,0.3183,3947,2.22,-23.58,36.48,45.7,-89.13,-137.9,3.1,993.63,43.019,23.025145,72.53823,29.99,167.8579812,,4.35,12.903226,191.37,17 / 21,65533,2018-06-11 15:42:07:817,0
0.917,8.3943,-0.2682,0.7687,9.7655,0.463,0.1483,-1.3712,-0.7312,0.005,-0.2545,-0.1271,3170,1.74,-25.68,35.82,127.15,-84.75,-58.94,3.1,993.63,40.49,23.025145,72.53823,29.99,167.8579812,,4.35,12.903226,191.37,17 / 21,66033,2018-06-11 15:42:08:317,0
2.5379,10.1493,-1.3073,0.6103,9.7832,-0.2931,1.9277,0.3661,-1.0142,-0.193,-0.9655,-0.0085,2920,1.08,-22.8,36.36,68.34,-86.04,-115.65,3.1,993.63,40.037,23.025145,72.53823,29.99,167.8579812,,4.35,12.903226,191.37,17 / 21,66533,2018-06-11 15:42:08:817,0
0.2107,13.1182,1.5946,0.2867,9.7946,-0.3929,-0.076,3.3237,1.9875,-0.3322,0.1909,0.3213,2346,4.08,-20.82,36.84,43.43,-87.16,-143.88,3.1,993.63,38.109,23.025145,72.53823,29.99,167.8579812,,4.35,12.903226,191.37,17 / 20,67033,2018-06-11 15:42:09:317,0
-0.407,12.728,4.7574,0.6877,9.781,0.17,0.4688,4.2758,-1.597,-0.3725,-0.1561,-0.058,2396,2.7,-23.76,33.78,111.59,-85.86,-76.11,3.1,993.62,39.765,23.025145,72.53823,29.99,167.8579812,,4.35,12.903226,191.37,17 / 20,67533,2018-06-11 15:42:09:817,0
0.7039,13.372,-1.0822,0.5621,9.7886,-0.1915,-0.9811,4.2083,2.071,0.1522,0.4132,0.1717,2135,1.8,-22.5,35.1,76.6,-86.53,-108.81,3.1,993.62,39.776,23.025145,72.53823,29.99,167.8579812,,4.35,12.903226,191.37,18 / 21,68033,2018-06-11 15:42:10:317,0
1.6233,14.2699,-1.609,0.5567,9.7895,0.1627,1.0666,4.4804,-1.7717,0.3947,-0.0688,-0.212,2455,-3.48,-24.72,34.14,103.64,-86.61,-73.71,3.1,993.62,40.024,23.025145,72.53823,29.99,167.8579812,,4.35,12.903226,191.37,18 / 21,68534,2018-06-11 15:42:10:818,0
1.0702,12.8453,0.2107,0.4882,9.7841,-0.4504,0.582,3.0612,0.6611,-0.2363,-0.103,0.259,2087,-2.76,-22.26,35.04,44.17,-86.12,-132.69,3.1,993.61,39.637,23.025042,72.538216,30.09,167.8579812,,2.54,9.677419,195.59,18 / 20,69033,2018-06-11 15:42:11:317,0
0.8404,13.5612,-0.0263,0.5268,9.7925,-0.0038,1.0629,2.7487,0.0613,0.3012,-0.4744,-0.245,2709,-1.38,-25.26,34.32,90.17,-86.92,-90.41,3.1,993.62,38.116,23.025042,72.538216,30.09,NaN,,2.54,9.677419,195.59,18 / 20,69533,2018-06-11 15:42:11:817,0
0.5483,12.3688,-0.8069,0.432,9.7966,-0.1004,0.4276,0.075,-0.2947,0.603,0.2104,-0.2944,2452,2.88,-24.78,33.3,84.07,-87.41,-103.08,3.1,993.62,37.614,23.025042,72.538216,30.09,NaN,,2.54,9.677419,195.59,18 / 20,70033,2018-06-11 15:42:12:317,0
1.5132,11.0137,0.8548,0.6286,9.7719,0.5333,0.4536,0.047,-0.3465,-0.0665,0.0259,0.0507,1624,-2.76,-27.6,31.92,128.16,-85.18,-49.69,3.1,993.61,38.878,23.025042,72.538216,30.09,NaN,,2.54,9.677419,195.59,18 / 20,70533,2018-06-11 15:42:12:817,0
0.8859,7.6713,-1.3623,0.6478,9.7787,0.3572,-0.983,-2.4067,-0.7571,0.118,-0.3748,0.1686,1467,0,-27.72,32.88,121.92,-85.67,-61.13,3.1,993.61,37.969,23.025042,72.538216,30.09,NaN,,2.54,9.677419,195.59,17 / 20,71033,2018-06-11 15:42:13:317,0
1.7215,8.9235,-0.747,0.7075,9.7382,0.9145,0.923,-2.2585,-1.9943,-0.0909,0.3081,-0.0134,1406,-5.52,-28.2,31.98,135.54,-83.23,-37.73,3.1,993.6,39.831,23.025042,72.538216,30.09,NaN,,2.54,9.677419,195.59,17 / 20,71533,2018-06-11 15:42:13:817,0
0.0886,5.8037,-0.8619,0.6618,9.7842,-0.0352,-0.5732,-3.9805,-0.8268,0.0428,-0.0846,0.1008,1569,-3.66,-26.7,34.62,83.41,-86.12,-93.04,3.1,993.6,39.506,23.025042,72.538216,30.09,NaN,,2.54,9.677419,195.59,17 / 19,72033,2018-06-11 15:42:14:317,0
1.166,5.7965,-0.4525,0.4947,9.7907,0.2586,0.5157,-4.0445,-0.3328,-0.3121,-0.0211,0.0568,1817,-5.64,-27.72,34.26,110.05,-86.74,-62.4,3.1,993.61,38.846,23.025042,72.538216,30.09,NaN,,2.54,9.677419,195.59,17 / 19,72533,2018-06-11 15:42:14:817,0
-0.2562,6.5196,1.0415,0.5829,9.78,0.4273,-0.3985,-2.2093,0.133,-0.2693,-0.2667,0.0049,1582,-2.64,-28.26,33.18,123.95,-85.77,-53.75,3.1,993.61,41.703,23.025042,72.538216,30.09,NaN,,2.54,9.677419,195.59,16 / 20,73034,2018-06-11 15:42:15:318,0
-1.8101,8.21,1.9178,0.353,9.8002,-0.0418,-1.7871,-0.0076,-0.4491,-0.2797,0.729,0.0189,1636,-4.5,-26.82,36.48,78.44,-87.92,-96.75,3.1,993.59,40.897,23.025042,72.538216,30.09,NaN,,2.54,9.677419,195.59,16 / 20,73534,2018-06-11 15:42:15:818,0
-0.9386,9.2467,1.3839,0.0829,9.7836,0.6669,-0.545,-0.2735,1.6101,-0.0842,0.277,-0.3427,1850,-2.64,-29.46,34.2,168.51,-86.07,-7.08,3.1,993.59,39.572,23.025042,72.538216,30.09,NaN,,2.54,9.677419,195.59,17 / 20,74033,2018-06-11 15:42:16:317,0
-0.9649,9.4454,0.0862,0.1274,9.7786,0.7295,-1.3964,-1.1449,-0.5715,-0.3774,0.1004,-0.0208,2501,-2.76,-29.64,34.5,161.63,-84.67,-14.83,3.1,993.62,39.888,23.025042,72.538216,30.09,NaN,,2.54,9.677419,195.59,17 / 20,74533,2018-06-11 15:42:16:817,0
1.3264,8.9594,0.3472,0.0699,9.7039,1.4139,1.2566,-0.7446,-1.0667,-0.0146,-0.1891,-0.1222,2916,-2.28,-32.52,32.28,174.37,-81.7,-2.83,3.1,993.59,39.215,23.025042,72.538216,30.09,NaN,,2.54,9.677419,195.59,18 / 21,75033,2018-06-11 15:42:17:317,0
-0.6512,11.5117,3.0288,-0.288,9.6905,1.4771,-0.2866,2.9489,1.0656,-0.2834,0.018,-0.0079,2767,-1.14,-31.44,32.7,188.21,-81.17,11.03,3.1,993.59,42.051,23.025042,72.538216,30.09,NaN,,2.54,9.677419,195.59,18 / 21,75533,2018-06-11 15:42:17:817,0
-0.2418,10.7048,4.1493,-0.2367,9.737,1.1428,0.4546,1.9519,2.4223,-0.7104,-0.2141,0.0196,2465,0.12,-29.64,33.6,190.66,-83.17,11.7,3.1,993.62,40.482,23.025042,72.538216,30.09,NaN,,2.54,9.677419,195.59,17 / 20,76034,2018-06-11 15:42:18:318,0
0.0742,12.9075,1.2785,-0.5937,9.7013,1.3045,-0.4646,3.3283,0.5224,-0.014,0.1139,0.0422,1853,2.16,-29.46,33.48,205.06,-81.6,24.47,3.1,993.61,40.933,23.025042,72.538216,30.09,NaN,,2.54,9.677419,195.59,17 / 20,76533,2018-06-11 15:42:18:817,0
0.1125,10.6785,1.7071,-0.2598,9.71,1.3489,0.3724,0.9685,0.3582,0.3959,-0.1262,-0.1081,1380,1.5,-28.8,32.28,192.97,-81.95,10.9,3.1,993.6,42.267,23.025042,72.538216,30.09,NaN,,2.54,9.677419,195.59,17 / 19,77033,2018-06-11 15:42:19:317,0
-0.9481,11.8421,3.7111,-0.1641,9.4085,2.7611,-0.6811,2.8071,0.9644,0.402,0.3228,0.2804,1986,7.74,-33.6,26.7,192.89,-71.88,0.58,3.1,993.61,42.675,23.024933,72.53823,30.17,NaN,,3.6,9.677419,189.3,18 / 19,21,2018-06-11 15:42:22:993,0
0.1676,10.7407,3.783,0.1555,9.3616,2.9166,0.0121,1.3791,0.8664,0.2829,0.1683,0.1051,1804,1.02,-34.62,27.66,179.24,-72.67,-3.05,3.1,993.6,43.451,23.024933,72.53823,30.17,NaN,,3.6,9.677419,189.3,18 / 19,521,2018-06-11 15:42:23:493,0
0.9793,10.1781,2.7319,0.2776,9.3721,2.8735,0.4144,-0.0823,-1.2598,0.0942,-0.1317,0.1753,1731,3.06,-34.92,27.48,180.62,-72.88,-5.52,3.1,993.6,43.952,23.024933,72.53823,30.17,NaN,,3.6,9.677419,189.3,18 / 19,1021,2018-06-11 15:42:23:993,0
1.5156,7.5156,1.0343,0.3727,9.455,2.5757,0.652,-3.3257,-2.5278,-0.1111,-0.0205,-0.0024,1690,2.64,-34.68,28.2,178.36,-74.61,-8.23,3.1,993.6,45.302,23.024933,72.53823,30.17,NaN,,3.6,9.677419,189.3,18 / 19,1465,2018-06-11 15:42:24:437,0
-0.0886,6.3975,0.9002,0.3048,9.6079,1.9404,-0.6735,-2.6286,-1.4807,0.1626,-0.1408,0.1185,1642,9.36,-32.34,29.22,186.98,-78.45,-8.93,3.1,993.59,51.754,23.024933,72.53823,30.17,NaN,,3.6,9.677419,189.3,18 / 19,1965,2018-06-11 15:42:24:937,0
0.6081,6.7973,-0.2251,0.5033,9.599,1.9435,-0.441,-2.3228,-1.5747,-0.0744,-0.2386,0.0843,1858,11.1,-31.8,28.86,185.26,-78.19,-14.52,3.1,993.6,55.166,23.024933,72.53823,30.17,NaN,,3.6,9.677419,189.3,19 / 20,2465,2018-06-11 15:42:25:437,0
-1.3384,7.9394,0.6225,0.0709,9.6653,1.6572,-1.4117,-1.1968,0.0404,0.2133,-0.1683,0.0568,1953,18.3,-30.9,27.54,206.56,-80.26,-2.45,3.1,993.61,56.64,23.024933,72.53823,30.17,NaN,,3.6,9.677419,189.3,19 / 20,2965,2018-06-11 15:42:25:937,0
-0.0982,8.1429,1.5539,0.5069,9.7602,0.8069,-0.605,-1.6173,0.747,-1.0476,0.0662,0.5437,2131,19.38,-27.48,29.52,180.2,-84.42,-32.13,3.1,993.59,55.243,23.024933,72.53823,30.17,NaN,,3.6,9.677419,189.3,18 / 19,3465,2018-06-11 15:42:26:437,0
1.9394,8.7678,2.6409,0.6807,9.7487,0.8179,2.2067,-0.7343,-0.4205,-0.9064,-0.2404,0.0153,2698,22.44,-28.56,25.14,181.45,-83.77,-39.77,3.1,993.59,53.818,23.024933,72.53823,30.17,NaN,,3.6,9.677419,189.3,18 / 19,3965,2018-06-11 15:42:26:937,0
0.079,10.6282,3.3161,0.5402,9.6904,1.4053,-0.5522,1.8979,3.3139,0.0783,0.0559,-0.1533,3145,25.8,-29.16,22.32,205.74,-81.17,-21.03,3.1,993.61,51.94,23.024933,72.53823,30.17,NaN,,3.6,9.677419,189.3,18 / 20,4468,2018-06-11 15:42:27:440,0
0.182,11.526,2.9258,0.3263,9.7842,0.5763,-0.4676,2.0626,2.9194,-0.7513,-0.8372,-0.0452,2914,27.9,-26.82,23.4,200.13,-86.13,-29.52,3.1,993.61,49.047,23.024933,72.53823,30.17,NaN,,3.6,9.677419,189.3,18 / 20,4965,2018-06-11 15:42:27:937,0
-0.1197,12.9243,4.3648,0.873,9.7089,1.0701,-0.9927,3.2154,3.2946,-1.5271,-0.1555,0.4172,3293,28.56,-28.8,20.04,194.66,-81.9,-39.21,3.1,993.64,47.081,23.024933,72.53823,30.17,NaN,,3.6,9.677419,189.3,20 / 22,5464,2018-06-11 15:42:28:436,0
0.4669,12.2539,3.3951,0.6155,9.7348,1.0122,0.5673,2.5718,1.5592,0.3849,0.1377,-0.3696,3827,30.12,-28.56,17.1,206.71,-83.06,-31.3,3.1,993.62,46.211,23.024933,72.53823,30.17,NaN,,3.6,9.677419,189.3,20 / 22,5965,2018-06-11 15:42:28:937,0
0.3998,12.1845,-0.5746,0.3618,9.786,0.5237,-1.7074,2.8175,2.2584,0.1528,-0.1415,0.201,5345,33.72,-26.34,15.54,208.96,-86.28,-34.64,3.1,993.63,45.203,23.024813,72.53815,30.13,NaN,,2.99,19.35484,265.45,19 / 22,6465,2018-06-11 15:42:29:437,0
-0.4094,12.1102,1.7478,0.4285,9.7254,1.1844,-0.5722,1.7982,1.253,0.245,-0.0767,-0.0305,5440,31.38,-28.2,15.3,220.61,-82.62,-19.89,3.1,993.62,43.746,23.024813,72.53815,30.13,NaN,,2.99,19.35484,265.45,19 / 22,6965,2018-06-11 15:42:29:937,0
0.7566,11.0927,1.5946,0.5003,9.7633,0.7725,0.6178,0.1777,-0.7055,0.0783,0.0595,0.2321,6488,29.52,-27.54,18.6,203.15,-84.61,-32.93,3.1,993.62,43.316,23.024813,72.53815,30.13,NaN,,2.99,19.35484,265.45,18 / 21,7464,2018-06-11 15:42:30:436,0
0.747,11.0424,-0.3017,0.4239,9.6481,1.7042,-0.4789,-1.0359,-0.4184,0.7026,0.2281,-0.1991,6777,27.78,-30.36,18.96,216.83,-79.68,-13.97,3.1,993.62,44.232,23.024813,72.53815,30.13,NaN,,2.99,19.35484,265.45,18 / 21,7964,2018-06-11 15:42:30:936,0
0.2131,7.882,-0.4238,0.0955,9.7686,0.8571,0.1176,-1.8867,-1.2809,0.7398,0.5671,-0.1655,7693,25.92,-27.96,23.82,216.81,-82.77,-7.26,3.1,993.64,44.85,23.024813,72.53815,30.13,NaN,,2.99,19.35484,265.45,20 / 21,8464,2018-06-11 15:42:31:436,0
0.8236,8.0232,0.2203,-0.0325,9.7146,1.3401,0.9615,-1.4232,-0.5643,-0.0494,0.0748,-0.033,6927,20.04,-30.18,27.9,212.24,-81.8,0.26,3.1,993.62,42.749,23.024813,72.53815,30.13,NaN,,2.99,19.35484,265.45,20 / 21,8964,2018-06-11 15:42:31:936,0
0.7686,6.4334,-0.0814,0.2932,9.7062,1.3688,-0.1256,-3.3374,-0.5882,0.2854,-0.5263,0.1283,8129,24.96,-29.04,23.58,210.82,-81.79,-12.09,3.1,993.62,42.507,23.024813,72.53815,30.13,NaN,,2.99,19.35484,265.45,18 / 19,9465,2018-06-11 15:42:32:437,0
-0.0144,6.9554,-0.51,0.2357,9.6856,1.5181,-0.6571,-2.5722,-1.9515,0.0465,0.2367,0.2413,9426,24.96,-30.3,21.42,216.55,-80.99,-8.83,3.1,993.63,42.626,23.024813,72.53815,30.13,NaN,,2.99,19.35484,265.45,18 / 19,9965,2018-06-11 15:42:32:937,0
-0.4956,6.7686,2.1046,0.4503,9.6967,1.3934,-1.1734,-2.3343,-0.8739,-0.1258,0.3882,0.3568,9273,21.06,-31.92,25.38,199.52,-81.41,-17.91,3.1,993.64,42.603,23.024813,72.53815,30.13,NaN,,2.99,19.35484,265.45,18 / 19,10465,2018-06-11 15:42:33:437,0
-1.099,7.6114,1.6951,0.6128,9.6963,1.3331,-1.7046,-0.7417,-0.1024,-0.3157,0.638,0.0586,7810,15.36,-31.62,28.5,182.34,-81.4,-24.69,3.1,993.64,42.161,23.024813,72.53815,30.13,NaN,,2.99,19.35484,265.45,18 / 19,10966,2018-06-11 15:42:33:938,0
0.9745,8.8492,0.3831,0.6905,9.7009,1.2594,0.2839,-0.8517,-0.8763,-0.1007,-0.2471,-0.237,6762,14.46,-31.08,29.22,177.48,-81.42,-28.63,3.1,993.63,42.98,23.024813,72.53815,30.13,NaN,,2.99,19.35484,265.45,19 / 21,11465,2018-06-11 15:42:34:437,0
-0.0527,9.5148,2.7845,0.6791,9.6253,1.7503,-0.308,0.4762,-0.5196,-0.6071,0.4321,0.1429,6706,14.46,-31.56,28.5,183.89,-78.96,-21.21,3.1,993.63,43.477,23.024813,72.53815,30.13,NaN,,2.99,19.35484,265.45,19 / 21,11964,2018-06-11 15:42:34:936,0
3.6321,8.9929,-1.0511,0.7795,9.7462,0.7577,1.191,0.1733,0.8943,0.096,-0.8116,0.0922,6113,13.92,-29.88,31.02,160.27,-83.64,-45.81,3.1,993.62,45.692,23.024813,72.53815,30.13,NaN,,2.99,19.35484,265.45,17 / 20,12465,2018-06-11 15:42:35:437,0
0.3759,13.0584,3.4358,0.5362,9.7738,0.5965,0.479,4.101,1.6757,-0.0054,-0.2019,-0.1032,4907,18.72,-27.78,30.12,170.95,-85.31,-41.95,3.1,993.61,44.923,23.024813,72.53815,30.13,NaN,,2.99,19.35484,265.45,17 / 20,12965,2018-06-11 15:42:35:937,0
1.3528,13.2284,1.9298,0.9753,9.7461,0.483,1.9649,1.6651,-1.2611,-0.3603,-1.343,-0.27,5785,33.06,-26.82,12.36,185.9,-83.63,-63.65,3.1,993.63,48.6,23.024813,72.53815,30.13,NaN,,2.99,19.35484,265.45,18 / 20,13465,2018-06-11 15:42:36:437,0
1.7981,11.5332,0.3639,0.7023,9.7509,0.7726,-0.1133,2.9867,0.9776,-0.0476,-0.4524,-0.0739,3176,36.66,-24.18,-3.9,230.99,-83.89,-42.27,3.1,993.63,49.341,23.024813,72.53815,30.13,NaN,,2.99,19.35484,265.45,18 / 20,13965,2018-06-11 15:42:36:937,0
2.186,10.9586,0.0215,0.5273,9.7389,1.0229,0.1838,2.6371,0.5669,0.2505,-0.0052,-0.4612,3247,36.66,-22.26,-7.08,250.74,-82.95,-26.2,3.1,993.63,52.465,23.024813,72.53815,30.13,NaN,,2.99,19.35484,265.45,16 / 19,14465,2018-06-11 15:42:37:437,0
1.4007,9.1868,2.1405,0.5039,9.6871,1.4409,0.8968,-0.5003,0.6996,-0.149,0.1774,-0.2187,3274,35.94,-19.44,-10.5,261.8,-81.05,-19.27,3.1,993.61,51.943,23.024813,72.53815,30.13,NaN,,2.99,19.35484,265.45,16 / 19,14965,2018-06-11 15:42:37:937,0
0.1676,7.9538,0.7422,-0.3731,9.7064,1.3475,-0.9055,-0.8261,-1.7306,-0.6004,-0.1274,0.8778,3181,37.86,-16.92,-7.14,292.35,-81.8,15.47,3.1,993.65,45.791,23.024748,72.53805,29.96,NaN,,3.16,19.35484,318.27,16 / 19,15465,2018-06-11 15:42:38:437,0
-0.3184,6.6752,-0.6943,0.0296,9.6949,1.4755,-0.7695,-3.1227,-0.2928,-0.1392,-0.2789,0.1484,3085,34.14,-20.82,-5.58,273.51,-81.34,-1.15,3.1,993.64,45.705,23.024748,72.53805,29.96,164.7609927,,3.16,19.35484,318.27,16 / 19,15965,2018-06-11 15:42:38:937,0
-0.6704,10.7527,2.8372,0.0529,9.4259,2.7056,-0.9005,1.9733,2.3918,-0.6578,-0.0651,0.1668,7186,35.94,-27.24,2.82,252.97,-73.98,-1.12,3.1,993.62,49.687,23.024748,72.53805,29.96,164.7609927,,3.16,19.35484,318.27,18 / 21,17,2018-06-11 15:42:43:580,0
-1.8196,10.9466,6.3688,0.3597,9.4212,2.6983,-1.4371,1.681,4.3959,-0.0231,0.3668,-0.0941,7841,32.46,-30.84,9,235.18,-73.88,-7.59,3.1,993.65,50.013,23.024748,72.53805,29.96,164.7609927,,3.16,19.35484,318.27,18 / 21,517,2018-06-11 15:42:44:080,0
-0.0455,13.111,3.431,0.5973,9.6322,1.7419,0.9063,2.3943,-1.5624,-0.1789,-0.2758,-0.0085,5902,27.96,-30.18,17.7,213.43,-79.18,-18.93,3.1,993.64,48.458,23.024748,72.53805,29.96,164.7609927,,3.16,19.35484,318.27,17 / 19,1017,2018-06-11 15:42:44:580,0
1.6497,12.8932,1.0918,0.8598,9.6756,1.3465,0.4882,1.8959,1.4093,0.5028,0.4596,-0.1576,3207,18.9,-30.18,26.04,183.16,-80.62,-32.56,3.1,993.64,48.315,23.024748,72.53805,29.96,164.7609927,,3.16,19.35484,318.27,17 / 19,1517,2018-06-11 15:42:45:080,0
2.1189,12.0169,2.0136,0.6755,9.7163,1.1433,1.4435,2.3006,0.8703,-0.1416,0.2049,0.3213,2903,10.92,-30.6,32.94,169.07,-82.22,-30.57,3.1,993.63,47.02,23.024748,72.53805,29.96,164.7609927,,3.16,19.35484,318.27,16 / 19,2017,2018-06-11 15:42:45:580,0
1.2331,11.1358,1.2187,0.529,9.7696,0.6672,0.7041,1.3662,0.5514,-0.3041,-0.1421,0.1686,2812,5.52,-28.38,37.8,152.17,-85.02,-38.41,3.1,993.62,47.165,23.024748,72.53805,29.96,164.7609927,,3.16,19.35484,318.27,16 / 19,2517,2018-06-11 15:42:46:080,0
1.1205,9.9578,0.3927,0.3779,9.7559,0.9216,0.7426,0.2019,-0.529,0.4033,0.1041,-0.2278,2642,9.06,-31.14,34.14,173.11,-84.17,-22.29,3.1,993.62,47.431,23.024748,72.53805,29.96,164.7609927,,3.16,19.35484,318.27,18 / 22,3020,2018-06-11 15:42:46:583,0
0.9793,9.0288,1.8388,0.3603,9.6838,1.5049,0.753,-1.1793,-0.9039,-0.0903,0.1365,0.1802,2453,7.5,-33.3,31.56,180.5,-80.92,-13.47,3.1,993.61,54.287,23.024748,72.53805,29.96,164.7609927,,3.16,19.35484,318.27,18 / 22,3517,2018-06-11 15:42:47:080,0
1.0726,6.8333,0.4669,0.3552,9.7236,1.2227,-0.767,-3.0005,-0.1213,0.0569,0.1634,0.3763,2379,7.68,-31.26,31.38,178.45,-82.54,-16.2,3.1,993.61,51.972,23.024729,72.53794,29.87,164.7609927,,3.54,19.35484,211.58,18 / 20,4017,2018-06-11 15:42:47:580,0
0.9026,7.4558,0.1269,0.4002,9.6756,1.5471,0.6557,-1.6021,-1.2597,0.0587,-0.0388,0.1283,2358,4.86,-31.8,30.84,177.95,-80.35,-11.53,3.1,993.61,47.76,23.024729,72.53794,29.87,164.7609927,,3.54,19.35484,211.58,18 / 20,4517,2018-06-11 15:42:48:080,0
0.0527,6.4047,1.008,0.0981,9.7508,1.04,0.139,-3.3605,-0.6258,-0.05,0.1176,0.1411,1980,7.8,-30,32.88,194.97,-85.53,2.32,3.1,993.6,49.241,23.024729,72.53794,29.87,164.7609927,,3.54,19.35484,211.58,18 / 22,5017,2018-06-11 15:42:48:580,0
0.1868,6.2802,2.0567,-0.1452,9.6543,1.7155,0.3319,-3.3742,0.3412,-1.3072,-0.4041,0.7257,1676,7.62,-31.74,31.98,196.36,-79.89,4.84,3.1,993.61,44.282,23.024729,72.53794,29.87,164.7609927,,3.54,19.35484,211.58,18 / 22,5517,2018-06-11 15:42:49:080,0
1.1325,9.443,2.5547,0.1881,9.6401,1.7898,0.9443,-0.1971,0.7649,-0.3835,0.2324,-0.2028,1336,11.64,-33.18,28.38,194.57,-79.43,-6,3.1,993.62,43.263,23.024729,72.53794,29.87,164.7609927,,3.54,19.35484,211.58,17 / 19,6017,2018-06-11 15:42:49:580,0
-1.1014,10.7072,5.3344,0.1586,9.7327,1.1914,-1.26,0.9745,4.143,0.8211,0.4786,0.1344,1232,10.2,-32.1,30,189.72,-82.96,-7.58,3.1,993.63,43.639,23.024729,72.53794,29.87,164.7609927,,3.54,19.35484,211.58,17 / 19,6517,2018-06-11 15:42:50:080,0
0.1197,11.8086,1.7454,0.5907,9.57,2.0581,-0.6482,2.5139,2.424,0.9885,-0.4652,-0.4471,1377,11.1,-32.64,28.56,183.94,-77.39,-16.01,3.1,993.62,43.653,23.024729,72.53794,29.87,164.7609927,,3.54,19.35484,211.58,16 / 17,7017,2018-06-11 15:42:50:580,0
1.087,12.2539,2.0854,0.2473,9.6915,1.4779,0.9044,0.2208,-1.0733,0.3092,-0.0401,0.047,1696,19.02,-29.34,25.92,203.73,-81.21,-9.5,3.1,993.62,43.585,23.024729,72.53794,29.87,164.7609927,,3.54,19.35484,211.58,16 / 17,7517,2018-06-11 15:42:51:080,0
0.0311,10.5635,0.4836,0.6765,9.6866,1.3719,-0.6454,0.8769,-0.8883,0.1009,-0.5055,-0.0464,1926,21.84,-29.76,22.38,196,-80.48,-26.69,3.1,993.63,43.395,23.024729,72.53794,29.87,164.7609927,,3.54,19.35484,211.58,14 / 18,8017,2018-06-11 15:42:51:580,0
0.6943,7.0296,0.7494,0.8625,9.728,0.8904,-0.7308,-3.0072,0.132,-0.1642,-0.4561,0.1619,1604,29.94,-26.82,12.96,200.53,-82.74,-44.09,3.1,993.62,43.961,23.024729,72.53794,29.87,164.7609927,,3.54,19.35484,211.58,14 / 18,8517,2018-06-11 15:42:52:080,0
0.2322,7.2714,1.3408,0.3401,9.4905,2.4465,-0.5939,-2.3627,-0.5095,-0.3218,-0.387,0.1185,1340,30.9,-27.06,6.42,240.82,-75.41,-7.91,3.1,993.62,43.172,23.024729,72.53794,29.87,164.7609927,,3.54,19.35484,211.58,14 / 18,9017,2018-06-11 15:42:52:580,0
0.2586,7.9274,2.6792,0.3838,9.425,2.6818,-0.0654,-0.8798,0.2345,-0.4287,-0.1036,-0.2578,1219,31.62,-26.22,4.74,242.24,-73.96,-8.15,3.1,993.62,42.623,23.024729,72.53794,29.87,164.7609927,,3.54,19.35484,211.58,14 / 18,9518,2018-06-11 15:42:53:081,0
0.1006,10.8748,6.6345,1.0615,9.1395,3.3932,-0.6737,2.6308,0.7345,-0.3035,0.0626,0.0342,924,28.98,-22.8,4.14,232.99,-68.74,-17.37,3.1,993.64,44.432,23.024729,72.53794,29.87,164.7609927,,3.54,19.35484,211.58,14 / 19,22,2018-06-11 15:42:55:545,0
1.1732,11.7846,7.6329,0.9943,9.2474,3.1092,-0.0271,2.2116,1.5621,1.0227,-0.3363,-0.4032,296,31.2,-21.24,2.46,236.22,-68.22,-19.42,3.1,993.63,41.804,23.024729,72.53794,29.87,164.7609927,,3.54,19.35484,211.58,14 / 19,522,2018-06-11 15:42:56:045,0
1.2618,12.534,3.091,1.1282,9.5672,1.8344,0.7082,2.9404,-0.4026,-0.5619,0.3863,0.1772,173,30.36,-18.84,0.6,230.91,-77.31,-31.59,3.1,993.61,42.094,23.02466,72.537895,29.87,164.7609927,,1.64,19.35484,197.8,14 / 19,1023,2018-06-11 15:42:56:546,0
-0.2155,13.2834,1.6568,0.7193,9.6943,1.2932,-0.6642,3.2922,0.2535,0.5578,0.0571,-0.515,125,28.62,-22.32,2.1,232.09,-81.32,-29.08,3.1,993.61,41.066,23.02466,72.537895,29.87,164.7609927,,1.64,19.35484,197.8,14 / 19,1521,2018-06-11 15:42:57:044,0
-1.2331,13.4319,4.7311,0.4373,9.5226,2.3021,0.2355,0.5645,0.1999,-0.039,0.0901,-0.3671,94,30.96,-22.02,-2.7,255.52,-76.18,-10.76,3.1,993.61,41.499,23.02466,72.537895,29.87,164.7609927,,1.64,19.35484,197.8,0 / 19,2021,2018-06-11 15:42:57:544,0
1.5682,11.2148,2.2267,1.1605,9.3758,2.63,0.1803,1.1829,-0.8894,0.5334,0.1395,-0.1313,106,29.7,-25.62,-1.44,236.65,-72.95,-23.81,3.1,993.61,43.646,23.02466,72.537895,29.87,164.7609927,,1.64,19.35484,197.8,0 / 19,2521,2018-06-11 15:42:58:044,0
1.0846,9.6106,1.3216,0.7536,9.4058,2.6706,-0.0616,-0.5183,-1.8302,0.5425,0.0656,-0.2456,86,32.82,-22.32,-2.4,248.12,-73.56,-15.76,3.1,993.6,42.776,23.02466,72.537895,29.87,164.7609927,,1.64,19.35484,197.8,0 / 20,3025,2018-06-11 15:42:58:548,0
0.8811,7.8676,0.8787,0.7307,9.4819,2.3937,0.1504,-1.6143,-1.515,-0.028,0.1597,0.1405,69,32.58,-19.5,-0.3,245.83,-75.21,-16.97,3.1,993.59,42.51,23.02466,72.537895,29.87,164.7609927,,1.64,19.35484,197.8,0 / 20,3522,2018-06-11 15:42:59:045,0
0.6034,6.9195,1.7167,0.6391,9.4691,2.4693,-0.0358,-2.5497,-0.7527,0.4998,-0.1066,-0.1863,56,33.06,-16.14,0.3,248.35,-74.53,-15.25,3.1,993.59,41.023,23.02466,72.537895,29.87,164.7609927,,1.64,19.35484,197.8,0 / 18,4022,2018-06-11 15:42:59:545,0
0.5435,7.3145,0.1844,0.5547,9.4966,2.3827,-0.0112,-2.1821,-2.1984,0.1412,0.2336,-0.0373,65,30.3,-17.88,5.28,240.65,-75.55,-13.1,3.1,993.58,41.667,23.02466,72.537895,29.87,164.7609927,,1.64,19.35484,197.8,0 / 18,4522,2018-06-11 15:43:00:045,0
-1.348,7.9274,1.9753,0.3657,9.4381,2.6379,-0.8781,-2.0422,-1.3426,0.1174,0.4334,-0.3366,64,29.76,-20.64,6,241.96,-74.24,-7.89,3.1,993.59,41.173,23.02466,72.537895,29.87,164.7609927,,1.64,19.35484,197.8,0 / 16,5022,2018-06-11 15:43:00:545,0
-0.68,8.2531,3.5076,0.3128,9.3144,3.0518,1.0998,-2.8595,-0.0039,-0.8362,-0.2642,-0.4832,67,27.78,-23.4,6.36,240.24,-71.77,-5.85,3.1,993.57,42.564,23.02466,72.537895,29.87,164.7609927,,1.64,19.35484,197.8,0 / 16,5522,2018-06-11 15:43:01:045,0
0.6656,6.5316,3.7375,0.5095,9.2008,3.3549,0.3118,-2.0419,0.6914,-0.2999,-0.1121,0.0593,69,28.98,-23.82,2.4,243.34,-69.76,-8.63,3.1,993.55,42.731,23.02466,72.537895,29.87,164.7609927,,1.64,19.35484,197.8,0 / 16,6022,2018-06-11 15:43:01:545,0
-0.3544,6.6728,1.6497,0.4928,9.3094,3.0434,-0.239,-2.706,-1.4034,0.2047,0.007,-0.0153,55,31.14,-23.76,0.42,248.18,-71.68,-9.2,3.1,993.58,41.654,23.02466,72.537895,29.87,164.7609927,,1.64,19.35484,197.8,0 / 16,6522,2018-06-11 15:43:02:045,0
-0.5315,10.2044,7.8843,0.3896,8.0183,5.6325,-0.2771,1.439,1.3468,1.2261,0.1814,-0.2028,4385,12.54,-38.82,12.96,199.66,-54.85,-3.96,8,996.31,58.58,23.031927,72.53537,153.98,NaN,,1.67,154.8387,158.72,07-Jul,79,2018-06-12 12:08:27:721,0
0.8979,10.0464,2.423,0.4135,9.1095,3.6079,0.4867,-0.1716,-0.0141,0.8529,0.0885,-0.2853,3073,15.72,-33.9,21.96,201.16,-68.27,-6.54,8,996.31,59.649,23.031927,72.53537,153.98,NaN,,1.67,154.8387,158.72,07-Jul,579,2018-06-12 12:08:28:221,0
0.4597,7.7,0.4118,0.3023,9.3907,2.8097,0.1072,-2.2773,-1.8687,0.2805,-0.1576,0.0165,2907,14.52,-33.06,25.68,198.72,-73.25,-6.14,8,996.31,55.581,23.031927,72.53537,153.98,NaN,,1.67,154.8387,158.72,10-Oct,1080,2018-06-12 12:08:28:722,0
0.3711,4.3312,-0.577,0.1879,9.6153,1.9186,0.1833,-5.284,-2.4956,0.363,0.0189,0.1032,2761,18.84,-30.3,26.7,205.54,-78.66,-5.59,8,996.28,52.233,23.031927,72.53537,153.98,NaN,,1.67,154.8387,158.72,10-Oct,1579,2018-06-12 12:08:29:221,0
-0.5579,7.8389,-0.5243,-0.2196,9.5263,2.3176,-0.3382,-1.6875,-2.8419,-0.3731,0.182,0.193,3732,14.82,-30.54,27.96,207.99,-76.27,5.41,8,996.28,53.169,23.031927,72.53537,153.98,NaN,,1.67,154.8387,158.72,10-Dec,2079,2018-06-12 12:08:29:721,0
0.1125,9.1509,4.2163,0.0268,9.5585,2.1918,0.0858,-0.4076,2.0245,0.1663,-0.3873,0.0434,3183,16.68,-30.72,28.14,205.82,-77.08,-0.7,8,996.31,54.365,23.031927,72.53537,153.98,NaN,,1.67,154.8387,158.72,10-Dec,2580,2018-06-12 12:08:30:222,0
2.2386,13.4965,1.3408,0.2134,9.6223,1.8803,-0.0338,3.4744,1.0384,-0.2033,0.3408,0.2034,2907,15.78,-30.42,28.86,199.41,-78.87,-6.47,8,996.29,52.131,23.031927,72.53537,153.98,NaN,,1.67,154.8387,158.72,Oct-14,3080,2018-06-12 12:08:30:722,0
1.8244,11.5189,1.8723,0.0658,9.6974,1.4583,0.2215,2.3985,-0.9077,-0.2491,-0.3916,0.4184,4195,12.36,-29.04,30.72,196.62,-81.44,-2.58,8,996.3,54.434,23.031927,72.53537,153.98,NaN,,1.67,154.8387,158.72,Oct-14,3580,2018-06-12 12:08:31:222,0
1.5802,11.2675,2.5906,0.4496,9.3338,2.9747,1.1306,1.9337,-0.3841,-0.56,0.3958,-0.0031,4018,12.84,-34.2,25.74,193.71,-72.13,-8.6,8,996.31,53.564,23.031927,72.53537,153.98,NaN,,1.67,154.8387,158.72,Oct-17,4080,2018-06-12 12:08:31:722,0
0.601,7.8269,3.9051,0.3083,8.7582,4.4011,0.137,-0.3566,0.2916,-0.2674,-0.0758,-0.0929,4051,15.12,-36.12,19.44,202.65,-64.29,-3.09,8,996.32,52.327,23.031927,72.53537,153.98,NaN,,1.67,154.8387,158.72,Oct-17,4579,2018-06-12 12:08:32:221,0
0.6297,6.3137,2.8348,0.4213,8.921,4.0508,0.2084,-2.6073,-1.216,-0.039,-0.1558,0.0098,3373,14.94,-35.64,19.38,201.11,-65.46,-5.94,8,996.32,56.294,23.031927,72.53537,153.98,NaN,,1.67,154.8387,158.72,15 / 17,5080,2018-06-12 12:08:32:722,0
-0.2945,6.4382,3.2849,0.4329,9.1304,3.5523,-0.9549,-2.5437,0.9537,-0.6156,0.4465,0.1588,4076,12.9,-35.34,22.44,196.51,-68.6,-6.95,8,996.32,58.117,23.031927,72.53537,153.98,NaN,,1.67,154.8387,158.72,15 / 17,5579,2018-06-12 12:08:33:221,0
0.9577,8.3824,3.6058,0.4721,9.1684,3.4478,1.3045,-0.075,-1.4533,-0.207,-0.6579,-0.1387,4514,15.24,-35.1,21.24,199.58,-69.22,-7.8,8,996.33,57.012,23.031927,72.53537,153.98,NaN,,1.67,154.8387,158.72,15 / 17,6080,2018-06-12 12:08:33:722,0
-0.3855,9.1988,2.9186,0.366,9.2177,3.3273,-1.2087,-0.0069,4.2961,0.7564,-0.2132,-0.1069,4401,13.98,-35.04,23.16,198.1,-70.04,-6.28,8,996.32,51.203,23.031927,72.53537,153.98,NaN,,1.67,154.8387,158.72,15 / 17,6580,2018-06-12 12:08:34:222,0
0.4956,9.6681,5.7606,0.2031,9.1828,3.4358,-0.1744,1.3807,1.9441,-0.356,-0.2994,-0.1167,5008,13.44,-34.98,23.28,198.61,-69.45,-3.38,8,996.33,50.76,23.031927,72.53537,153.98,NaN,,1.67,154.8387,158.72,15 / 17,7080,2018-06-12 12:08:34:722,0
1.1828,11.2315,3.273,0.0914,9.0055,3.881,0.4856,1.6346,1.6761,-0.075,0.0708,0.2505,6448,16.74,-35.46,20.88,206.22,-66.68,-1.35,8,996.34,51.967,23.031927,72.53537,153.98,NaN,,1.67,154.8387,158.72,16 / 18,7579,2018-06-12 12:08:35:221,0
0.4382,10.8437,4.257,0.3046,8.8647,4.1826,0.5598,0.9446,1.037,-0.2943,-0.402,-6.00E-04,6795,14.52,-36.6,19.38,201.81,-64.68,-4.16,8,996.34,52.528,23.032112,72.535286,42.29,NaN,,3.65,19.35484,,16 / 18,8081,2018-06-12 12:08:35:723,0
0.6824,10.1996,5.8851,0.0898,8.6348,4.6478,0.1281,2.2639,2.5877,0.0191,0.5919,0.047,9785,17.22,-36.42,17.88,206.78,-62.68,-1.31,8,996.33,52.119,23.032112,72.535286,42.29,NaN,,3.65,19.35484,,18 / 20,8579,2018-06-12 12:08:36:221,0
-1.0104,8.5476,3.5363,0.2737,8.5706,4.7582,-1.2841,-0.023,-1.2218,0.4442,0.2987,-0.2926,12333,15,-38.22,16.86,202.35,-60.92,-3.29,8,996.35,51.342,23.032112,72.535286,42.29,NaN,,3.65,19.35484,,18 / 20,9081,2018-06-12 12:08:36:723,0
1.688,5.0974,2.8755,0.817,8.3506,5.0764,0.871,-3.2532,-2.2009,-0.5692,0.1496,0.4276,10170,15.96,-38.88,15,200.85,-58.38,-9.14,8,996.37,51.219,23.032112,72.535286,42.29,NaN,,3.65,19.35484,,18 / 20,9581,2018-06-12 12:08:37:223,0
-0.352,6.3736,3.7542,0.3783,7.6179,6.164,-1.3097,-2.2691,2.6661,-0.4391,0.8759,-0.047,26167,14.82,-39.84,9.3,203.68,-50.97,-3.51,8,996.37,54.208,23.032112,72.535286,42.29,NaN,,3.65,19.35484,,18 / 20,10080,2018-06-12 12:08:37:722,0
0.2753,5.5834,8.2531,0.2481,7.2124,6.64,0.0273,-1.629,1.6131,-0.5283,0.791,0.1491,42162,14.34,-39.66,7.56,202.31,-47.35,-2.14,8,996.38,52.265,23.032112,72.535286,42.29,NaN,,3.65,19.35484,,19 / 21,10580,2018-06-12 12:08:38:222,0
-0.4405,6.5268,8.131,0.1942,7.1675,6.6902,-0.6348,-0.6408,1.4408,0.2591,-0.3049,-0.1625,44704,14.34,-40.68,8.1,201.96,-46.96,-1.66,8,996.38,51.404,23.032112,72.535286,42.29,NaN,,3.65,19.35484,,19 / 21,11080,2018-06-12 12:08:38:722,0
0.486,7.9538,9.5891,0.429,7.2232,6.619,0.0571,0.7306,2.9701,-0.4452,-0.0465,-0.1069,44785,14.94,-40.56,7.86,202.83,-47.44,-3.71,8,996.39,51.051,23.032112,72.535286,42.29,NaN,,3.65,19.35484,,19 / 21,11580,2018-06-12 12:08:39:222,0
0.5507,7.6689,8.3488,0.1397,7.467,6.3556,0.411,0.2018,1.9932,-0.1141,0.2541,0.4197,40574,17.76,-38.4,9.24,209.25,-49.59,-1.26,8,996.38,53.072,23.032112,72.535286,42.29,NaN,,3.65,19.35484,,19 / 21,12080,2018-06-12 12:08:39:722,0
0.8188,8.4255,6.6513,0.229,7.0804,6.7813,0.0081,0.7872,0.344,0.1143,0.1228,-0.0641,48198,14.28,-40.44,7.92,202.1,-46.22,-1.93,8,996.36,56.16,23.032112,72.535286,42.29,NaN,,3.65,19.35484,,19 / 21,12580,2018-06-12 12:08:40:222,0
0.6034,6.7016,5.921,-0.0189,7.3023,6.5457,0.493,-0.7971,-1.5297,-0.1031,0.0042,0,54204,16.68,-38.94,7.86,208.05,-48.13,0.17,8,996.35,61.722,23.032112,72.535286,42.29,NaN,,3.65,19.35484,,19 / 21,13079,2018-06-12 12:08:40:721,0
0.0646,6.4454,3.3759,-0.0022,7.1842,6.6752,0.0668,-0.7388,-3.2993,0.1412,0.2889,-0.0147,50759,15.06,-40.2,7.68,204.39,-47.1,0.02,8,996.35,66.558,23.032112,72.535286,42.29,NaN,,3.65,19.35484,,19 / 22,13579,2018-06-12 12:08:41:221,0
-0.5842,5.1621,5.5523,-0.2854,7.389,6.4414,-0.2988,-2.227,-0.889,0.1418,0.0085,0.0147,58180,16.32,-39.72,9.18,206.4,-48.94,1.6,8,996.34,70.014,23.032112,72.535286,42.29,NaN,,3.65,19.35484,,19 / 22,14080,2018-06-12 12:08:41:722,0
-1.0894,6.9697,6.0743,-0.1717,7.3658,6.472,-0.9225,-0.42,1.3166,0.2988,-0.1155,-0.0409,46617,13.98,-39.84,9.72,202.97,-48.69,1.52,8,996.34,52.207,23.032112,72.535286,42.29,NaN,,3.65,19.35484,,18 / 22,14581,2018-06-12 12:08:42:223,0
0.4094,6.9075,6.8692,0.1012,7.4361,6.3926,0.696,0.1083,-1.2784,0.4289,-0.5663,-0.5492,50005,15.66,-40.38,9.18,205.64,-48.55,-0.2,8,996.34,52.513,23.032112,72.535286,42.29,NaN,,3.65,19.35484,,18 / 22,15080,2018-06-12 12:08:42:722,0
1.3695,9.0839,7.7982,0.1685,7.249,6.6026,1.1436,1.4901,0.7981,-0.4641,-0.1815,-0.1765,53545,14.76,-39.84,9.06,203.55,-47.66,-1.46,8,996.35,53.055,23.032112,72.535286,42.29,NaN,,3.65,19.35484,,19 / 22,15580,2018-06-12 12:08:43:222,0
-0.3951,9.7519,7.6042,-0.0469,7.432,6.3979,-0.9371,2.1858,2.3484,0.3147,-0.0849,-0.3512,48585,16.32,-39.6,9.36,206.08,-49.28,0.42,8,996.37,59.874,23.032112,72.535286,42.29,NaN,,3.65,19.35484,,19 / 22,16079,2018-06-12 12:08:43:721,0
0.4477,8.0735,7.2762,-0.1616,7.5327,6.2771,-0.0084,0.7994,-0.0305,-0.0878,0.2449,0.3665,47312,18.06,-38.82,9.78,209.47,-50.19,1.48,8,996.39,56.491,23.032112,72.535286,42.29,NaN,,3.65,19.35484,,19 / 22,16579,2018-06-12 12:08:44:221,0
0.4166,5.8684,4.8029,-0.0605,7.3632,6.4769,0.9918,-2.2778,-2.6508,-0.2149,0.1844,0.1796,46468,15.66,-40.32,9.36,205.94,-48.66,0.53,8,996.38,63.064,23.032112,72.535286,42.29,NaN,,3.65,19.35484,,19 / 22,17080,2018-06-12 12:08:44:722,0
-0.6584,5.3177,3.4358,-0.4317,7.6167,6.162,-0.2267,-2.299,-2.7262,0.0227,-0.019,0.0305,47875,17.94,-38.64,11.4,210.25,-50.96,4.01,8,996.38,65.14,23.032112,72.535286,42.29,NaN,,3.65,19.35484,,18 / 22,17579,2018-06-12 12:08:45:221,0
-1.2666,6.3113,3.7638,-0.2302,8.007,5.6573,-1.0364,-1.6957,-1.8935,-0.5503,0.2724,0.4551,36333,16.5,-38.88,13.26,208.75,-54.54,3.45,8,996.39,61.138,23.032112,72.535286,42.29,NaN,,3.65,19.35484,,18 / 22,18080,2018-06-12 12:08:45:722,0
0.6105,8.2531,3.2802,-0.1929,8.0679,5.5716,0.8035,0.1852,-2.2914,0.1394,-0.5394,-0.4148,27552.998,15.24,-39.18,13.74,204.96,-55.36,1.98,8,996.38,62.308,23.032112,72.535286,42.29,NaN,,3.65,19.35484,,17 / 22,18579,2018-06-12 12:08:46:221,0
-1.6928,8.6577,9.8093,-0.3585,7.833,5.8894,0.0927,2.1391,1.8273,-0.1104,0.1484,-0.0751,34047,15.96,-38.52,12,207.37,-53.01,3.48,8,996.36,66.764,23.032045,72.535255,35.49,NaN,,4.12,19.35484,207.67,17 / 22,19079,2018-06-12 12:08:46:721,0
0.3998,8.933,7.0847,-0.2349,7.9025,5.8022,0.108,0.9395,3.1069,-0.5252,-0.3678,-0.157,31388.998,15.72,-39.18,13.2,207.03,-53.52,3.46,8,996.37,53.73,23.032045,72.535255,35.49,NaN,,4.12,19.35484,207.67,18 / 22,19579,2018-06-12 12:08:47:221,0
-0.6656,9.2299,8.6625,-0.4357,7.9289,5.7543,-0.6417,1.7032,2.6089,0.1669,0.2388,0.1051,28952,16.8,-38.34,13.5,208.7,-54.11,3.8,8,996.37,54.567,23.032045,72.535255,35.49,NaN,,4.12,19.35484,207.67,18 / 22,20080,2018-06-12 12:08:47:722,0
-0.3759,8.3895,6.5938,-0.4359,7.7024,6.0542,0.06,0.6872,0.5396,-0.1056,-0.1576,0.1008,29792.998,17.4,-38.52,12.84,208.2,-51.76,4.12,8,996.38,50.43,23.032045,72.535255,35.49,NaN,,4.12,19.35484,207.67,17 / 22,20580,2018-06-12 12:08:48:222,0
0.0263,7.0966,3.1197,-0.4043,7.8382,5.8796,0.6509,-1.5939,-2.8652,0.1962,0.127,-0.0941,25756,19.5,-37.68,11.94,213.57,-53.06,3.93,8,996.41,60.941,23.032045,72.535255,35.49,NaN,,4.12,19.35484,207.67,17 / 22,21080,2018-06-12 12:08:48:722,0
-0.4262,6.3113,2.4254,-0.3286,7.7477,6.0029,-0.5548,-1.8937,-1.5903,0.1522,-0.1387,0.0299,26704,18.96,-37.92,11.1,212.14,-52.19,3.13,8,996.41,61.815,23.032045,72.535255,35.49,NaN,,4.12,19.35484,207.67,18 / 22,21580,2018-06-12 12:08:49:222,0
-1.1708,6.5962,6.1365,-0.4221,7.8603,5.8487,-0.7535,-1.4485,-1.3714,0.2836,0.1228,-0.0702,25176,21.18,-37.08,11.04,215.63,-53.63,2.7,8,996.41,57.723,23.032045,72.535255,35.49,NaN,,4.12,19.35484,207.67,18 / 22,22080,2018-06-12 12:08:49:722,0
-1.913,7.0871,8.4925,-0.6608,7.8892,5.7875,-0.4358,-0.6537,-0.2615,0.4094,-0.2987,0.0202,22733,19.02,-38.88,12.48,212.46,-53.15,5.41,8,996.42,57.653,23.032045,72.535255,35.49,NaN,,4.12,19.35484,207.67,18 / 21,22580,2018-06-12 12:08:50:222,0
0.2346,6.5699,5.5427,-0.7381,7.9405,5.7073,-0.2101,-1.1073,1.8394,-0.0988,-0.3543,0.1118,24490,16.44,-39.06,14.64,208.14,-54.07,7.37,8,996.38,69.529,23.032045,72.535255,35.49,NaN,,4.12,19.35484,207.67,18 / 21,23080,2018-06-12 12:08:50:722,0
-0.316,8.9043,7.0966,-0.7488,8.0225,5.5901,-0.3262,1.1285,2.7539,0.0905,-0.3788,0.529,21525,16.86,-39.24,15.42,209.91,-54.89,7.63,8,996.35,72.197,23.032045,72.535255,35.49,NaN,,4.12,19.35484,207.67,18 / 22,23579,2018-06-12 12:08:51:221,0
0.7207,9.8093,7.1709,-0.5289,8.0746,5.5401,0.2727,1.5983,0.8,0.0221,-0.4606,0.0672,16920,17.52,-38.1,14.1,211.32,-55.42,5.45,8,996.34,50.656,23.032045,72.535255,35.49,NaN,,4.12,19.35484,207.67,18 / 22,24079,2018-06-12 12:08:51:721,0
0.7255,8.8899,4.8747,-0.2599,8.396,5.0606,0.9854,0.4939,-0.1858,0.0117,0.1331,0.0525,14292,21.78,-36.96,15.84,215.6,-58.89,2.94,8,996.37,61.407,23.032045,72.535255,35.49,NaN,,4.12,19.35484,207.67,18 / 22,24581,2018-06-12 12:08:52:223,0
0.3663,7.2403,2.6074,0.0089,8.4782,4.9286,0.3574,-1.2379,-2.3212,-0.1831,0.0623,0.0305,14450,18.12,-36.66,15.3,209.64,-59.83,-0.1,8,996.38,55.203,23.032045,72.535255,35.49,NaN,,4.12,19.35484,207.67,18 / 22,25079,2018-06-12 12:08:52:721,0
-0.3807,5.8325,3.6728,0.1805,8.4207,5.0229,-0.5612,-2.5883,-1.35,0.0545,-0.1332,-0.0171,15064,22.32,-36.12,13.38,215.27,-59.45,-2.44,8,996.39,64.202,23.032045,72.535255,35.49,NaN,,4.12,19.35484,207.67,19 / 22,25579,2018-06-12 12:08:53:221,0
-0.2275,5.5715,5.3344,0.4016,8.4528,4.9556,-0.7918,-2.0865,-0.6938,-0.3578,0.3439,0.2462,16787,19.86,-37.26,14.22,210.3,-59.54,-4.63,8,996.39,54.471,23.032045,72.535255,35.49,NaN,,4.12,19.35484,207.67,19 / 22,26079,2018-06-12 12:08:53:721,0
1.2091,7.4582,2.6361,0.3137,8.353,5.1283,0.905,-1.4455,-0.8449,0.3636,-0.7141,-0.2297,15752,20.1,-37.86,14.28,210.18,-58.4,-3.5,8,996.4,66.938,23.032045,72.535255,35.49,NaN,,4.12,19.35484,207.67,19 / 22,26579,2018-06-12 12:08:54:221,0
0.1125,10.6593,2.9162,-0.1605,8.5781,4.7498,1.02,0.5178,0.7067,0.2842,-0.1161,-0.1588,13701,18.9,-36.96,17.28,211.26,-61.01,1.94,8,996.41,57.972,23.032045,72.535255,35.49,NaN,,4.12,19.35484,207.67,19 / 22,27079,2018-06-12 12:08:54:721,0
-1.5204,12.2084,4.1684,-0.4243,8.6057,4.6832,-1.0961,3.6027,-0.5148,0.3068,-0.201,-0.1949,14276,20.22,-36.9,16.2,212.71,-58.85,2.32,8,996.46,65.638,23.032045,72.535255,35.49,NaN,,4.12,19.35484,207.67,19 / 23,27580,2018-06-12 12:08:55:222,0
0.261,10.1541,5.9043,-0.1203,8.6416,4.6344,0.3813,1.5125,1.2699,-0.1502,0.4764,-0.0617,11156,19.14,-37.02,18.84,209.97,-61.79,1.49,8,996.47,52.924,23.032045,72.535255,35.49,NaN,,4.12,19.35484,207.67,19 / 23,28080,2018-06-12 12:08:55:722,0
-0.7997,8.6792,5.1166,-0.0658,8.3328,5.1701,-0.3724,-0.2809,-0.3743,0.0496,0.0568,-0.0073,11469,14.88,-39.3,18,203.1,-58.18,0.73,8,996.48,50.195,23.03197,72.53522,33.39,NaN,,3.93,12.903226,217.3,19 / 23,28580,2018-06-12 12:08:56:222,0
0.498,6.1796,3.5818,-0.0325,8.3168,5.1961,0.1714,-2.7046,-0.5704,-0.3065,-0.6219,0.0318,11202,17.76,-37.74,15.9,208.3,-58,0.36,8,996.46,53.143,23.03197,72.53522,33.39,NaN,,3.93,12.903226,217.3,19 / 23,29080,2018-06-12 12:08:56:722,0
-0.5507,5.5906,5.2626,-0.5419,8.5745,4.728,-1.6776,-0.6974,-0.0855,-0.2363,0.5852,0.4056,14893,17.1,-37.5,19.44,210.18,-60.97,6.54,8,996.48,57.88,23.03197,72.53522,33.39,NaN,,3.93,12.903226,217.3,20 / 23,29581,2018-06-12 12:08:57:223,0
-0.419,8.4302,4.0798,-0.4151,8.6328,4.6338,-0.0039,-0.2026,-0.554,-0.2827,0.2681,-0.1924,12876,18.84,-37.74,19.26,211.85,-61.68,5.12,8,996.46,51.578,23.03197,72.53522,33.39,NaN,,3.93,12.903226,217.3,20 / 23,30080,2018-06-12 12:08:57:722,0
-0.6129,9.048,6.4382,-0.0074,8.5254,4.8464,1.3003,0.4315,-2.1983,-0.4397,0.6133,-0.1295,13456,18.06,-37.92,17.88,210,-60.72,3.84,8,996.46,55.896,23.03197,72.53522,33.39,NaN,,3.93,12.903226,217.3,20 / 23,30580,2018-06-12 12:08:58:222,0
-0.1461,11.0185,5.0088,-0.2167,8.4792,4.922,0.5351,1.979,0.0629,0.5865,-0.1949,-0.4276,15109,19.14,-37.5,17.76,210.62,-59.84,2.52,8,996.47,51.688,23.03197,72.53522,33.39,NaN,,3.93,12.903226,217.3,20 / 23,31081,2018-06-12 12:08:58:723,0
-1.0008,11.3537,6.1796,-0.5105,8.4913,4.8792,0.137,2.247,1.5494,0.319,0.3836,-0.1649,13646,21.42,-36.78,16.5,215.93,-59.98,5.97,8,996.47,52.119,23.03197,72.53522,33.39,NaN,,3.93,12.903226,217.3,20 / 23,31581,2018-06-12 12:08:59:223,0
-0.6129,8.7463,5.3632,-0.2326,8.5394,4.8161,0.0722,-0.3821,-0.425,-0.4733,-0.0275,-0.0812,12071,20.34,-36.12,17.46,213.31,-60.55,2.77,8,996.46,50.663,23.03197,72.53522,33.39,NaN,,3.93,12.903226,217.3,20 / 23,32080,2018-06-12 12:08:59:722,0
-0.1844,6.3568,3.249,-0.1888,8.3539,5.1329,-0.1967,-1.863,-2.516,-0.2332,-0.1039,0.1118,12791,24.06,-35.94,14.34,219.21,-58.41,2.11,8,996.44,52.089,23.03197,72.53522,33.39,NaN,,3.93,12.903226,217.3,19 / 22,32580,2018-06-12 12:09:00:222,0
-1.3983,6.7255,5.957,-0.1461,8.5467,4.8066,-1.2714,-1.1938,0.3363,-0.2699,0.6548,0.2107,11726,21.06,-36.06,16.32,214.68,-60.64,1.74,8,996.45,51.126,23.03197,72.53522,33.39,NaN,,3.93,12.903226,217.3,19 / 22,33080,2018-06-12 12:09:00:722,0
0.6919,7.5611,4.1158,-0.0584,8.7107,4.5046,1.1263,-0.8981,-1.4207,-0.196,-0.3323,-0.0678,9020,21.84,-36,16.68,215.3,-62.65,0.74,8,996.43,53.75,23.03197,72.53522,33.39,NaN,,3.93,12.903226,217.3,20 / 23,33580,2018-06-12 12:09:01:222,0
0.1868,9.7902,6.5651,-0.1679,8.5583,4.7851,0.3547,1.2319,1.78,-0.2815,0.2327,-0.0177,8657,20.28,-36.48,16.74,212.92,-60.77,2.01,8,996.4,67.864,23.03197,72.53522,33.39,NaN,,3.93,12.903226,217.3,20 / 23,34080,2018-06-12 12:09:01:722,0
-0.0431,10.2619,5.0136,-0.0912,8.4972,4.8949,-0.177,1.5396,1.2584,0.6708,-0.1393,-0.2144,8901,18.96,-37.08,15.72,211.07,-60.05,1.07,8,996.4,64.42,23.03197,72.53522,33.39,NaN,,3.93,12.903226,217.3,19 / 22,34579,2018-06-12 12:09:02:221,0
-0.1077,9.0073,5.6744,-0.3805,8.4991,4.8776,-0.175,0.2711,-1.0731,-0.155,0.5821,0.361,7067,20.58,-36,14.46,217.56,-60.07,4.46,8,996.44,57.749,23.03197,72.53522,33.39,NaN,,3.93,12.903226,217.3,19 / 22,35079,2018-06-12 12:09:02:721,0
-0.1389,7.6234,4.1708,-0.3343,8.4063,5.039,-0.293,0.6033,-0.284,0.096,0.1502,-0.2492,8270,16.32,-37.26,16.14,207.41,-59.49,2.21,8,996.42,50.43,23.03197,72.53522,33.39,NaN,,3.93,12.903226,217.3,18 / 22,35579,2018-06-12 12:09:03:221,0
-1.1636,6.4071,2.0256,-0.5712,8.6381,4.6073,-0.6259,-2.492,-2.5626,0.3104,-0.0232,-0.0751,7674,22.26,-35.04,14.88,219.25,-60.14,5.47,8,996.42,51.738,23.03197,72.53522,33.39,NaN,,3.93,12.903226,217.3,18 / 22,36080,2018-06-12 12:09:03:722,0
-1.1564,6.8548,5.4039,-0.2364,8.7408,4.4399,-1.0398,-1.1294,-0.3409,-0.5704,0.3036,0.3757,6211,19.98,-35.28,15.78,215.53,-63.04,3.05,8,996.42,51.037,23.03197,72.53522,33.39,NaN,,3.93,12.903226,217.3,19 / 22,36579,2018-06-12 12:09:04:221,0
-0.316,8.9354,5.0519,-0.036,8.6497,4.6208,-0.3111,0.2451,2.6482,0.4277,-0.2713,-0.2688,6124,18.18,-36.48,15.72,210.35,-61.89,0.45,8,996.41,50.423,23.03197,72.53522,33.39,NaN,,3.93,12.903226,217.3,19 / 22,37082,2018-06-12 12:09:04:724,0
1.6042,9.8141,4.9561,-0.0457,8.6075,4.6988,0.1032,1.8579,1.2797,-0.287,-0.1747,0.3012,6442,16.14,-36.96,16.26,207.05,-61.37,0.56,8,996.42,51.386,23.03197,72.53522,33.39,NaN,,3.93,12.903226,217.3,18 / 23,37579,2018-06-12 12:09:05:221,0
0.5124,10.0296,5.2291,-0.3099,8.4496,4.9677,0.8223,1.58,0.2614,0.3495,-0.2584,-0.3476,5471,14.34,-37.2,16.38,205.22,-59.5,3.57,8,996.43,50.829,23.03197,72.53522,33.39,NaN,,3.93,12.903226,217.3,18 / 23,38079,2018-06-12 12:09:05:721,0
-0.7662,9.036,4.7191,-0.4682,8.6423,4.611,-0.2979,0.3937,0.1081,-0.163,0.2443,0.3818,4590,19.44,-35.22,16.68,214.72,-61.8,5.8,8,996.43,50.499,23.03197,72.53522,33.39,NaN,,3.93,12.903226,217.3,17 / 20,38579,2018-06-12 12:09:06:221,0
0.2179,7.3648,3.7231,-0.0863,8.4664,4.9481,0.3042,-1.1016,-1.225,-0.0451,0.5546,-0.0354,3856,14.94,-38.1,15.66,205,-59.69,1,8,996.44,47.796,23.03197,72.53522,33.39,NaN,,3.93,12.903226,217.3,17 / 20,39080,2018-06-12 12:09:06:722,0
-1.1277,6.9218,4.4486,-0.2171,8.695,4.5298,-0.9106,-1.7732,-0.0813,0.3764,0.1716,-0.1032,3659,18.54,-35.88,16.38,213.34,-62.46,2.74,8,996.44,48.417,23.0319,72.53517,27.18,NaN,,3.57,9.677419,194.31,19 / 22,39579,2018-06-12 12:09:07:221,0
0.4932,7.6066,2.1141,-0.3579,8.8018,4.3093,-0.0922,-0.6134,0.2948,0.0673,-0.0605,0.2627,3160,16.2,-36.54,18.78,208.61,-63.84,4.75,8,996.44,47.828,23.0319,72.53517,27.18,NaN,,3.57,9.677419,194.31,19 / 22,40080,2018-06-12 12:09:07:722,0
0.5076,9.3712,6.2227,-0.272,8.6761,4.5631,0.8849,1.3033,0.3978,-0.2198,-0.4728,0.0696,2623,14.58,-38.04,18.84,205.54,-62.22,3.41,8,996.44,50.692,23.0319,72.53517,27.18,NaN,,3.57,9.677419,194.31,19 / 23,40581,2018-06-12 12:09:08:223,0
-0.486,10.5611,7.4246,-0.2391,8.6302,4.6511,-0.2469,1.931,2.7735,-0.2308,0.1918,0.245,2260,16.74,-36.48,17.34,209.72,-61.65,2.94,8,996.45,47.632,23.0319,72.53517,27.18,NaN,,3.57,9.677419,194.31,19 / 23,41081,2018-06-12 12:09:08:723,0
-0.486,9.1916,6.1724,0.0393,8.3835,5.0878,-0.2524,0.8704,1.7622,-0.2436,0.1215,0.1142,2064,12.48,-38.64,16.2,199.15,-59.84,-1.15,8,996.44,48.237,23.0319,72.53517,27.18,NaN,,3.57,9.677419,194.31,18 / 21,41580,2018-06-12 12:09:09:222,0
0.3256,5.7319,2.7031,0.0696,8.6294,4.6582,0.256,-2.8975,-1.9551,-0.3377,-0.1008,0.3641,1597,16.2,-35.88,17.7,205.38,-61.64,-0.86,8,996.46,47.346,23.0319,72.53517,27.18,NaN,,3.57,9.677419,194.31,18 / 21,42080,2018-06-12 12:09:09:722,0
-0.7829,6.8883,5.4685,0.2051,8.5087,4.8714,-0.0207,-0.4783,-4.0597,0.2255,0.2871,0.1564,1641,9.96,-37.74,18.78,194.43,-60.19,-2.41,8,996.44,47.75,23.0319,72.53517,27.18,NaN,,3.57,9.677419,194.31,19 / 23,42580,2018-06-12 12:09:10:222,0
-0.8332,7.3672,9.048,0.0691,8.2808,5.253,-0.0116,1.4352,0.6656,-0.2424,-0.1515,-0.1613,1664,11.76,-38.22,16.2,199.12,-57.61,-0.75,8,996.45,48.12,23.0319,72.53517,27.18,NaN,,3.57,9.677419,194.31,19 / 23,43080,2018-06-12 12:09:10:722,0
-1.0032,9.5579,7.1517,-0.1422,7.9799,5.6983,-0.861,1.578,1.4534,0.2884,0.2675,-0.1258,2531,13.02,-39.3,14.28,201.55,-54.46,1.43,8,996.44,47.358,23.0319,72.53517,27.18,NaN,,3.57,9.677419,194.31,19 / 22,43581,2018-06-12 12:09:11:223,0
-0.34,7.8173,5.2099,0.1256,7.9049,5.8023,-0.5542,-0.0636,-1.2389,-0.1276,-0.0562,0.0079,4111,8.4,-40.08,13.68,192.37,-53.71,-1.24,8,996.41,48.893,23.0319,72.53517,27.18,NaN,,3.57,9.677419,194.31,19 / 22,44080,2018-06-12 12:09:11:722,0
0.0623,5.7032,4.7359,0.0982,7.8774,5.8401,-0.0359,-2.1743,-1.1042,0.2286,0.1942,0.1106,5612,7.44,-40.14,12.42,191.45,-53.44,-0.96,8,996.42,48.589,23.0319,72.53517,27.18,NaN,,3.57,9.677419,194.31,18 / 22,44580,2018-06-12 12:09:12:222,0
-0.2897,7.2858,4.6904,-0.01,7.4002,6.4348,-0.2797,-0.1145,-1.7444,0.5597,0.3249,0.2553,7184,1.2,-42.06,10.08,181.66,-48.99,0.09,8,996.42,47.614,23.0319,72.53517,27.18,NaN,,3.57,9.677419,194.31,18 / 22,45079,2018-06-12 12:09:12:721,0
0.0072,7.0009,9.431,0.4568,6.9535,6.9,-0.2485,0.5286,0.9723,-0.1056,-0.19,-0.1045,11983,-0.78,-41.76,7.62,177.52,-45.16,-3.79,8,996.47,47.806,23.0319,72.53517,27.18,NaN,,3.57,9.677419,194.31,19 / 22,45580,2018-06-12 12:09:13:222,0
0.17,8.5883,6.7159,0.357,7.2401,6.6048,-0.187,1.3482,0.1111,0.1877,0.1563,-0.0098,10664,5.04,-41.28,9.12,187.45,-47.59,-3.09,8,996.44,47.412,23.0319,72.53517,27.18,NaN,,3.57,9.677419,194.31,19 / 22,46080,2018-06-12 12:09:13:722,0
0.158,7.87,6.6585,-0.2424,7.3298,6.5104,0.4004,0.5401,0.1481,-0.1404,-0.2755,0.0562,10309,0.3,-41.76,10.14,180.6,-48.37,2.13,8,996.46,48.343,23.0319,72.53517,27.18,NaN,,3.57,9.677419,194.31,19 / 22,46580,2018-06-12 12:09:14:222,0
1.3767,6.4191,4.0966,-0.0064,7.4838,6.3374,1.3831,-1.0648,-2.2408,0.2597,0.2058,-0.1051,9061,1.86,-41.16,12.9,183.16,-49.74,0.06,8,996.45,47.622,23.0319,72.53517,27.18,NaN,,3.57,9.677419,194.31,19 / 22,47080,2018-06-12 12:09:14:722,0
-0.4477,6.8117,6.7638,0.6648,7.6041,6.1568,-1.1126,-0.7924,0.607,-0.3621,0.1539,0.033,6742,0.48,-40.86,13.44,177.77,-50.84,-6.16,8,996.44,47.928,23.0319,72.53517,27.18,NaN,,3.57,9.677419,194.31,19 / 22,47580,2018-06-12 12:09:15:222,0
-0.7805,6.364,9.6394,0.4438,7.4562,6.3544,-1.0854,-0.4841,4.0966,0.1901,0.3695,0.0079,10341,0.3,-42.06,12.84,178.6,-49.49,-3.99,8,996.44,58.165,23.0318,72.53516,26.6,NaN,,2.95,9.677419,192.67,19 / 22,48080,2018-06-12 12:09:15:722,0
0.3735,7.8149,7.621,0.3948,7.0204,6.8359,-0.0213,0.7946,0.7851,0.1791,0.3164,0.5822,11462,-7.8,-40.56,10.5,166.59,-45.72,-3.31,8,996.4,63.087,23.0318,72.53516,26.6,NaN,,2.95,9.677419,192.67,18 / 22,48580,2018-06-12 12:09:16:222,0
1.8939,6.7016,6.9123,0.94,7.0862,6.7136,0.9539,-0.3846,0.1987,-0.0946,-0.697,-0.7208,11048,-15.72,-38.22,10.56,151.9,-46.27,-7.97,8,996.37,69.779,23.0318,72.53516,26.6,NaN,,2.95,9.677419,192.67,18 / 22,49080,2018-06-12 12:09:16:722,0
1.0439,6.7088,7.2858,1.1022,6.819,6.9611,-0.0583,-0.1102,0.3247,-0.2833,-1.2938,-1.2651,13623,9.78,-40.38,8.58,193.23,-44.05,-9,8,996.36,70.717,23.0318,72.53516,26.6,NaN,,2.95,9.677419,192.67,19 / 22,49579,2018-06-12 12:09:17:221,0
1.1876,7.9418,7.2666,1.1779,6.1752,7.5266,0.3305,1.4793,0.1063,0.038,-0.7373,-1.0458,18921,28.14,-30.9,-7.38,232.01,-39.03,-8.89,8,996.29,67.218,23.0318,72.53516,26.6,NaN,,2.95,9.677419,192.67,19 / 22,50080,2018-06-12 12:09:17:722,0
-0.1939,6.5507,5.5954,0.9776,6.5903,7.196,-1.1883,-0.2551,-0.9852,-0.1905,-0.179,-0.292,19496,31.26,-24.24,-14.88,252.08,-42.22,-7.74,8,996.32,52.576,23.0318,72.53516,26.6,NaN,,2.95,9.677419,192.67,19 / 22,50580,2018-06-12 12:09:18:222,0
2.2626,6.0312,5.526,0.5859,7.0994,6.7398,1.6767,-1.0682,-1.2138,0.3666,-0.7025,-0.4074,19525,33.48,-20.4,-15.78,262.8,-46.38,-4.97,8,996.29,52.099,23.0318,72.53516,26.6,NaN,,2.95,9.677419,192.67,19 / 22,51079,2018-06-12 12:09:18:721,0
1.3767,8.775,7.712,0.6321,7.391,6.4144,0.668,2.246,0.4883,0.1174,-0.0068,-0.1448,18360,33.24,-18.96,-17.82,267.62,-48.96,-5.7,8,996.3,56.619,23.0318,72.53516,26.6,NaN,,2.95,9.677419,192.67,20 / 23,51580,2018-06-12 12:09:19:222,0
1.2307,8.1357,7.4366,0.5036,7.131,6.7131,0.7271,1.0048,0.7235,0.0215,-0.2358,-0.0745,18531,34.2,-18.84,-16.86,265.83,-46.65,-4.29,8,996.3,57.279,23.0318,72.53516,26.6,NaN,,2.95,9.677419,192.67,20 / 23,52080,2018-06-12 12:09:19:722,0
1.008,6.9578,5.1836,0.3444,7.2725,6.5698,0.9748,-0.9253,-1.9967,-0.1783,0.0232,-0.0941,18528,35.16,-15.66,-19.26,273.15,-47.87,-3,8,996.32,59.464,23.0318,72.53516,26.6,NaN,,2.95,9.677419,192.67,20 / 23,52580,2018-06-12 12:09:20:222,0
0.3974,5.1645,2.4685,0.6197,7.1413,6.6924,-1.2973,-1.8858,-1.5591,0.2915,-0.052,-0.0269,17919,34.14,-14.7,-20.7,274.26,-46.74,-5.29,8,996.33,52.054,23.0318,72.53516,26.6,NaN,,2.95,9.677419,192.67,20 / 23,53080,2018-06-12 12:09:20:722,0
-1.0583,6.9937,6.1461,0.1824,7.4736,6.3469,0.9884,-0.6858,-2.6357,-0.1367,-0.3183,-0.4514,18325,34.86,-13.2,-21.24,280.84,-49.65,-1.65,8,996.3,51.223,23.0318,72.53516,26.6,NaN,,2.95,9.677419,192.67,20 / 23,53581,2018-06-12 12:09:21:223,0
-0.6345,6.6992,6.4334,0.4856,7.1013,6.7458,-1.1201,-0.4021,-0.3124,0.9964,0.0739,-0.0568,17859,34.32,-13.62,-20.82,276.03,-46.4,-4.12,8,996.4,47.884,23.0318,72.53516,26.6,NaN,,2.95,9.677419,192.67,20 / 23,54079,2018-06-12 12:09:21:721,0
0.8069,8.0208,12.3928,0.604,6.7116,7.1246,0.2028,1.3092,5.2682,-0.5332,-0.0068,0.022,17222,35.7,-14.4,-20.16,272.06,-43.19,-4.85,8,996.35,49.959,23.0318,72.53516,26.6,NaN,,2.95,9.677419,192.67,20 / 23,54580,2018-06-12 12:09:22:222,0
0.4717,7.6162,8.8157,0.4678,6.9622,6.8905,0.0039,0.654,1.9252,-0.1746,0.2999,0.427,19981,34.38,-13.32,-22.02,277.71,-45.23,-3.88,8,996.44,47.498,23.0318,72.53516,26.6,NaN,,2.95,9.677419,192.67,20 / 23,55079,2018-06-12 12:09:22:721,0
0.7686,8.605,7.676,0.3978,6.3296,7.4799,0.9311,0.8724,0.4763,0.578,0.0562,-0.0147,19965,35.04,-16.68,-18.78,266.91,-40.2,-3.04,8,996.38,47.447,23.0318,72.53516,26.6,NaN,,2.95,9.677419,192.67,20 / 23,55581,2018-06-12 12:09:23:223,0
0.8428,6.5771,5.5044,0.2778,6.2349,7.5643,0.3806,-1.2596,-3.5132,0.0954,0.2089,-0.1558,16310,35.88,-15.12,-18.9,269.46,-39.48,-2.1,8,996.35,47.966,23.0318,72.53516,26.6,NaN,,2.95,9.677419,192.67,20 / 23,56080,2018-06-12 12:09:23:722,0
0.1556,4.6401,3.4502,0.2576,5.9122,7.8198,-0.339,-2.3519,-2.6841,0.2738,-0.2945,-0.0244,17782,36.18,-14.58,-19.44,268.07,-37.08,-1.89,8,996.38,47.069,23.0318,72.53516,26.6,NaN,,2.95,9.677419,192.67,20 / 23,56580,2018-06-12 12:09:24:222,0
-0.182,4.7909,5.8037,0.3089,6.1519,7.6308,-0.0839,-1.7967,-2.7752,0.0704,-0.1815,-0.025,16854,36.66,-12.78,-20.22,272.23,-38.85,-2.32,8,996.36,48.069,23.03178,72.53508,25.73,NaN,,4.27,6.451613,266.01,20 / 23,57080,2018-06-12 12:09:24:722,0
-0.2035,4.4797,7.4725,0.2028,6.2102,7.587,-0.131,-1.7879,0.6517,-0.0561,0.0549,-0.0513,15754,36.78,-13.44,-18.48,271.08,-39.29,-1.53,8,996.38,48.21,23.03178,72.53508,25.73,NaN,,4.27,6.451613,266.01,19 / 22,57580,2018-06-12 12:09:25:222,0
0.3232,5.9785,8.9091,0.4963,5.5868,8.0444,-0.173,0.3917,0.8647,1.0679,-0.5962,-1.1997,16578,36,-6.66,-25.38,280.88,-34.73,-3.53,8,996.37,48.375,23.03178,72.53508,25.73,NaN,,4.27,6.451613,266.01,19 / 22,58080,2018-06-12 12:09:25:722,0
-0.0431,5.8779,14.4854,0.5006,5.8059,7.8874,0.7109,2.0377,0.4351,-0.6059,0.0055,0.2346,17870,34.08,-3,-27.66,289.79,-36.3,-3.63,8,996.36,47.706,23.03178,72.53508,25.73,NaN,,4.27,6.451613,266.01,18 / 22,58579,2018-06-12 12:09:26:221,0
1.2929,6.6585,8.9737,0.6312,5.4184,8.1494,0.0823,0.8354,2.6105,0.6305,-0.2163,-0.0305,16543,33.72,-4.56,-28.2,285.21,-33.54,-4.43,8,996.35,47.585,23.03178,72.53508,25.73,NaN,,4.27,6.451613,266.01,18 / 22,59080,2018-06-12 12:09:26:722,0
1.0319,7.3528,7.6449,0.4494,6.117,7.6518,0.5825,1.2358,-0.0069,-0.2772,0.2364,0.3311,13773,34.14,-5.88,-26.88,286.42,-37.96,-3.67,8,996.32,50.902,23.03178,72.53508,25.73,NaN,,4.27,6.451613,266.01,21 / 24,59580,2018-06-12 12:09:27:222,0
0.4765,6.0048,6.874,0.9539,5.6766,7.9396,-0.4774,0.3283,-1.0656,-0.3426,0.3256,0.0458,14274,33.6,-7.74,-26.52,280.19,-35.37,-6.85,8,996.41,59.199,23.03178,72.53508,25.73,NaN,,4.27,6.451613,266.01,21 / 24,60079,2018-06-12 12:09:27:721,0
-0.1341,5.0854,5.4901,0.8483,6.1612,7.5822,-1.3487,-0.6975,-1.7186,0.3764,-0.0489,-0.1466,13519,32.1,-5.16,-29.34,288.88,-38.92,-6.38,8,996.41,48.339,23.03178,72.53508,25.73,NaN,,4.27,6.451613,266.01,18 / 21,60579,2018-06-12 12:09:28:221,0
0.51,5.423,6.51,0.7837,5.9668,7.743,-0.2713,-1.9396,6.1127,0.6061,-0.4356,0.047,13226,33.24,-4.74,-28.26,287.09,-37.48,-5.78,8,996.38,50.074,23.03178,72.53508,25.73,NaN,,4.27,6.451613,266.01,18 / 21,61079,2018-06-12 12:09:28:721,0
2.5284,7.1972,8.6769,0.8781,5.9649,7.7343,1.8035,1.0982,1.1652,0.2249,-0.5217,-0.2639,14828,33.54,-6.78,-28.62,284.58,-37.46,-6.48,8,996.39,49.339,23.03178,72.53508,25.73,NaN,,4.27,6.451613,266.01,18 / 21,61580,2018-06-12 12:09:29:222,0
1.8987,6.2371,7.7982,0.6284,5.4926,8.0998,0.5017,1.1372,1.2738,0.0979,0.2205,0.0226,14808,33,-3.3,-28.44,289.42,-34.59,-3.58,8,996.38,50.093,23.03178,72.53508,25.73,NaN,,4.27,6.451613,266.01,18 / 21,62080,2018-06-12 12:09:29:722,0
0.9098,4.6281,6.9434,0.825,5.5606,8.0355,0.0848,-0.9324,-1.0921,0.1925,0.2193,-0.3244,16553,33,-3.66,-29.16,287.71,-35.3,-5.93,8,996.38,47.63,23.03178,72.53508,25.73,NaN,,4.27,6.451613,266.01,18 / 22,62580,2018-06-12 12:09:30:222,0
1.2953,5.8636,4.7167,0.6331,5.9915,7.7376,0.9184,-0.5015,-3.6027,0.2341,0.419,-0.5553,15100,31.38,-0.96,-31.5,296.33,-37.66,-4.68,8,996.37,49.685,23.03178,72.53508,25.73,NaN,,4.27,6.451613,266.01,18 / 22,63081,2018-06-12 12:09:30:723,0
1.439,7.5635,8.8492,0.6963,6.0496,7.6869,0.7427,1.5139,1.1624,0.2164,0.1826,0.1491,14145,32.46,-2.16,-29.88,293.56,-38.09,-5.18,8,996.38,48.941,23.03178,72.53508,25.73,NaN,,4.27,6.451613,266.01,19 / 22,63579,2018-06-12 12:09:31:221,0
1.7598,5.8468,8.6314,0.8631,6.2304,7.5238,1.2702,-0.4889,1.2608,0.2579,-1.0342,-1.2523,12306,27.48,2.64,-35.1,306.08,-39.44,-6.54,8,996.38,52.301,23.03178,72.53508,25.73,NaN,,4.27,6.451613,266.01,19 / 22,64079,2018-06-12 12:09:31:721,0
0.486,5.763,8.277,1.1552,6.2459,7.4716,-0.6692,-0.4828,0.8054,-0.0616,-1.5785,-1.7581,9169,-10.68,9.9,-41.4,7.59,-39.56,-8.79,8,996.38,48.045,23.03178,72.53508,25.73,NaN,,4.27,6.451613,266.01,19 / 22,64580,2018-06-12 12:09:32:222,0
0.826,6.1054,7.3385,1.2589,6.5114,7.2241,-0.4329,-0.406,0.1144,-0.2412,-0.785,-0.8686,8461,-35.28,-4.68,-26.16,60.1,-41.6,-9.89,8,996.36,48.225,23.03178,72.53508,25.73,NaN,,4.27,6.451613,266.01,19 / 22,65081,2018-06-12 12:09:32:723,0
