ACCELEROMETER_X_mean,ACCELEROMETER_Y_mean,ACCELEROMETER_Z_mean,GRAVITY_X_mean,GRAVITY_Y_mean,GRAVITY_Z_mean,LINEAR_ACCELERATION_X_mean,LINEAR_ACCELERATION_Y_mean,LINEAR_ACCELERATION_Z_mean,GYROSCOPE_X_mean,GYROSCOPE_Y_mean,GYROSCOPE_Z_mean,MAGNETIC_FIELD_X_mean,MAGNETIC_FIELD_Y_mean,MAGNETIC_FIELD_Z_mean,ORIENTATION_Z_mean,ORIENTATION_X_mean,ORIENTATION_Y_mean,PRT_X_mean,PRT_Y_mean,PRT_Z_mean,ACCELEROMETER_X_std_dev,ACCELEROMETER_Y_std_dev,ACCELEROMETER_Z_std_dev,GRAVITY_X_std_dev,GRAVITY_Y_std_dev,GRAVITY_Z_std_dev,LINEAR_ACCELERATION_X_std_dev,LINEAR_ACCELERATION_Y_std_dev,LINEAR_ACCELERATION_Z_std_dev,GYROSCOPE_X_std_dev,GYROSCOPE_Y_std_dev,GYROSCOPE_Z_std_dev,MAGNETIC_FIELD_X_std_dev,MAGNETIC_FIELD_Y_std_dev,MAGNETIC_FIELD_Z_std_dev,ORIENTATION_Z_std_dev,ORIENTATION_X_std_dev,ORIENTATION_Y_std_dev,PRT_X_std_dev,PRT_Y_std_dev,PRT_Z_std_dev,ACCELEROMETER_X_median,ACCELEROMETER_Y_median,ACCELEROMETER_Z_median,GRAVITY_X_median,GRAVITY_Y_median,GRAVITY_Z_median,LINEAR_ACCELERATION_X_median,LINEAR_ACCELERATION_Y_median,LINEAR_ACCELERATION_Z_median,GYROSCOPE_X_median,GYROSCOPE_Y_median,GYROSCOPE_Z_median,MAGNETIC_FIELD_X_median,MAGNETIC_FIELD_Y_median,MAGNETIC_FIELD_Z_median,ORIENTATION_Z_median,ORIENTATION_X_median,ORIENTATION_Y_median,PRT_X_median,PRT_Y_median,PRT_Z_median,ACCELEROMETER_X_variance,ACCELEROMETER_Y_variance,ACCELEROMETER_Z_variance,GRAVITY_X_variance,GRAVITY_Y_variance,GRAVITY_Z_variance,LINEAR_ACCELERATION_X_variance,LINEAR_ACCELERATION_Y_variance,LINEAR_ACCELERATION_Z_variance,GYROSCOPE_X_variance,GYROSCOPE_Y_variance,GYROSCOPE_Z_variance,MAGNETIC_FIELD_X_variance,MAGNETIC_FIELD_Y_variance,MAGNETIC_FIELD_Z_variance,ORIENTATION_Z_variance,ORIENTATION_X_variance,ORIENTATION_Y_variance,PRT_X_variance,PRT_Y_variance,PRT_Z_variance,ACCELEROMETER_X_fft,ACCELEROMETER_Y_fft,ACCELEROMETER_Z_fft,GRAVITY_X_fft,GRAVITY_Y_fft,GRAVITY_Z_fft,LINEAR_ACCELERATION_X_fft,LINEAR_ACCELERATION_Y_fft,LINEAR_ACCELERATION_Z_fft,GYROSCOPE_X_fft,GYROSCOPE_Y_fft,GYROSCOPE_Z_fft,MAGNETIC_FIELD_X_fft,MAGNETIC_FIELD_Y_fft,MAGNETIC_FIELD_Z_fft,ORIENTATION_Z_fft,ORIENTATION_X_fft,ORIENTATION_Y_fft,PRT_X_fft,PRT_Y_fft,PRT_Z_fft,OUT
0.59308,9.857619999999999,1.0476999999999999,0.62062,9.70982,1.1447,0.005300000000000022,0.12892,-0.14122,-0.006119999999999999,-0.09194000000000001,-0.025379999999999993,25.381999999999998,-23.950000000000003,-26.494,283.20799999999997,-82.07,-27.976,-0.011352220845638144,0.13737731075309526,9.935678777505323,0.564,9.6425,0.965,0.67,9.712499999999999,1.1015000000000001,0.111,-0.2065,-0.2165,0.02,-0.1105,-0.0295,24.700000000000003,-24.3,-27.05,281.29999999999995,-82.05,-29.25,0.15015256390439966,0.4161281170416964,9.655727645163779,0.6759445492050365,1.958124142029815,1.1435936559810045,0.3440022028999233,0.04057175865056884,0.2720762576925815,0.6197770002186269,1.9359190255793242,1.1028605222783159,0.27491574272856767,0.32207144611095223,0.20620862154623895,2.1579332705160277,1.4918780110987626,2.817332781195718,15.190494922812752,1.7313867274528816,13.629549662406312,0.8698794547908597,0.9243490988212281,1.9680506064234122,0.4569010336,3.834250155599999,1.30780645,0.1183375156,0.0016460676000000073,0.07402549,0.38412352999999994,3.7477824736,1.2163013315999998,0.0755786656,0.1037300164,0.0425219956,4.656675999999999,2.2257,7.937364,230.751136,2.997699999999999,185.764624,0.7566902658672433,0.8544212564916165,3.8732231894435607,30.378186416960624,492.88479509519044,52.50220043662491,32.74294725754813,485.4918096750795,57.473927171176925,4.361111721047487,7.0622582486093375,9.374221048134984,1.4967308972664797,5.7283577195872395,1.401954068696711,1270.4709178282642,1198.2102995089358,1326.8819101548727,14167.692592592166,4103.709784721299,1451.8418261538566,5.568914504483321,8.553958688123119,496.7860148029658,0.0
0.10747999999999999,9.80322,0.7281400000000001,0.2229,9.777120000000002,0.63942,-0.11392,0.07434000000000002,0.0787,0.01512,0.08148000000000001,0.010760000000000002,31.072000000000003,-24.464000000000002,-17.168000000000003,275.774,-85.88600000000001,-20.406,-0.11473234959380553,-0.06956595012552817,9.828222859283306,0.023000000000000003,9.8995,0.717,0.20600000000000002,9.778,0.6579999999999999,-0.139,0.2155,0.15500000000000003,0.021,0.063,0.0,32.8,-24.8,-14.600000000000001,275.55,-85.55,-18.35,-0.1746232905108394,-0.0687181839556501,10.000400634728331,0.6923860553188517,1.9408489512581857,0.9978335334112599,0.19444611078651072,0.020805422370141755,0.2839228127502262,0.7163290260767045,1.9723854654706823,1.0442590148042774,0.2317292074814912,0.3804080041218902,0.16154201434920887,3.7050257758887453,1.2507213918375268,6.041007862931482,19.168816447553564,1.7308968773442277,18.629454205638982,0.8078550095454073,0.8826644936314227,1.9603910859916929,0.47939844959999994,3.766894651599999,0.9956717603999999,0.03780929,0.00043286559999999494,0.0806121636,0.5131272735999999,3.8903044243999996,1.09047689,0.0536984256,0.1447102496,0.026095822400000003,13.727216,1.5643040000000001,36.493776,367.443524,2.996003999999999,347.056564,0.6526297164476103,0.779096608317616,3.8431332100356888,10.768436468430295,490.2061236948864,37.36585863676181,12.715980943333633,488.8563030425837,32.79232549441814,10.719702048790941,7.882734211588284,8.671158033260827,1.3350948088477321,8.952357995199929,0.8381648123354032,1558.061192681722,1223.7865714366737,881.1910180877644,13794.982275055097,4294.560297698306,1100.4650034698275,11.434099566898206,7.361782270698359,491.4576117646377,0.0
0.17287999999999998,9.95426,0.46869999999999995,0.1703,9.78366,0.30796,-0.0028799999999999885,0.20914000000000002,0.18355999999999997,0.01726,0.07585999999999998,-0.01676,32.656,-23.674,-12.258000000000003,223.49200000000002,-86.52199999999999,-22.432000000000002,0.1996238639256315,0.4098950509340099,9.954632606882425,0.195,9.915,0.28049999999999997,0.3055,9.7955,0.21750000000000003,0.01,-0.0035,-0.096,0.01,0.184,-0.044,32.7,-23.75,-14.350000000000001,243.25,-87.1,-31.700000000000003,0.2283111955029989,0.5868037657979747,9.86005370415155,1.0747629439090278,1.590730031274949,1.1308347226717086,0.3231225309383423,0.02335346655209884,0.4700901598629778,1.150448375895242,1.5754190300996112,1.1926600380661707,0.25512238710077956,0.8343456360525894,0.18234095096823422,3.1315912887859425,1.5788362803026792,8.262519954590125,74.66533289284926,1.8070185389198414,74.41745343667708,0.9842702059351787,1.1976782907867392,1.6110210475505466,1.1551153856,2.5304220324000006,1.27878717,0.10440817,0.0005453843999999993,0.22098475840000004,1.3235314656,2.4819451204,1.4224379664,0.0650874324,0.6961326404,0.0332482224,9.806864000000001,2.492724,68.269236,5574.911935999999,3.2653159999999986,5537.957376,0.968787838291679,1.4344332882218447,2.5953888156508604,11.221440111933012,497.73443473472656,27.561510462264113,11.141565900737053,489.18351509989446,21.345226908981775,7.529313145997396,11.248385357051296,11.141973088848498,1.8470347168407089,12.811635550382542,1.400182260902172,1634.7878127339252,1184.5635320847784,648.2167339168586,11241.680856497402,4326.440281516208,1567.6278498004833,16.25444418673439,25.546507690436105,497.7564891827357,0.0
0.84272,9.75784,1.47152,0.73118,9.660540000000001,1.40646,0.13916000000000003,0.08470000000000003,0.05797999999999998,-0.006020000000000002,-0.15742000000000003,-0.014100000000000003,28.704,-25.785999999999998,-9.952000000000002,253.012,-80.23,-27.498,0.0446499951560653,-0.017925978797579078,9.902571221137862,0.9515,9.7125,1.1875,0.8435,9.6695,1.3864999999999998,0.3145,0.028,-0.076,-0.041,-0.22699999999999998,-0.0035,30.299999999999997,-25.15,-8.75,256.25,-80.35,-30.55,0.4258099547081948,0.14832174601275155,9.909190110030114,1.08112521087985,2.155465484390785,1.3293133601976626,0.444939757270577,0.04721534072735255,0.36041455076064843,1.0605785658780778,2.1000329735506535,1.3262934741602252,0.2820441447717006,0.6128851145198422,0.22087999003984043,5.303657605841463,2.3297218718121697,18.582908706658387,21.292708986880935,1.6620770138594658,17.987256488970182,1.2933754317636443,1.0643005517597466,2.191834696217537,1.1688317216000002,4.6460314544,1.7670740096000004,0.1979713876,0.002229288399999996,0.12989864840000004,1.1248268944,4.4101384900000005,1.7590543796,0.07954889959999999,0.3756281636,0.04878797000000001,28.128783999999996,5.427604,345.324496,453.3794560000001,2.762499999999999,323.5413959999999,1.6728200074897932,1.132735664476101,4.804139335543022,46.58710985997351,487.9064311212865,73.89838111371736,39.33951259120764,483.0270342530246,70.66742434954271,19.929548476955272,5.732469130378916,12.005918767367826,0.6693732632077427,18.118165401323854,3.2059014398569032,1445.4469230674351,1291.4912279081357,810.0104899933124,12670.65260824612,4011.508966367976,1487.3592605253705,17.289693103856898,12.601162248793718,495.15265650652896,0.0
0.33692000000000005,9.803339999999999,1.4724800000000002,0.40926000000000007,9.645280000000001,1.4690600000000003,-0.04379999999999999,0.16328000000000004,-0.017639999999999975,0.013240000000000007,0.10422000000000001,0.012279999999999998,33.264,-24.595999999999993,-15.89,262.55799999999994,-80.366,-19.985999999999997,0.11994207112833653,0.056295051411747454,9.972730159509121,0.46199999999999997,9.9,1.271,0.35350000000000004,9.669,1.5939999999999999,-0.0155,0.2885,-0.15800000000000003,-0.057,0.107,0.0415,34.7,-24.75,-14.9,273.3,-80.0,-11.600000000000001,0.25096425708634,0.22978166052881205,10.149597871717246,1.2250689097352851,2.1995574610361968,1.749654802982577,0.40961468772493986,0.10772781256481545,0.7964420734742735,1.0722659931192446,2.176632261453459,1.5323506616959448,0.3880928012730976,0.5020927918223882,0.22932597236248667,3.7798814796234024,1.887745745591816,5.982382468548797,38.16048788996284,3.8089688893452527,40.969007847396064,1.2390265680793908,1.24714602420732,2.2855774478836737,1.5007938336000002,4.838053024400001,3.0612919296000003,0.1677841924,0.01160528160000001,0.6343199764,1.14975436,4.7377280016,2.3480985504,0.15061602240000002,0.2520971716,0.0525904016,14.287504000000002,3.5635840000000014,35.7889,1456.2228360000001,14.508244000000007,1678.4596040000001,1.535186836406593,1.5553732056961254,5.223864270274448,22.53384600091687,490.2255037867665,78.08855658397866,24.076360368806714,482.2750794206735,77.29014175442923,4.831850574206122,10.134428042866439,5.420860586480065,2.8523619740325614,9.747014990788648,1.5181415251542265,1667.5225582602152,1231.0422960682536,812.7551696287597,13152.315287013018,4019.8238285736534,1238.96656697811,16.05991844481113,8.8894511252436,498.6689315653103,0.0
0.95402,9.656279999999999,0.90276,0.9289799999999999,9.69536,1.00368,0.04232000000000003,0.00554000000000002,-0.07878000000000002,0.02918,-0.06344,-0.0058000000000000005,31.15,-26.107999999999997,-22.311999999999998,258.7,-81.73400000000001,-41.214,0.1296538354664535,0.04244544742895595,9.770305628868359,0.752,9.479,0.6295,0.7865,9.6965,1.0205,0.0135,0.015,-0.357,-0.0395,-0.134,0.009000000000000001,31.65,-26.25,-24.15,260.05,-81.2,-42.8,0.2616898608232764,0.12959263134233434,9.707787083062632,1.2200371877938805,2.0212636843321556,1.5492862299781793,0.44930045581993344,0.05930455631736911,0.30856684462203643,1.0772336318552256,2.0384948487548358,1.5429720190593217,0.3895792443136569,0.47651053125822934,0.23879447229783188,2.836564823867066,1.016236193018139,5.102612664116296,12.504639139135527,2.3999674997799456,15.57933259160995,1.3778944334234606,1.1283167033203187,2.072192846429525,1.4884907396000002,4.0855068816,2.4002878224,0.2018708996,0.0035170304000000045,0.09521349759999997,1.1604322975999999,4.155461248400001,2.3807626516,0.1517719876,0.22706228639999998,0.0570228,8.046100000000001,1.032736,26.036656000000004,156.3660000000001,5.759844000000003,242.71560399999998,1.8985930696593594,1.2730985829916321,4.2939831927936964,49.386966525043604,482.89023241710356,45.788387141136596,48.6304995194752,484.7702379453725,50.228760835652096,3.3906782662972454,6.165738872763423,8.824904346111873,2.6648141143667776,6.235347293367199,1.6926865563012878,1559.8312420940865,1305.5533693978796,1126.8364738499752,12939.163221806044,4087.0997632284434,2107.4992008373824,10.365053881026622,5.37967141475444,488.5683954587244,0.0
1.2676999999999998,9.81456,0.79586,1.4407599999999996,9.66646,0.69512,-0.20226000000000002,0.15014,0.12666,0.031019999999999995,0.06514,0.0001400000000000029,28.632,-26.034000000000002,-17.875999999999998,231.392,-80.44800000000001,-65.05000000000001,-0.1407019452529142,0.2102903074913528,9.931877860264967,1.2690000000000001,10.075,0.5375000000000001,1.425,9.6705,0.653,-0.1895,0.2905,-0.0685,0.061,0.0715,-0.028000000000000004,28.35,-26.35,-18.4,232.64999999999998,-80.30000000000001,-64.9,0.1509420755254538,0.28286244142174755,10.246852787352719,1.1044780713078917,1.7072943057364187,1.2478799943904864,0.23304356330952372,0.048613664745624785,0.3376276434180116,0.9540587153839118,1.6994303046609474,1.2198298505939262,0.26576572314728625,0.35649734977977043,0.19217325620387452,1.4662114445058736,1.957100917173154,2.5869333195890456,9.65206382075875,1.6821700270781195,10.463388552471901,1.2591440274934682,0.9296883027158045,1.7612477553645745,1.2198718100000001,2.9148538464000002,1.5572044804,0.054309302399999995,0.002363288400000002,0.11399242559999999,0.9102280324,2.8880633604000003,1.4879848644000004,0.07063141960000001,0.1270903604,0.0369305604,2.149776,3.830244,6.6922239999999995,93.162336,2.829696000000001,109.48250000000002,1.5854436819724718,0.8643203402065934,3.1019936557767522,65.10645362259844,490.746584029388,40.23525189830266,72.24314428135052,483.32459858995605,35.88663541713152,14.579186694421425,8.137839619719726,8.097827711346223,2.47639830609869,5.2722471452418045,1.3418955136140753,1432.196207300208,1303.244715800375,896.4392246086782,11571.707877339575,4022.617828028332,3261.9413624974804,10.606869523304368,14.725031964914136,496.6010249910127,0.0
1.4653600000000002,9.746479999999998,0.52394,1.5053000000000003,9.64614,0.65134,-0.07944,0.11093999999999998,-0.08911999999999999,-0.0008599999999999952,0.01634,-0.00602,30.224,-29.79,-11.796,216.51000000000005,-80.00399999999999,-69.34400000000001,0.15977471703486612,0.11777113181704521,9.899991844684488,1.4735,9.9805,-0.0335,1.4905,9.682,0.5640000000000001,-0.0335,0.29550000000000004,-0.4335,0.0135,0.10300000000000001,-0.0555,30.3,-29.7,-10.95,217.2,-80.80000000000001,-68.35,0.46758147485924173,0.08714953217394891,10.232952389100557,1.215730262188122,1.8906229263393586,1.5101074055841195,0.2512426914359898,0.09276896248207146,0.5985852858198236,1.1247471210898918,1.8488933058454184,1.3246718482703557,0.4310346162432897,0.4956544606880886,0.19187417648031743,1.391338923483419,0.9853425800197614,3.842965521573151,11.981740274267342,2.467627200368808,16.223478788471972,1.235345307639479,1.148861461699782,1.9629945818065206,1.4780000704,3.5744550496,2.2804243764,0.06312289,0.008606080399999981,0.3583043444,1.2650560864,3.4184064564,1.7547555056000002,0.18579084040000002,0.24567334439999997,0.0368156996,1.9358239999999995,0.9708999999999998,14.768384000000001,143.56210000000002,6.089184,263.20126400000004,1.5260780291068787,1.3198826581789598,3.853347728201757,74.17648705788226,487.38327239940196,33.4832726708423,75.57874248592547,482.31447107349715,36.31786938339638,6.175640156264078,6.887149008456129,7.863744205093834,2.717630516114865,6.3764087000625675,1.6712136484988798,1511.804586358932,1489.7465793204462,601.2301806415993,10827.342922071257,4000.8825504147653,3489.280938310815,8.569226294681352,8.156793118419506,495.016414141344,0.0
0.9829000000000001,9.85036,0.65408,0.9395,9.7163,0.7888600000000001,0.07391999999999999,0.16898000000000002,-0.14333999999999997,-0.02380000000000001,-0.024260000000000007,-0.011619999999999997,31.985999999999994,-29.489999999999995,-15.192,238.234,-82.63799999999999,-51.903999999999996,0.12533500171537318,0.01950747152567667,9.947673378375498,0.8225,9.9385,0.3315,0.921,9.738,0.69,0.0555,0.1855,-0.07150000000000001,-0.061,-0.0035000000000000005,-0.0025,31.95,-29.65,-15.149999999999999,238.55,-83.05,-50.55,0.24737178960227227,0.18436820383375382,9.969113398970219,1.1229297618284058,2.019400086758441,1.5373281216448231,0.3141567284016053,0.06692600391477135,0.393564988788383,0.9522852690239412,2.0155304561330745,1.331891911680524,0.3106089502895884,0.38706112230499196,0.2016216149126874,1.5222365125038881,1.1747765745025731,2.929357608759982,13.112674936869288,2.539440095769144,13.612949129413508,1.3135187874273981,1.0576933852027632,2.0759308637410485,1.26097125,4.0779767104,2.3633777536,0.09869445,0.00447908999999999,0.15489340040000002,0.9068472336000001,4.062363019599999,1.7739360644000002,0.09647792,0.14981631239999996,0.04065127560000001,2.317204,1.3800999999999999,8.581135999999999,171.942244,6.4487559999999995,185.31238399999998,1.7253316049247425,1.118715297101681,4.309488951032655,50.15977986412409,492.54118523497414,33.961353899428495,47.776360968073305,485.8181740974328,40.864601195608756,5.400539249792305,9.113668441928786,7.357572446551223,3.0693820228339073,4.301719577819195,1.2761466629270342,1599.9747308863164,1474.7898865674208,764.3214480799197,11916.544985832254,4132.487364110648,2622.992653811596,7.097537711932837,6.632954636273201,497.3968553342666,0.0
0.6951400000000001,9.79448,1.05214,0.6736999999999999,9.728919999999999,0.9661000000000002,-0.018299999999999997,0.05984,0.10406,-0.018679999999999995,-0.043219999999999995,-0.0017999999999999986,33.75,-28.714000000000002,-16.772,254.51800000000003,-82.978,-36.714,-0.06633025366069742,-0.08397777046025505,9.878618460654257,0.735,9.475000000000001,1.0065,0.6575,9.7355,0.927,-0.035,-0.16149999999999998,-0.069,-0.0495,-0.025,0.0055,34.05,-29.4,-14.7,253.55,-82.95,-36.9,0.10886471333675514,-0.04254978235400114,9.535907062167656,0.5991779037981958,1.1628274203853295,1.0075868599778384,0.15797585258513402,0.034822314684695904,0.32645264587685613,0.53107107810537,1.147275579100331,0.9988603387861589,0.21590131449345096,0.19573168266788082,0.12854991248538444,0.9128526715741154,2.028892308625571,4.418825183235924,14.777492209437971,1.6344161036896323,11.018130694450852,0.8892374952495954,0.6826143862653089,1.1803428896065058,0.35901416039999995,1.3521676096,1.0152312804,0.02495637,0.001212593599999988,0.10657133000000002,0.28203649000000003,1.3162412544,0.9977219764,0.04661337760000001,0.0383108916,0.01652508,0.8332999999999998,4.116403999999999,19.526016,218.37427599999995,2.671315999999999,121.39920400000003,0.7907433229577743,0.4659624003363643,1.393209337044636,35.217558621081764,489.7344513605011,53.74816204261258,34.06675639110642,486.44706241748094,49.265251565783544,1.6047880428166978,3.564750510584796,6.976039016544663,1.6259491633627419,2.461300639212323,1.1014758421220667,1687.6293874580088,1436.9557114402594,852.1093584442373,12734.655294907512,4149.166475531622,1864.1590799487637,4.029192737077249,5.044411327169948,493.9358491299322,0.0
0.46812,9.83796,1.1145999999999998,0.5206000000000001,9.746599999999999,0.90396,-0.034680000000000016,0.06575999999999999,0.19200000000000003,-0.0037400000000000076,0.03474,-0.0001799999999999985,32.308,-25.703999999999997,-21.24,268.77400000000006,-83.84200000000001,-30.34,-0.1639851944567603,-0.16652810733879345,9.910660656696363,0.669,9.5905,0.966,0.51,9.7515,0.8909999999999999,0.0235,-0.108,-0.052000000000000005,-0.0105,0.047,-0.029,32.45,-25.5,-21.1,271.65,-83.8,-29.7,0.1018894778838246,0.09161799771482071,9.615551339070791,0.7973812548586781,1.4097691862145376,1.365171051553614,0.16943116596423458,0.027898387050150353,0.23992348446952833,0.737827281685897,1.3800309063205796,1.4153751587476728,0.23519097006475398,0.21868990008685812,0.13606244007807594,1.573510724462976,0.9044246790087058,1.5778466338652815,8.37834852461987,1.5153996172627207,7.899721514078834,1.165025337790278,1.0247795293076378,1.43199509492687,0.6358168656000001,1.9874491583999998,1.8636920000000001,0.02870692,0.0007783199999999968,0.057563278399999994,0.5443890976,1.9044853024000004,2.00328684,0.05531479240000001,0.04782527239999999,0.018512987600000003,2.475936,0.8179840000000005,2.4895999999999994,70.19672399999996,2.2964360000000004,62.40559999999999,1.357284037693351,1.050173083687984,2.0506099518946157,24.16720954418565,491.9108842322546,56.13573797187037,26.24912041382245,487.33046874270775,45.61439862872842,3.9806397506174425,4.352440704417141,10.760835693922711,1.8461734322307906,2.9778701926205655,1.3122004857264349,1615.9582801891504,1285.3552926430493,1062.5864510037752,13440.029796168637,4192.261581449837,1526.6493116208003,9.692691509665023,9.257169973554749,495.54333409944286,0.0
0.48594000000000004,9.86654,1.2412599999999998,0.52094,9.71488,1.1453,-0.031220000000000008,0.14742,0.08188000000000001,0.031479999999999994,-0.039080000000000004,0.0069800000000000036,33.534000000000006,-26.035999999999998,-19.292,269.194,-82.318,-25.72,-0.06708879199163698,-0.03246997995629146,9.962426216558637,0.457,9.679,1.0835,0.528,9.719000000000001,1.1965,-0.026500000000000003,-0.0625,-0.0475,0.008,-0.018500000000000003,-0.0075,34.6,-26.2,-18.2,270.85,-82.35,-21.1,0.08849021623958073,0.17579360360568055,9.862476082693519,0.8958674547052148,1.5297031634928393,1.3882077050643393,0.26670278663711033,0.03912372170435721,0.3677496023111378,0.8194400597969324,1.5244361067621035,1.3470734299213238,0.25603696920562075,0.31567786365217315,0.19361967771897567,2.998506961806158,0.8721834669380061,3.757224507532122,12.102816366449591,1.5921921994533204,16.708716288213168,0.9612907671961975,1.259209890180131,1.5588411488640446,0.8025784964,2.3399917684,1.9271206323999999,0.07113037639999999,0.0015306655999999916,0.13523977,0.6714820116000001,2.3239054435999997,1.8146068255999999,0.06555492959999999,0.09965251360000002,0.0374885796,8.991043999999997,0.7607039999999999,14.116735999999998,146.4781640000001,2.535076000000002,279.1812,0.9240799390966541,1.5856095475274574,2.429985727391774,26.03368966256426,493.3380591771421,63.066983546797964,27.025454197264015,485.74474789293265,58.18074558067319,4.8181886767558675,7.995608115001694,6.026928846886051,1.8151924984033347,4.7051390975850484,0.7748992374210671,1679.5165902331432,1301.857951824845,972.1649927363703,13463.21604200268,4116.0572823000175,1383.8316414034714,5.233259339185046,4.24617531036828,498.1330682467227,0.0
0.8751199999999999,9.8749,0.5741399999999999,0.8748599999999999,9.7296,0.4932000000000001,0.01899999999999998,0.14794000000000002,0.016760000000000018,-0.03764,-0.0023799999999999954,0.024300000000000002,29.920000000000005,-25.238000000000003,-19.794,237.49400000000003,-83.86800000000001,-62.748000000000005,-0.04848059747114877,0.014430198748993721,9.949644108108574,0.789,9.846499999999999,0.529,0.685,9.768,0.4615,-0.10300000000000001,0.008000000000000007,-0.18,0.003,0.032,0.026,31.0,-25.5,-18.55,243.89999999999998,-84.9,-59.150000000000006,-0.12588125689266383,0.04718727710852244,9.872427339477944,0.9075921030947768,1.3707803069784743,1.1033485579815654,0.5487224438639265,0.1040024999699526,0.4291842494780068,0.7734231959283352,1.3733627548466574,0.9898173277933662,0.24124864849362368,0.3061138278484002,0.1995747729549003,2.500319979522621,1.8224039069317206,3.25892068022528,18.577969856795445,3.7012127742133383,18.99475969840103,0.9707533898341333,0.8181195412552605,1.3854976273365,0.8237234255999999,1.87903865,1.2173780403999999,0.3010963204,0.010816519999999991,0.18419912,0.59818344,1.8861252564,0.9797383424,0.0582009104,0.0937056756,0.039830090000000005,6.251600000000001,3.3211559999999998,10.620564000000002,345.1409640000001,13.698975999999995,360.8008959999999,0.9423621438744608,0.669319583783718,1.919603675355071,47.019222938243324,493.76463687314003,31.84801177294521,46.52347280684139,486.48864465651513,26.88473891620457,3.137518328685661,7.783465691366336,6.339950571414613,2.8049911227200233,5.318859946288973,2.465644815998287,1498.1206071808238,1262.8915477341068,995.6227207069826,11880.176980689284,4194.763938405781,3159.589062897039,6.407462374282119,4.614326261682512,497.4880638750291,0.0
1.3765599999999998,9.557220000000001,1.7423600000000006,1.30436,9.53018,1.78864,0.08077999999999998,0.011720000000000019,-0.00920000000000002,0.036520000000000004,0.004919999999999999,-0.014760000000000004,30.556000000000004,-23.854,-25.404,265.76800000000003,-76.68,-36.168,0.09701143917200537,0.01869511350640208,9.835896911975848,1.4055,9.067,1.4425,1.346,9.5735,1.7405,0.11000000000000001,-0.38,-0.1385,0.059,-0.037500000000000006,0.0055,30.4,-24.1,-24.5,265.85,-77.4,-35.65,0.2157130506346624,0.331533801989509,9.596874682899351,0.8348520146708638,1.5270215622577175,1.3443135312865073,0.4201697637860201,0.13247002528874216,0.5012661073721223,0.7784306080826986,1.4987512674223167,1.223936665028056,0.33476638062983566,0.44155397586252126,0.23594470199603973,3.4166158695410873,1.3520665664086218,4.002247368666759,7.323399210749061,3.1094694081145082,10.225232320099138,0.9312364331563806,1.0629588284138296,1.5347410156257701,0.6969778864000001,2.3317948516,1.8071788703999996,0.17654263039999996,0.01754830759999999,0.25126771040000007,0.6059542116,2.2462553616000007,1.49802096,0.1120685296,0.1949699136,0.0556699024,11.673264,1.8280839999999998,16.017984,53.632175999999966,9.66879999999999,104.55537600000001,0.8672012944378181,1.1298814709029015,2.35542998504402,69.57138130628402,477.9089399487102,88.77584998412875,66.14722062937167,476.51944436937276,89.98092973538579,5.6467006997882105,6.0694487771137435,6.429065840004121,2.535203356015962,6.510580999926499,2.762229190922412,1531.4446719100345,1193.074853265346,1276.1532301230561,13289.50295765655,3834.7056259560213,1820.6174176767854,7.152543201798855,8.388337835887203,491.8211859999333,0.0
0.64744,9.82806,1.3908600000000002,0.66322,9.63888,1.5481400000000003,-0.010660000000000003,0.18575999999999998,-0.17381999999999997,-0.005060000000000002,-0.0007799999999999954,0.036379999999999996,32.356,-23.623999999999995,-20.906,273.116,-79.79799999999999,-23.642,0.046245571790998544,0.1731109125343891,9.977812538716414,0.6114999999999999,9.470500000000001,1.367,0.6245,9.675,1.384,0.044,-0.171,-0.2985,0.0955,-0.04,0.034,32.45,-24.0,-20.05,274.9,-80.5,-21.7,0.10447372035229531,0.19215541781605816,9.798467668873425,1.0362219870278762,1.6792088066705702,1.5468392160790339,0.3804495388353099,0.09682864039115706,0.5210275620348697,0.9014105970089323,1.6867148965963397,1.4426519842290446,0.5021614644713391,0.46621558489608644,0.2523169348260239,2.2048274308888662,2.116842932293277,4.561903550054517,14.573583773389442,3.0335121559011435,13.111065402933509,1.0108808987469287,1.2387799555430687,1.7565130718494686,1.0737560064,2.8197422164,2.3927115604,0.14474185159999997,0.009375785600000013,0.2714697204,0.8125410643999998,2.845007142400001,2.0812447475999996,0.25216613639999996,0.21735697159999998,0.06366383560000001,4.8612639999999985,4.481024,20.810964,212.38934400000005,9.202196000000004,171.900036,1.0218801914513984,1.5345757782552871,3.085338171578057,33.04880349750649,491.4348617754836,71.8568821307455,34.42087755779691,481.949869311617,78.35257900556198,4.518843640972211,9.73520289662171,11.62085152215804,2.908451433593698,4.051953511918239,2.726864662470803,1619.20900700225,1182.5335163761786,1056.2095503943406,13661.14198010341,3990.5792511624454,1219.4271212975991,5.657547177416978,10.496299921095192,498.9052298784229,0.0
0.80332,9.716660000000001,1.5256200000000002,0.8244600000000001,9.62708,1.6326000000000003,-0.008820000000000017,0.12119999999999999,-0.12882,-0.05866,-0.0599,0.005780000000000003,31.142,-24.007999999999996,-21.288,270.19199999999995,-79.206,-27.162,-0.005088802566753343,0.11985943253852614,9.873885892042889,0.6955,9.6525,1.391,0.815,9.6305,1.6775,-0.079,-0.0365,-0.41700000000000004,0.0165,-0.022000000000000002,-0.0165,31.4,-23.7,-22.0,271.4,-79.1,-27.1,0.08011349700133466,0.3312583930860848,9.788826278335932,0.778747210332082,1.7782158880181,1.3257249170171013,0.20523832098319256,0.06210534276533704,0.31743389863088034,0.6747981828665516,1.7447215594472374,1.2878719764013813,0.3219103359632927,0.3379299483620829,0.18887819249452809,2.368551456059167,1.2743374749256964,3.308633554807785,9.23256930653651,1.8681980623049583,6.546995952343334,1.0829502019024706,0.9565128652899539,1.821168221271887,0.6064472176,3.1620517444000003,1.7575465556,0.04212276839999998,0.003857073600000002,0.10076428000000001,0.45535258759999997,3.0440533199999997,1.6586142275999998,0.10362626439999997,0.11419665000000002,0.0356749716,5.610035999999999,1.6239359999999996,10.947056,85.24033600000004,3.490164000000001,42.863156,1.172781139800602,0.9149168614651976,3.3166536901706083,40.3308944195043,485.8354121001883,76.45228704833819,41.43615645074769,481.3556695792545,81.94462645813863,2.5267892306177413,6.1248889136367906,10.484601873303113,3.1585227885805423,3.547164596890523,0.9841564724897931,1558.3917099658354,1200.785843340784,1068.0964531177976,13511.41049103615,3960.5126902098536,1368.3662101856416,5.503842607710317,8.434182499007688,493.69489017391663,0.0
0.5925,9.82262,0.8513199999999999,0.73978,9.714500000000001,0.9177600000000001,-0.11826,0.1,-0.05106,0.048240000000000005,0.09280000000000001,0.022119999999999997,27.651999999999997,-25.914,-18.972,257.742,-82.66,-41.85999999999999,-0.08049269161460063,0.11705709687405007,9.891929782253833,0.6485000000000001,9.4345,0.716,0.8294999999999999,9.7075,1.0739999999999998,0.04100000000000001,-0.31,-0.256,0.035500000000000004,0.0635,-0.0005,29.45,-25.75,-19.9,264.9,-82.1,-36.6,0.2545245136226477,0.22806242319757786,9.562111882907612,1.1494744929749419,1.7460786338535845,1.5343207414357662,0.3092160597381708,0.0546451278706528,0.5568588532114759,1.0936142795336936,1.6986219708928765,1.4334705634926723,0.4233294490110509,0.6210728459689733,0.33090999622253786,4.1450809401023765,1.3741921263054888,3.8176977355469095,31.684533072147364,2.794709287206811,30.97016628951159,1.4289165713540688,1.1237160337588759,1.7632048812349248,1.3212916099999998,3.0487905956,2.3541401375999995,0.0956145716,0.0029860899999999955,0.3100917824,1.1959921923999999,2.8853166000000003,2.0548378564,0.17920782239999997,0.38573148,0.10950142560000002,17.181696,1.8884040000000004,14.574816,1003.909636,7.8104000000000005,959.1511999999999,2.041802567890268,1.2627377245267788,3.1088914532106653,29.959032671301266,491.1795988906899,44.824128645350825,37.718895758287104,485.7266709428714,47.81573587641889,9.459033794284299,7.601794243612726,3.953720815313277,2.6421764523207116,7.713114949566034,1.6963224644076196,1389.0146741189233,1295.8630246739117,953.584293199101,12899.253819603315,4133.560653434728,2148.2334073241996,9.34770884953602,8.543102426796363,494.64783886100145,0.0
0.76018,9.79604,1.2055799999999999,0.6891800000000002,9.698,1.2039000000000002,0.05706000000000001,0.13512,0.005199999999999989,-0.010139999999999998,0.019060000000000018,0.004920000000000001,24.833999999999996,-21.386,-21.518,275.108,-81.6,-29.644000000000002,-0.010103957380144744,-0.016876436896600695,9.909461870377866,0.4895,9.7005,0.9000000000000001,0.646,9.706,1.1915,-0.051500000000000004,-0.0205,-0.3945,-0.0205,0.259,0.0035,24.7,-21.6,-26.5,274.95000000000005,-81.85,-31.25,0.18661427162140737,0.2347841132114435,9.860456807446162,1.353114417778482,1.6665783985159532,1.2127814492314763,0.33952423713190194,0.040197014814535595,0.27636571784503233,1.2495805121719847,1.6631705341305203,1.2790191554468604,0.29535179092059016,0.769750307827155,0.19398524067567616,4.134760452553449,4.312262051406431,10.193580136536918,21.18560681217321,1.62726764854464,13.75655712742109,1.247617394019168,1.170113795619711,1.7173818908126888,1.8309186276,2.7774835583999997,1.4708388436000002,0.11527670759999997,0.0016157999999999943,0.07637801000000001,1.5614514563999997,2.7661362256,1.63589,0.08723268040000001,0.5925155364,0.0376302736,17.096244000000002,18.595604,103.909076,448.8299359999999,2.648000000000002,189.242864,1.5565491618591796,1.3691662946995666,2.949400558891366,40.40004024533883,489.803418769234,62.01382860419263,35.02097796394335,484.9005695601943,60.50814701642952,11.598292956667393,7.24147770445053,11.700872459929498,1.5099975734726392,15.220048815725615,1.5994654086308187,1248.9874350871635,1077.7285249980712,1126.8016914049228,13765.46269942183,4080.1180363997223,1509.8751674619448,9.320175376079902,12.91159788483518,495.4763131393411,0.0
0.5738199999999999,9.79278,1.7143800000000002,0.5059,9.65568,1.5949200000000001,0.054040000000000005,0.16488000000000003,0.17012,0.0057199999999999985,0.10600000000000001,0.02258,30.578000000000003,-29.143999999999995,5.97,233.85799999999995,-80.12799999999999,-18.534000000000002,0.024021078966439822,-0.09915907286044678,9.958817666484812,0.6705,9.5075,1.5635,0.4895,9.666,1.575,0.10700000000000001,0.08,-0.2855,-0.0415,0.08099999999999999,0.0205,30.45,-30.3,9.149999999999999,232.2,-80.4,-18.0,0.013322411921152189,0.22404666870011672,9.647491468177337,0.7449256523976067,1.4349195139797908,1.1752309711711992,0.09034782786542242,0.06017422704115114,0.3559277926771103,0.7529749254789299,1.4267508772031647,1.4018519841980466,0.26549350575861547,0.2718783551517112,0.10979910564298782,1.462640078761689,2.551482706192617,5.946940389813908,10.075596061772226,1.966625536293068,5.693210342153186,0.9447395722384395,0.9715416893548227,1.4618821492299143,0.5549142276,2.058994011599999,1.3811678356000001,0.00816273,0.0036209376000000053,0.1266845936,0.5669712384,2.0356180656,1.9651889856,0.0704868016,0.07391784000000001,0.0120558436,2.139316,6.510063999999999,35.366099999999996,101.51763599999998,3.8676159999999977,32.412644,0.8925328593532698,0.9438932541544227,2.1370994182370735,29.37360516270653,489.6684034780307,86.82839821183423,25.35254727511505,482.7869913305604,80.39277009692003,7.122041336746466,9.061569923170069,12.365424526656792,0.8223037944482002,6.737592409569591,1.4965240363663255,1529.5884309291089,1459.232705505934,352.2070415908969,11696.560895450973,4006.7675634969514,939.6185537042579,5.694608425199256,8.346099181911605,497.95921751078197,0.0
0.4820999999999999,9.729640000000002,1.6302,0.5704600000000001,9.677760000000001,1.44382,-0.1075,0.05813999999999998,0.16558000000000003,0.020019999999999996,0.09604000000000001,0.031039999999999998,20.928,-31.166,22.108,198.446,-80.766,-22.104,-0.17797080780201974,-0.11355534546150865,9.876407481598669,0.5275,9.382,1.1145,0.5555,9.687000000000001,1.3944999999999999,-0.041,-0.2025,-0.47850000000000004,0.0075,0.08099999999999999,0.0335,20.25,-31.35,22.9,197.25,-81.0,-21.65,-0.062324791308462996,0.3798680497767172,9.460559845454629,0.6969687295711336,1.735477349434443,1.6124922077331103,0.14776023957749934,0.04572419928221814,0.28024201612178,0.6553188918381645,1.7650289517172233,1.5833099771049257,0.24481401022000354,0.2726330104737869,0.17344681720919528,4.296186215703411,1.101201162367712,3.2046116769430895,10.876345158186181,1.5453944480293689,6.6295085790728105,1.0304567819327934,1.3649665498452646,1.7721955622564627,0.48576541,3.0118816304,2.6001311200000004,0.0218330884,0.002090702399999998,0.0785355876,0.42944285,3.1153272004000003,2.5068704836,0.0599338996,0.0743287584,0.0300837984,18.457215999999995,1.2126440000000003,10.269536,118.29488399999997,2.3882439999999976,43.95038399999999,1.0618411794312888,1.8631336821964848,3.1406771108814997,24.168608602555516,486.48666113933416,81.84330608481905,28.673232357052918,483.8896510848773,72.59051762946206,6.129812009822106,3.914715681993019,8.802561245333143,2.497695719825198,5.620152407487952,1.710316635021186,1055.075823239355,1558.5008100458842,1109.0549700757801,9926.271446897574,4038.523825836685,1115.2227244143485,9.358158170895093,6.361775251187399,493.8241942578269,0.0
0.8137800000000002,9.59844,1.8892800000000003,0.97104,9.583679999999998,1.7864999999999998,-0.13121999999999998,0.026900000000000014,0.10647999999999999,0.009539999999999996,-0.03386,-0.00876,9.928,-29.892,25.605999999999995,174.002,-77.898,-28.077999999999996,-0.2009136195545992,0.013603502018196916,9.815534086313974,0.9204999999999999,9.542,1.871,0.9775,9.59,1.7235,-0.12,-0.0715,0.063,0.009000000000000001,-0.037500000000000006,-0.054,10.55,-31.25,25.6,174.45,-77.9,-28.1,-0.05320548522995561,0.0858888026584324,9.865600786123991,0.824398745510933,1.5155833353530912,1.1217237813294323,0.2750071242713541,0.07827424608388124,0.32699163597865927,0.7840553880944892,1.500765328090971,1.1257788635429251,0.3216246389815307,0.2817517353983823,0.1522217540300991,4.3500822980720715,3.161824789579587,1.5701477637470937,8.006259800930769,2.2121925775121842,6.259977316252831,0.9994213240655537,0.8319780519467685,1.5875346990540806,0.6796332916,2.2969928464000002,1.2582642415999998,0.0756289184,0.006126857599999997,0.10692353,0.6147428516,2.25229657,1.2673780496,0.10344240839999998,0.07938404040000001,0.023171462399999995,18.923215999999996,9.997135999999998,2.4653639999999992,64.10019599999998,4.893796000000002,39.187316,0.9988429829969445,0.6921874789211399,2.5202664207007306,41.61288869899183,479.9582063937923,94.77762991608168,49.339528237175784,479.19046011359035,89.80878487048157,9.370150252327951,6.726547792745277,6.878821880019376,2.2051320530836165,4.230733947071326,1.389913135377802,517.3809054190335,1498.5201013071885,1280.779784086759,8702.88732338098,3895.502882066336,1413.2550801920627,12.406059322842609,6.022020613494624,490.8074401078925,0.0
0.85488,9.85828,1.30582,0.92444,9.68882,1.1371,-0.056839999999999974,0.17188000000000003,0.1655,0.04298,0.04331999999999999,0.013779999999999992,15.209999999999997,-30.018,25.082000000000004,173.658,-81.208,-38.428000000000004,-0.1743710940194842,-0.03276471807491829,9.97747647449744,0.9555,9.68,1.274,0.9045000000000001,9.690000000000001,1.0895000000000001,0.091,0.1565,-0.0235,0.023,0.0585,0.009000000000000001,15.649999999999999,-29.95,24.7,176.05,-80.75,-36.5,-0.004650461092726265,-0.11238448427012188,9.917039314554376,0.8125552938723616,1.4693192442760694,0.934595199859276,0.27891949806350935,0.04066334467305915,0.2626365739953215,0.7508756850504615,1.4567087373939926,0.9547335177943636,0.3055128468657251,0.2415412544473511,0.1928106107038718,3.6403433903960214,1.366409894577758,2.184279286171986,13.881845554536326,1.5643324454859335,10.821590271304862,0.8977008749407335,0.8094624437288725,1.5072065774117378,0.6602461056,2.1588990416,0.8734681876,0.07779608639999999,0.0016535076000000078,0.06897796999999999,0.5638142944,2.1220003456000005,0.9115160900000002,0.09333809959999999,0.05834217760000002,0.037175931599999996,13.252099999999999,1.8670760000000002,4.771076000000001,192.70563599999997,2.4471360000000013,117.10681600000002,0.8058668608693584,0.6552294478075181,2.271671666993205,43.53619232686746,492.9396327192252,65.55381485265826,46.786691690181414,484.4412823183259,56.89704321829664,3.8301024359759914,10.932904115111546,9.667819158739912,2.7004239811577824,3.368665972116164,1.0986166423457426,769.0679050016522,1501.3577891169498,1255.7339105339445,8690.931433797621,4060.467346083175,1939.5882174353048,9.08401091353807,4.832216659529407,498.90116541625474,0.0
0.6812600000000001,9.604819999999998,1.79332,0.7731399999999999,9.621539999999998,1.6474599999999997,-0.10978000000000003,-0.043380000000000044,0.17968,-0.030059999999999986,0.010159999999999995,-0.02016,12.497999999999998,-30.078000000000003,26.195999999999998,178.872,-79.226,-26.622,-0.1708622546945807,-0.10906097456158069,9.811123014852104,0.7589999999999999,9.5675,1.6855000000000002,0.792,9.628,1.7395,-0.0055,0.025,0.15,-0.0565,0.0445,-0.018,13.0,-30.1,26.15,180.05,-79.05,-24.85,0.002328187860170916,0.03884838691338116,9.782610534837922,1.0509665229682628,1.7294507994158146,1.3581778004370417,0.22977336747325613,0.07725728703494586,0.473653595362687,0.9167005681246193,1.6869869340335746,1.2829606297934477,0.29385740827823276,0.2847949690566882,0.2625585923179815,2.892299431248432,1.5942760112351941,1.2569741445232672,11.019619594160226,2.600677604010155,10.937628444960087,1.1346031714806961,0.9746646983167473,1.8265645431543909,1.1045306324000002,2.9910000676000004,1.8446469376000005,0.0527958004,0.005968688400000013,0.2243477284,0.8403399315999998,2.8459249156,1.6459879776,0.08635217639999998,0.08110817440000001,0.06893701440000001,8.365396000000002,2.541716000000001,1.5799839999999992,121.43201599999996,6.763524,119.63171600000001,1.2873243567340538,0.949971274144876,3.336338030308809,34.3221141487965,480.2924620978467,90.6977174373261,38.70683285421326,481.08275908976987,83.59036316685192,6.250657716957911,8.753646056248597,10.880202513174545,1.9290245846558605,4.152824974966027,2.099878089355368,630.8239188651644,1504.5209217941435,1310.3421347972806,8947.079875916737,3962.0797535002266,1346.8814216819576,8.819688905518262,8.399234169778305,490.6238326958023,0.0
0.833,9.617259999999998,1.85506,0.7608799999999999,9.56782,1.8877000000000002,0.0332,0.15646,-0.09312,-0.036939999999999994,0.027160000000000004,0.04003999999999999,15.254000000000001,-28.676,24.811999999999998,186.708,-77.832,-23.114000000000004,0.06209551265853169,0.0027140561006690754,9.843676688115615,0.6910000000000001,9.461,1.7455,0.7805,9.620000000000001,1.7255,0.0465,-0.0595,-0.196,0.0335,-0.035,0.0455,12.75,-29.85,24.35,184.2,-78.8,-24.85,0.034461180473895306,0.0012560786618284188,9.675523625329859,0.9960221282682429,1.3248227777329316,1.1348795955518807,0.3106659067229618,0.149255980114701,0.6047294353675865,0.9599426857891048,1.321172664113211,0.98314535324132,0.5578166512394552,0.5591907495658346,0.3540966512126315,5.795522754678822,2.672493966316856,2.7672831441686627,15.407645374942922,3.3665079830590026,10.412127736442729,1.0826773593548311,0.9143438986065618,1.3236104758114324,0.99206008,1.7551553924000003,1.2879516964000002,0.0965133056,0.022277347600000025,0.36569769,0.9214899599999999,1.7454972084,0.9665747855999999,0.3111594164,0.3126942943999999,0.12538443840000002,33.588084,7.1422240000000015,7.657856000000001,237.39553600000002,11.333375999999994,108.41240399999998,1.1721902644595503,0.8360247649190466,1.7519446916777666,42.1199628188046,480.9830529497496,94.16767509057576,38.75006996918195,478.406656624791,95.93236518350417,3.6624325659952546,8.344219719954904,10.108061664549394,2.533185726172556,8.501400418174816,4.1285975935424135,785.6552531335689,1436.3851404383367,1243.6559416039638,9347.346449715016,3892.6749087461912,1190.5136232756035,6.106665805116495,9.184520594406967,492.2454044983782,0.0
0.37252,9.57154,2.05946,0.40797999999999995,9.554799999999998,2.0789,-0.08574,0.042519999999999995,-0.08394,0.026779999999999998,-0.06572000000000001,-0.020840000000000004,20.886,-30.62,19.496000000000002,208.834,-77.19,-12.224000000000004,-0.04923806783260352,-0.04242047875846229,9.819366831722755,0.1855,9.3115,1.6389999999999998,0.404,9.574,2.013,-0.319,-0.20400000000000001,-0.449,0.064,-0.07400000000000001,-0.0095,21.45,-31.200000000000003,19.85,207.25,-77.4,-11.9,-0.03741057313675346,0.5528651034618136,9.543965502503706,1.583218737130154,1.2881244848227986,1.8787985119219146,0.4574550683947004,0.09483164028951509,0.4106123841288765,1.363158579329639,1.2509795560279955,1.7144145170873935,0.4597516412151239,0.4286592138284211,0.288480180255074,2.714333067256117,1.8451016232175397,2.114612021151871,11.185912747737666,2.411907958442859,11.775339655398481,1.242786149166706,2.02333180705575,1.2758043916356905,2.5065815696,1.6592646884000006,3.529883848400001,0.2092651396,0.008993039999999982,0.16860253000000003,1.8582013123999999,1.5649498496000005,2.939217136400001,0.2113715716,0.18374872160000003,0.0832208144,7.367604,3.4043999999999994,4.471584000000001,125.12464400000003,5.817300000000001,138.65862400000003,1.54451741256061,4.093871601443487,1.6276768457169144,23.949893459849214,478.5918487135239,103.65567434544262,23.393193960676026,477.7468753551078,104.64170666392931,9.28485651628497,4.454428031065507,7.606049876156325,2.7493213174131217,6.5661497113586105,2.3358184244046787,1046.1356293071035,1531.8680678945245,976.4676794092727,10444.535899683888,3860.036783124497,691.7259712326171,7.920571027580034,9.575885731578246,490.9747288968584,0.0
0.17048,9.5196,2.39528,0.25282,9.45584,2.5082999999999998,0.005599999999999961,0.010759999999999987,0.026840000000000027,-0.0028999999999999994,-0.01389999999999999,-0.005159999999999997,23.399999999999995,-31.407999999999998,18.942,215.72199999999998,-74.832,-6.758000000000001,-0.06223166153960716,0.08369132035739986,9.861907709955105,-0.0585,9.084,1.767,0.376,9.457,2.577,-0.4795,-0.4,-0.602,0.026000000000000002,-0.010499999999999999,-0.019000000000000003,23.35,-31.45,19.25,215.8,-74.95,-8.9,-0.3210705364514398,0.8485123929418917,9.771228887743174,1.7268015663648209,1.3722784848564813,1.9653099606932236,0.4475132932103805,0.1234881953872515,0.4339204189710368,1.648000485436822,1.329255168280342,1.8857938525724385,0.4093706999774166,0.4627469827022106,0.2870170977485487,2.329120005495638,1.0314727335223168,2.0274210218896322,10.184091319307775,2.567367523359288,9.885000556398568,1.32369011956996,2.116836469960762,1.2709823485492837,2.981843649599999,1.88314824,3.8624432416000003,0.20026814760000003,0.015249334400000003,0.18828693000000007,2.7159056000000006,1.7669193024000003,3.5562184544,0.16758437,0.21413477,0.08237881439999999,5.4248,1.0639360000000002,4.110436,103.71571599999997,6.591376000000004,97.71323599999998,1.752155532647135,4.48099664055594,1.6153961303238529,16.124963683544728,476.0517115109236,120.19915964465044,17.019546181314254,472.8014721496127,125.90851141901832,5.2376889928342845,8.419107338342076,5.726477319624749,1.1385985886247105,4.311227976829049,1.9781078337043236,1170.7723817333506,1570.510012024966,947.8055244625759,10789.225417455948,3742.188832141283,422.59025725623104,8.01998738490177,10.101493111404,493.13212607014253,0.0
0.91802,9.311219999999999,2.755,1.03478,9.312080000000002,2.8007000000000004,-0.06971999999999999,-0.018699999999999984,-0.011219999999999966,0.006920000000000002,0.04598000000000001,0.015700000000000002,24.814,-32.38,13.798000000000002,211.532,-72.006,-19.882,-0.05776919866097507,0.04580542315066109,9.778641347996551,0.6465,8.7905,2.607,1.0385,9.334,2.785,-0.309,-0.41800000000000004,-0.33699999999999997,0.064,0.006999999999999999,0.07100000000000001,25.35,-32.349999999999994,14.25,211.39999999999998,-72.35,-20.95,-0.09335659202664015,0.5558875777744535,9.659784926824923,1.4509835076940054,1.469488445548314,1.4774679285859305,0.5639988400697292,0.15247712484172826,0.447382576772945,1.2857774308176357,1.3783904127641053,1.390682153333392,0.4050456685362775,0.4271459464866781,0.28213395754499315,2.0880622596081757,1.4641038214552953,2.586927907770141,9.677653434588365,2.9504853837970457,10.145436215363045,0.9226006768518975,1.8587980529892376,1.282840706956278,2.1053531395999996,2.1593962916000002,2.18291148,0.3180946916,0.023249273599999985,0.20015117000000004,1.6532236016,1.8999601300000004,1.9339968516,0.16406199359999996,0.18245365960000004,0.07959957,4.360004,2.143599999999999,6.692196,93.65697599999996,8.705364000000001,102.92987600000001,0.8511920089275794,3.4551302017965804,1.6456802794240832,47.490140589364955,465.5974742626027,138.16573720303407,53.53111829861902,465.6209166864846,140.54018388093755,5.0592519665148545,8.039016954518926,2.4214750769291205,2.842111366444687,3.778508546471622,3.3666060479879802,1241.8999405965358,1619.5230706416194,690.8302914127332,10579.485783198548,3601.1700385854247,1025.3700601074727,3.6030749860478646,6.643638069890777,488.9868978704696,0.0
1.41492,9.32808,2.66434,1.36656,9.31646,2.6286799999999992,0.07558000000000001,0.015359999999999992,0.09093999999999997,0.011120000000000017,0.018299999999999997,0.006759999999999991,22.642000000000003,-32.846000000000004,16.435999999999996,200.57199999999997,-72.102,-26.9,0.04238706473881305,-0.1079532435354971,9.845305936701406,1.227,8.957999999999998,2.4684999999999997,1.3255,9.327,2.6799999999999997,-0.1185,-0.383,-0.14550000000000002,0.056,-0.051000000000000004,-0.0305,22.65,-32.95,16.45,199.25,-72.1,-27.75,-0.021609880665361014,0.2980282929349955,9.917097186398458,1.6542263429168331,1.6445798836176975,1.6807740670298312,0.5967501708420367,0.16635458635096323,0.46047711951844034,1.4334439241212054,1.6408569195392997,1.5679451700872709,0.4731764846228097,0.46137075113188525,0.29032613110087074,1.67285265340376,2.1121751821286034,3.300470269522209,8.90478612881859,3.2130664481146356,10.203254382793757,1.0142803564963283,1.9207569403448213,1.648733016970281,2.7364647936,2.7046429935999994,2.8250014643999997,0.3561107664,0.027673848400000086,0.2120391776,2.0547614836,2.6924114303999995,2.4584520564000005,0.22389598560000004,0.21286297,0.0842892624,2.7984360000000006,4.461283999999999,10.893104000000001,79.29521599999997,10.323796,104.1064,1.0287646415743188,3.6893072238827993,2.718320561247925,74.24531991015968,466.43617265769905,133.6497282944798,69.9377582581156,465.8327580727171,131.55259198647724,11.322998302239357,4.2274935573034425,9.53212352946683,1.6253136494736402,2.633772559935967,3.2639919115626457,1132.6858316858866,1643.3247090077434,822.2198182179196,10030.074857976595,3605.557667527318,1368.2173538472011,8.080786939826435,10.966870239995986,492.27021369381373,0.0
1.2340600000000002,9.4906,2.7234000000000007,1.2380200000000001,9.2943,2.7744999999999997,-0.008960000000000003,0.21378000000000008,-0.05572,-0.02508000000000001,-0.044219999999999995,0.02612,21.324000000000005,-31.855999999999998,14.644,203.3,-71.512,-24.154,0.09735896011566325,0.07961191842953437,9.995170439018976,1.092,9.1555,2.252,1.3884999999999998,9.3085,2.8055000000000003,-0.07400000000000001,-0.0465,-0.264,-0.0965,-0.07650000000000001,0.021500000000000002,21.299999999999997,-31.8,15.5,203.75,-71.25,-25.5,0.24301813172018547,0.5017285487583645,9.637907961465764,1.412624839226608,1.7187643468492126,2.052544586604637,0.5319844918792277,0.13797423672555675,0.5050680845193052,1.2416577460798126,1.7502342504933446,1.7058666892814338,0.5607714628973196,0.5838709888322933,0.3512349435918926,2.923597783553682,1.062480117461028,3.7309601981259464,12.969564372021136,2.606502637635343,10.928791515991144,1.141232521954507,1.929040479352688,1.7975097580103616,1.9955089364,2.9541508800000003,4.21293928,0.28300749960000005,0.019036889999999973,0.25509377,1.5417139584000004,3.0633199315999997,2.9099811615999998,0.31446463359999993,0.3409053316,0.12336598559999999,8.547424000000001,1.1288639999999999,13.920064,168.2096,6.793856000000001,119.43848399999999,1.3024116691666443,3.7211971709812484,3.2310413301424687,62.55490112769322,474.54882093263694,136.6338051362434,62.84638413775623,464.7186238212145,138.95431454507622,3.6443923522078485,11.010148047728322,7.90813956747408,2.3878403132440313,3.3687389079769643,2.1908226233239843,1068.7463714592172,1593.0448999025864,733.6418822021899,10168.597178814773,3575.7900813226656,1228.0361405155802,5.381742148911049,10.044785750305598,499.77103353869427,0.0
1.4468200000000002,9.38112,2.20562,1.5849799999999998,9.3778,2.25928,-0.1521,0.07626000000000001,-0.009560000000000015,-0.006979999999999997,0.00525999999999999,0.040200000000000014,20.987999999999996,-33.642,15.796000000000001,193.512,-73.262,-35.168,-0.09175478048043076,0.10435230575273544,9.770782980314836,1.3315000000000001,9.1855,2.0460000000000003,1.5310000000000001,9.378499999999999,2.2355,-0.2735,-0.08499999999999999,-0.161,0.0335,0.0195,0.101,20.700000000000003,-33.6,15.5,193.64999999999998,-72.85,-33.349999999999994,-0.13580428700869807,0.23213047785672458,9.486195855395058,1.3697253110021732,1.8056895152821817,1.7335934804907407,0.5385066941088106,0.14583524951122076,0.5479719715459908,1.2641633794727642,1.7979121203217914,1.5737901913533456,0.5197377988947889,0.5706015005237894,0.2863608213425852,2.047988281216472,1.4470784360220426,4.215635657881265,11.996076691985595,2.9379509866571967,11.96107754343228,0.9855534927345864,1.7249768024670287,1.9160113548834514,1.8761474276,3.2605146256,3.0053463556000004,0.28998945960000005,0.021267920000000013,0.30027328160000005,1.5981090500000001,3.2324879924,2.4768155664000004,0.2701273796,0.3255860724000001,0.08200252000000001,4.194255999999999,2.094036000000001,17.771584000000004,143.90585600000003,8.631555999999996,143.067376,0.9713156870413424,2.9755449690493743,3.671099512042319,73.54602102606484,469.1000072799467,110.31561975017226,79.66196939648974,468.8924456577947,113.12545074751935,10.248188930086378,9.476998717735894,3.589301254630182,2.820167423647752,1.0355745774759315,2.3621718381054824,1049.5292142850064,1682.3394880034332,790.96846630751,9676.390903242036,3663.249660551282,1767.5199437193596,10.84357429139365,11.238983711467466,488.5653433201292,0.0
1.3358599999999998,9.4746,2.01428,1.3616,9.36328,2.19046,0.03879999999999998,0.07270000000000001,-0.15075999999999998,0.0030400000000000028,0.021960000000000007,-0.010720000000000007,20.581999999999997,-33.212,17.718,197.486,-74.212,-27.791999999999998,0.01608334301878044,0.1658208402866552,9.87808802416053,1.2389999999999999,9.4165,1.8735,1.091,9.5495,1.976,-0.3125,-0.062,-0.314,0.053000000000000005,-0.0045000000000000005,-0.07300000000000001,20.15,-32.400000000000006,19.05,194.2,-77.2,-29.75,-0.005546331599119214,0.36811542635237193,9.838492804798953,1.8341444000950415,1.554582992316589,1.812820002537483,0.9981656375572143,0.3735484996623598,0.8438439715966454,1.4578957438719684,1.5954379994221022,1.5328282820981611,0.5242291849945021,0.4881127722156018,0.4020729306979021,2.771331088123539,3.4598057748954636,4.843952518346974,13.620734341436956,7.196377977844133,14.037746827749816,1.105609130774298,1.7764552736328028,1.6414865861989294,3.3640856803999997,2.4167282799999996,3.2863163615999995,0.99633464,0.13953848160000001,0.7120726484000001,2.12546,2.54542241,2.3495625423999997,0.27481623839999997,0.23825407839999996,0.16166264160000002,7.680276,11.970256,23.463875999999996,185.52440400000003,51.78785600000001,197.05833600000003,1.2223715500514987,3.155793339217796,2.694478212671015,73.63541373906948,473.83278745698306,104.73839281312642,75.43238321037367,468.3035962899038,112.2748382868692,12.809384914219136,8.59116534891845,9.111145155991432,4.113929330076757,2.6282420681166156,3.371962173879392,1032.1984603755934,1664.5057134525287,894.1391030371205,9880.587415810443,3717.402008287094,1447.6333838240655,10.952290292917006,11.146044467366425,493.9296548810379,0.0
0.9532,9.678180000000001,1.61832,1.03236,9.59448,1.6227400000000003,-0.18156000000000005,0.15238000000000004,-0.15934,-0.01765999999999999,0.019020000000000002,-0.010459999999999999,20.45,-29.989999999999995,21.576000000000004,187.91400000000002,-78.458,-33.756,-0.12186959252784484,-0.008479079732351638,9.872676819957137,0.6085,9.442,1.384,0.962,9.5995,1.63,-0.659,-0.0585,-0.22250000000000003,0.007000000000000001,-0.0335,-0.003000000000000001,20.45,-30.05,21.950000000000003,190.8,-78.0,-30.05,-0.14898770341523587,0.3139970079767063,9.993566471605508,1.663661035187156,1.5503327602808374,1.4391223219726668,0.33400028502981854,0.09927904914935466,0.5443957681687102,1.540401118670069,1.6665550682770731,1.3371243414133183,0.5340078879567229,0.47734266475981385,0.2803774748441822,2.103734774157617,1.5668120499919576,3.2194757337181468,13.364774745576524,2.8984195693515455,12.107438374817358,0.9661527307755576,1.8604742943651906,1.599250873730033,2.7677680399999995,2.4035316676000003,2.0710730576,0.11155619040000002,0.009856329599999977,0.2963667524,2.3728356064,2.7774057956,1.7879015044,0.2851644244,0.22785601960000001,0.0786115284,4.4257,2.4549000000000007,10.365024,178.61720400000002,8.400836,146.59006399999998,0.9334510991850672,3.461364599993654,2.557603357126274,48.77943261058914,483.91333650801073,81.73291240107837,52.11663010604689,479.7268171326923,81.77878379415635,10.587255125280338,8.499506159199111,9.108067311750355,2.7618305277055804,1.4284842734759504,1.2921575459035899,1022.7463022070694,1499.9646849423793,1079.436381861959,9398.76911070823,3923.1559380844687,1710.1541403621998,6.393161247113225,5.665820910806649,493.6384515782398,0.0
0.9827999999999999,9.515559999999999,2.06704,1.19346,9.41398,2.21994,-0.14644,0.09043999999999996,-0.14798000000000003,0.011619999999999995,0.023999999999999987,0.014479999999999998,20.631999999999998,-32.762,19.31,194.102,-74.77199999999999,-28.831999999999994,-0.04819624920882106,0.23817337942060088,9.834781680586884,0.636,9.243,1.7255,1.1275,9.504000000000001,2.0540000000000003,-0.361,-0.022999999999999993,-0.436,0.016,0.038000000000000006,0.012,20.700000000000003,-32.0,20.4,197.5,-76.35,-27.35,-0.1315192662064938,0.7036838345973149,9.522757033347132,1.4879182907673394,1.674211493927813,2.2361842496538604,0.5196820647280412,0.3228462476164159,0.9056605635667262,1.4143176469237737,1.7037561464012387,2.0532664073616944,0.6034939234159694,0.5265587146748214,0.3076915494452196,2.150668733208348,2.7552778444287607,5.214412718609834,11.42105932039581,5.928947292732497,10.582200905293757,1.1413362788866441,2.218266659031166,1.6722743991397184,2.2139008400000004,2.8029841263999997,5.0005199984,0.2700694484,0.10422969960000014,0.8202210564000001,2.0002944064,2.9027850063999994,4.215902939599999,0.3642049156,0.27726407999999997,0.0946740896,4.625376,7.591555999999997,27.190099999999997,130.44059600000003,35.152416,111.98297600000002,1.3026485015028113,4.920706970569292,2.796501666018106,49.86150254555836,475.80932557627546,107.20874270379139,61.0882921912161,470.77747971548104,113.7497310377344,10.349995427512908,5.618987225487639,8.366936958561618,7.424587131675365,1.3894689152675925,2.528985464719333,1032.01713225174,1640.0004089238296,971.8190084055933,9708.709861926649,3742.0596010055315,1471.8900139807406,10.545910272948477,15.06883513859833,491.74253725376536,0.0
0.06356,9.601799999999999,1.6565200000000002,0.09868,9.60504,1.90898,0.16380000000000003,0.009960000000000023,0.21076000000000003,0.029379999999999996,0.04202,-0.016899999999999995,13.732000000000003,-31.576,26.250000000000004,201.356,-78.59400000000001,-2.4579999999999997,0.007514012282655267,0.23460841022531653,9.741550256742132,0.1305,9.599,1.6125,0.065,9.6295,1.838,0.0125,-0.1075,0.177,0.0625,0.041,0.005,13.0,-31.4,26.5,201.05,-78.95,-2.05,-0.023893306446173997,-0.04225631186348867,9.678062187341661,0.7332678408330752,0.9737646327526998,1.6283242335603805,0.2404107684776204,0.10015926517302325,0.43866759579435544,1.6385611493014227,1.272956212286974,1.360456769765214,0.32128310817719624,0.2836731562908271,0.29736336358065363,3.1389450457120143,1.4621299531847365,1.8001388835309344,8.360769342590427,2.5825111810019328,6.960002586206416,0.8016932124363562,1.5632730064745146,1.0200819816072821,0.5376817264,0.9482175600000002,2.6514398096000007,0.0577973376,0.010031878399999987,0.1924292596,2.6848826399999997,1.6204175183999998,1.8508426224000005,0.10322283559999999,0.08047045960000002,0.08842496999999999,9.852975999999998,2.1378239999999997,3.2404999999999995,69.90246399999997,6.669363999999998,48.441635999999995,0.6427120068665245,2.4438224927718677,1.0405672491998395,4.788121052708472,480.1265232738405,83.45247750465826,6.555480969605292,480.2594653155387,96.16197946239424,11.085917001648953,8.801809314410638,17.772925173261797,3.1170212420743892,2.8071991931719924,2.543600352267124,689.6453674673899,1579.3118521560027,1312.969486489084,10068.669016846783,3930.3285522750707,170.55245529810264,3.1223207633448022,20.129524643225267,487.1178718727685,0.0
0.10444,9.718380000000002,1.84562,0.15488,9.616660000000001,1.8115199999999998,-0.06868000000000002,0.1275,0.04106,0.01764,-0.012340000000000002,0.01252,9.918,-30.313999999999997,27.508000000000003,191.86,-78.91,-5.8020000000000005,-0.0354838833135581,-0.047127446791407596,9.918219083220396,0.1245,9.6165,1.8085,-0.0445,9.625,1.84,-0.0505,0.0605,0.1045,0.035,0.0035,0.016,9.7,-30.7,27.35,195.75,-78.8,1.9500000000000002,0.018253809382616365,-0.09494711116705112,9.848395595659364,0.710599976358007,1.1343453775636414,0.7344415263314024,0.436205852322043,0.07655758878125662,0.43374352975001257,0.4975419355190073,1.0834938532359102,0.5890209643128163,0.296262840059296,0.176903545470406,0.14827963312606354,2.1404382728777764,1.5219737185641544,1.350975943531194,14.416074361628413,2.294013949390892,14.957720280844939,0.46406004480413154,0.5838674183978066,1.1244661255798327,0.5049523264000001,1.2867394356,0.5394043556,0.19027554559999998,0.00586106439999999,0.18813344960000003,0.2475479776,1.1739589300000002,0.34694569639999995,0.0877716704,0.0312948644,0.021986849600000004,4.5814759999999985,2.316404,1.8251360000000003,207.82320000000004,5.262499999999999,223.733396,0.21535172518361256,0.34090116226651945,1.2644240675765201,18.699026098885493,485.95498306583414,93.6011051297434,16.524091569224385,480.8373752156563,91.48320645695168,6.3037948099782355,7.450878938828037,4.3349059260637715,2.1516508279603292,3.22452756408745,1.676076963038333,500.56554112844003,1516.2988682171035,1375.780611536868,9604.827579044357,3946.001750663761,575.6653108581207,7.5441699692449005,4.915062731663162,495.9294906175542,0.0
0.35056,9.652439999999999,1.4369600000000002,0.4598,9.669220000000001,1.4888400000000002,-0.12945999999999996,-0.027679999999999972,-0.07582000000000001,-0.015520000000000004,0.013800000000000008,-0.01052,5.957999999999999,-29.638,28.654000000000007,174.56199999999998,-80.568,-17.911999999999995,-0.06756345002472645,0.04379294641675152,9.775082229062507,0.26,9.448,1.5695000000000001,0.5395,9.6735,1.4489999999999998,-0.094,-0.16899999999999998,-0.079,0.0010000000000000009,0.037500000000000006,0.018500000000000003,6.050000000000001,-29.2,28.7,169.7,-80.6,-20.9,-0.07566231460387496,0.09861460019576684,9.557414694728203,0.8552860143834926,1.4086681959922285,1.0851013401521536,0.35749304888347133,0.05343979416128037,0.3421337375939415,0.7571609131485857,1.3929412111069155,1.143522377393639,0.33119530431453886,0.4230146096767817,0.32417601638616017,3.034474583844788,1.4734843059903964,1.406443742209407,15.292258041244267,1.8244385437717545,14.163525549805739,0.7784968813333374,1.0050099284529357,1.4407747577593686,0.7315141663999999,1.9843460863999995,1.1774449183999998,0.12780128000000002,0.002855811600000015,0.1170554944,0.5732926484,1.9402852176000003,1.3076434276,0.1096903296,0.17894136,0.10509008959999999,9.208035999999998,2.171156,1.9780840000000006,233.85315599999996,3.328576,200.60545599999998,0.6060573942457324,1.0100449562889748,2.0758319025965672,20.50773648420095,482.6587039640359,71.8688096570517,24.406591019435666,483.46193930678834,74.5921563954575,9.1604997285182,5.256530882455902,7.814657072290503,2.0764916679639946,2.468658243967815,1.923812449714579,308.1778222835772,1482.1118667635808,1433.2543449061527,8735.989596254083,4028.515379154027,941.7503107262803,5.495956056209414,5.46521604479152,488.78860256380443,0.0
0.4524999999999999,9.7718,1.61334,0.44118,9.659080000000001,1.6079400000000001,0.01988000000000003,0.08216,-0.05192000000000001,0.0029599999999999982,-0.08272000000000002,-0.015160000000000002,13.609999999999998,-30.89,26.451999999999998,190.236,-80.172,-15.468000000000002,-0.012991575245637354,0.018527770863710987,9.912208440486248,0.39,9.848500000000001,1.626,0.4175,9.661999999999999,1.608,0.0235,0.07350000000000001,0.0335,-0.0345,-0.07250000000000001,-0.0029999999999999996,13.0,-30.8,27.25,191.15,-80.19999999999999,-14.75,0.07935097231445357,0.005839308027404618,9.952880814575996,0.7745992835008305,1.4122820539821355,0.8855984555090416,0.16564609141178066,0.043653563428430554,0.2518214772413187,0.7011447108835664,1.407841104102306,0.8486152447369774,0.22185219944819118,0.34030704018577107,0.11948964139204703,4.4844732132102205,0.9642095207992916,2.1244519293220074,10.078963438766905,1.5034679910127784,5.967258667093291,0.8991042583784504,0.6853629469085781,1.4642498613976995,0.60000405,1.9945405999999997,0.7842846243999999,0.027438627599999998,0.0019056336000000096,0.0634140564,0.49160390559999995,1.9820165744000002,0.7201478336,0.0492183984,0.11580888160000001,0.014277774399999998,20.1105,0.9296999999999994,4.5132959999999995,101.58550400000001,2.2604159999999998,35.608176,0.8083884674342634,0.4697223689952104,2.144027656603182,24.103318824570817,488.59639287283574,80.77652886009261,22.511399710782047,482.9552346253572,80.6302698583318,4.9697473871592575,4.624819692005712,4.811073498891401,1.1004024020820353,7.047099396359095,1.4518507768551328,689.7137241050557,1544.6293079260117,1324.0874801210323,9515.70767009542,4008.788308494009,786.7819299973115,5.9435463494050005,2.7617192160369055,495.61433347624063,0.0
0.1729,9.58222,2.1713400000000003,0.31320000000000003,9.55656,2.1484,-0.1527,0.04553999999999998,0.041020000000000036,-0.004700000000000002,0.09200000000000001,0.0288,10.213999999999999,-31.64,24.956,191.13,-77.166,-8.552000000000001,-0.1436684576600446,-0.0361056267124592,9.834013927927845,0.3295,9.779499999999999,2.1180000000000003,0.321,9.5495,2.22,-0.047,0.1005,-0.08299999999999999,-0.026999999999999996,0.10350000000000001,0.0155,11.1,-31.5,24.1,190.3,-77.0,-8.2,-0.06748953003680394,0.08667662137160304,9.943444424475338,0.9667294812924657,1.9543602665834157,1.4900449739521289,0.16805427694646752,0.06511072415508835,0.31105478617118243,0.878833710095374,1.8968994829457886,1.4560162566400143,0.2452721141915648,0.2968772136759573,0.15677793212056346,5.276286952014646,1.2561846997953767,2.2834325039291183,11.14422271852102,1.7566570524721092,5.305628709210625,0.978280503734584,1.1438477112220502,2.1313567023985747,0.9345658899999999,3.8195240515999997,2.2202340244000003,0.028242240000000005,0.004239406400000006,0.09675508000000001,0.7723486899999998,3.5982276484,2.1199833396,0.06015841000000001,0.08813608000000002,0.024579320000000005,27.839204,1.578000000000001,5.214064000000002,124.19370000000002,3.085843999999999,28.149696000000002,0.9570327439871914,1.3083875864679226,4.542681392859326,10.84647456994301,479.1181140375371,108.83807486826217,16.083524159864318,477.83142144336813,107.79136827991032,9.139414782292086,3.3497101191325656,3.180631349657185,2.718437655316862,5.723823722063971,1.7368011252980233,538.8547031855014,1582.4630232120546,1250.1001542214753,9563.481107324485,3858.6111705477015,447.6656456915011,8.374066504671822,4.486643427426626,491.71040829957707,0.0
0.38948,9.863019999999999,0.71486,0.36472,9.737020000000001,0.8540000000000001,0.023759999999999986,0.0895,-0.14159999999999998,0.029920000000000006,-0.010620000000000008,-0.0005800000000000023,-1.1420000000000001,-28.618,32.466,144.876,-83.67200000000001,-35.04,0.11779376042416782,0.19914642962852216,9.913004640862882,0.546,9.940999999999999,0.6715,0.4135,9.756,0.9765,0.20800000000000002,0.10200000000000001,-0.2835,0.0315,0.0235,-0.018500000000000003,-1.3,-29.2,32.8,160.95,-84.6,-18.55,0.2645051962528652,0.12166505981141743,10.01019512856693,0.8557120132380986,1.826989671454111,0.9284445489096267,0.2658607936496091,0.05451109611812995,0.6509395056378128,0.8101990017273534,1.7318190811975713,0.8046593813533774,0.33831836131076304,0.3884651793919244,0.1894307356265081,2.703707824451451,2.2603265250843734,2.7729125482063077,38.39933624426339,2.625341120692699,37.3940476546736,0.8115825056158182,0.7316607584088626,1.83271309565497,0.7322430496,3.3378912596000005,0.8620092804000001,0.07068196160000001,0.002971459600000002,0.42372224,0.6564224223999999,2.99919733,0.6474767200000001,0.1144593136,0.15090519559999999,0.035884003600000006,7.310036,5.109075999999999,7.689044,1474.509024,6.892415999999996,1398.3148,0.6586661634216496,0.535327465395432,3.3588372909852233,20.17371240182188,493.1565584400473,40.699815857082456,19.691733366884442,486.8532587506377,47.00707655062663,5.521064549868064,4.980736844919215,7.92638010153156,2.496431006886074,4.503611204589749,0.4435436125078496,93.57365714165161,1432.5570135492717,1625.1318409463647,7337.6721179759,4184.208842650077,2093.7738805944437,6.186540755212427,10.57477840982868,495.6587544122946,0.0
0.19361999999999996,9.970080000000001,0.18183999999999997,0.20046,9.786840000000002,0.20879999999999999,-0.05778000000000001,0.17222,0.034260000000000006,-0.009099999999999994,-0.06272,-0.012460000000000004,2.832,-24.142,34.57,153.24,-86.58200000000001,-32.21,0.0465417795322705,0.10978420311642834,9.986380981346082,0.07300000000000001,9.5695,-0.052500000000000005,0.1735,9.7905,0.2515,0.036000000000000004,-0.0405,-0.2865,-0.005,-0.0625,0.018500000000000003,3.1500000000000004,-23.85,34.849999999999994,145.75,-86.65,-39.099999999999994,0.12633572943843635,0.0823628331543001,9.690141050737175,1.0958303498261033,1.646762324562959,1.1098791170213087,0.4550861549201426,0.01527135881315079,0.3125003039998521,0.9557800225993426,1.6314363400390468,1.1629748029944587,0.3663818909280316,0.3410134918152067,0.21390859823765854,4.8420838489229,1.7681730684522936,1.9553260597659918,66.79720652841704,1.3516937522974641,65.63979966453279,0.8970993149743282,1.15970563979659,1.651006812526802,1.2008441556,2.7118261536,1.2318316543999999,0.20710340840000005,0.00023321439999999833,0.09765644,0.9135154515999999,2.6615845316000004,1.3525103924000001,0.13423569000000002,0.11629020160000002,0.04575688840000001,23.445776000000002,3.1264359999999995,3.823299999999999,4461.8668,1.8270759999999981,4308.583299999999,0.8047871809274089,1.3449171709760182,2.7258234950099105,18.158641980662775,498.5236537678707,11.682793811994884,17.58627808561232,489.34218658656675,11.68410548585038,5.785675209891182,9.401034716545102,6.081423541787697,1.0204595706851138,4.92134404138188,1.859821910746103,210.12492212865104,1207.934361428092,1729.668585876267,7922.005979733866,4329.25681722722,2544.263934469359,6.545590490001504,10.017535794158121,499.3416424284962,0.0
0.32702,9.851560000000001,0.56466,0.35768,9.775619999999998,0.57886,-0.06234000000000003,0.08327999999999999,0.005139999999999985,0.004420000000000005,-0.012559999999999995,0.014699999999999998,11.520000000000003,-25.640000000000004,30.588,166.72,-85.834,-34.518,-0.06792247686626891,0.07087717398219598,9.882067804941467,0.4505,9.765,0.4525,0.3385,9.780000000000001,0.5740000000000001,-0.030000000000000002,-0.079,-0.191,0.035,0.0335,0.0195,11.25,-26.2,30.4,171.3,-85.7,-29.45,-0.10607748380094995,0.21238946759988883,9.799567908214502,0.8281804994081905,1.7454409890912954,1.3833201019286896,0.18111537096558095,0.023498842524686266,0.33505301132805837,0.7482341240547641,1.759018192515359,1.3457709018997253,0.27911474987897006,0.3881867158984192,0.18046132549662824,3.2477068833255256,2.3765521244020715,1.876447707771256,20.552488900374087,1.7458075495311622,19.116209770767842,1.1527471438884285,0.9872405336647718,1.776701475439909,0.6858829395999999,3.0465642464,1.9135745044000003,0.0328027776,0.0005521956000000036,0.1122605204,0.5598543044000001,3.0941450016000003,1.8110993203999999,0.0779050436,0.1506889264,0.032566290000000005,10.5476,5.648,3.521056000000001,422.40479999999997,3.0478440000000013,365.4294759999999,1.3288259777429294,0.9746438713107035,3.1566681328303496,17.31857923489625,492.58207300223444,29.011299678774773,18.2800929053838,488.7812229117917,29.898488717581934,4.067834966426371,5.115197700753294,2.64834546414114,1.4156577923639535,2.280177090602581,1.1325450647667437,582.1995121161996,1284.3767813256984,1530.3294140587736,8352.40106090816,4291.848019658819,1775.9927688174487,7.05906905603976,3.9075415578497523,494.1071570194557,0.0
0.4332600000000001,9.76944,1.07632,0.4553800000000001,9.70356,1.20524,-0.01824000000000001,0.08776000000000002,-0.04103999999999999,-0.015819999999999997,0.006139999999999999,-0.007300000000000002,5.992000000000001,-26.724,28.646000000000004,165.43399999999997,-82.17399999999999,-27.236,0.0172420797143972,0.0736711762688947,9.854859814753432,0.502,9.728,1.1105,0.4265,9.708,1.282,0.10999999999999999,-0.026000000000000002,-0.2485,0.0145,-0.006,-0.0175,6.2,-27.25,28.1,172.35,-81.95,-19.05,0.08038436666142629,0.3181982965559602,9.754690253058861,0.6085543791642618,1.5465852599840724,1.2218198138841914,0.1967756987028632,0.06369212196182497,0.5562199406709544,0.5620625431391065,1.5621505760969396,1.1143383141577785,0.32338260250050554,0.24319432641408392,0.19073670333734932,2.2649362021920174,4.443582338609244,2.1470174661609067,22.78442108108082,2.90453507467202,23.36024623157898,0.7539705980997757,0.9572583824225784,1.560270158182556,0.3703384324000001,2.3919259664000005,1.4928436576,0.038720675600000004,0.0040566863999999874,0.3093806224,0.3159143024,2.4403144224000006,1.2417498784,0.10457630759999999,0.059143480400000004,0.03638049,5.129935999999999,19.745424,4.609684,519.129844,8.436323999999997,545.701104,0.5684716627989336,0.9163436107182915,2.434442966515018,21.715272024278907,488.4806329494514,57.143598626554386,23.256511026796463,485.18173913485396,62.54372815362985,4.076279838615021,4.868058254411163,6.07885625276369,3.149455849997742,0.4837809426952632,1.2212826069812797,307.4379513476397,1345.003417081124,1433.9884222383998,8299.015540383187,4109.609128526476,1517.3235092995965,4.887091574702626,4.030423948658208,492.75321718188405,0.0
0.30282000000000003,9.80992,1.03944,0.3466,9.73458,0.9541000000000001,-0.021160000000000016,0.05692,0.0062799999999999835,-0.02902,-0.004879999999999996,-0.007680000000000003,9.268,-27.165999999999993,30.264,169.64999999999998,-83.844,-27.513999999999996,-0.1652556672012291,-0.04920419682933152,9.872193108402499,0.2215,9.4525,1.033,0.3415,9.7595,0.8654999999999999,-0.051000000000000004,-0.326,0.022,-0.0075,-0.035500000000000004,-0.0255,10.350000000000001,-27.9,30.05,182.75,-84.55,-16.65,-0.12223541513074551,-0.0488532060078245,9.563436889920359,0.7246292483746429,1.9648421192553869,1.10265771951227,0.1807564106746978,0.0644167959463989,0.5846515286903815,0.6730723990775436,1.974383405927025,1.0460262145854662,0.3460695011121321,0.3360624727636217,0.19085810855187685,3.5364637704916477,4.258573000431014,1.7228766641869637,29.05933412864101,3.0253700600091884,28.114878694385293,0.8351248214036459,0.9452626645453308,1.9817491742333684,0.5250875476,3.8606045536,1.2158540463999998,0.03267288,0.004149523599999995,0.34181741000000004,0.4530264544,3.8981898336,1.0941708415999998,0.11976409959999999,0.11293798559999998,0.0364268176,12.506576,18.135444000000003,2.968304,844.4449000000002,9.152864000000001,790.446404,0.6974334673244713,0.8935215049833387,3.927329789574637,17.00887701548418,490.5253268193617,53.269111084693385,17.760070341773183,486.7324363223244,50.72296632993382,4.090343724343669,4.334141397663009,6.9436839451378845,1.8653958400478288,1.3409178679229246,1.0155528501920066,474.15243530286784,1363.134367779059,1513.907842174272,8525.882020737994,4193.015555164669,1596.546976285777,9.325835729892496,7.675470282980389,493.6372918422012,0.0
0.35338,9.74302,1.5387600000000001,0.4491199999999999,9.6792,1.3359800000000002,-0.1259,0.07515999999999998,0.24642,-0.07904,-0.00550000000000001,0.0033599999999999975,12.66,-30.243999999999996,27.540000000000006,184.916,-81.71000000000001,-19.171999999999997,-0.18307482296377472,-0.20775749133771756,9.90839213593015,0.382,9.7355,1.2570000000000001,0.4185,9.718,1.2635,-0.048,0.015,0.06899999999999999,-0.0665,0.0405,0.0115,12.75,-30.450000000000003,27.45,185.1,-82.3,-17.049999999999997,0.05048390025250396,-0.12701789898939686,9.71515987459615,1.0747789891880097,1.8944242554401587,1.635551559077243,0.2673173873881009,0.12911405810367824,0.6391162801869469,0.8845451543024809,1.885275888139452,1.5158300840133767,0.35924069702638095,0.39756630893474865,0.23764408345254465,2.7596376573746055,2.269110839073314,2.0898803793518903,12.836453715882747,3.809212517043385,10.640978150527328,1.1235252797122113,1.1640187621590823,1.9919732683489049,1.1551498756,3.5888432596,2.6750289024,0.0714585856,0.016670439999999998,0.4084696196,0.7824201299999999,3.5542651744,2.2977408436000006,0.12905387840000002,0.15805897,0.0564747104,7.615600000000001,5.148864,4.367600000000001,164.774544,14.5101,113.23041599999999,1.2623090541524027,1.3549396786583623,3.9679575018166178,18.620771814394733,487.1567679534288,79.5615840895233,22.893775033195578,483.9707800107111,69.26029396790815,7.107249941986612,4.274111206889158,13.50909810180459,6.946692289597747,2.8025664442750116,1.0804157599350332,635.4800517876834,1513.75761915686,1377.8359883697226,9246.457646647692,4086.934643047091,963.5735088998606,10.51618901575773,11.29581565763953,495.4292793302128,0.0
-0.08161999999999997,9.48678,2.61162,-0.04694000000000001,9.39152,2.68942,0.007320000000000034,0.08802,-0.12502000000000002,0.021360000000000004,0.00962,-0.02452,10.358000000000002,-33.716,25.779999999999994,197.63000000000002,-73.842,1.0939999999999999,-0.051349996758378494,0.0915073031435299,9.889401938642163,-0.0525,9.038499999999999,2.5404999999999998,-0.1345,9.4345,2.6630000000000003,0.0415,-0.387,-0.0925,-0.002,0.0175,-0.0515,10.15,-34.0,25.950000000000003,197.2,-74.2,3.5,0.06170895394962534,0.15679414907191036,9.4614471432373,0.7746757228673169,1.5441040417018537,1.3604880578674698,0.31289694213910113,0.22084956327781136,0.7664739549391095,0.6877982099424219,1.5038851617061724,1.074266847482505,0.2527153149296655,0.27228748704264766,0.18404828062223239,1.7507815397701678,2.3309534529887124,3.6012220148166376,6.69089680087804,4.651326262476114,6.7285484318684965,0.6699799670255138,0.9747231574299324,1.5656575734940454,0.6001224756,2.3842572915999996,1.8509277556,0.09790449639999999,0.048774529600000005,0.5874823236000001,0.47306637759999987,2.2616705796,1.1540492595999998,0.0638650304,0.0741404756,0.0338737696,3.065236,5.433344000000002,12.968800000000002,44.76809999999998,21.63483600000001,45.273364,0.4488731562155085,0.9500852336301768,2.4512836374392624,8.578038733554704,474.4027149988867,133.9161704148996,8.582513629008352,469.62722073799546,136.59850161270796,5.163704904974292,5.984218723782378,9.743129491105107,1.5190678132395858,1.7785689308758916,1.6442870695518994,518.1202386049159,1687.13688355234,1294.0626102923752,9882.074834411354,3694.9607986715387,164.18308814983186,5.52195255996412,10.362801075884637,494.4795210680495,0.0
0.024640000000000013,9.676099999999998,1.28602,-0.02957999999999999,9.69106,1.3764200000000002,0.0623,0.021060000000000034,-0.07556000000000003,0.020720000000000006,-0.0131,0.0038800000000000024,13.364,-28.486,30.29,202.67399999999998,-81.70599999999999,1.2419999999999998,0.05822418641923162,0.0706340449000392,9.768136074942394,0.1315,9.551,1.162,0.011,9.7045,1.394,0.22649999999999998,-0.08349999999999999,-0.08449999999999999,0.0495,0.023,-0.013000000000000001,13.1,-28.9,30.7,200.75,-81.69999999999999,-0.05000000000000002,0.16608962596140187,0.15188122530527384,9.721881697797873,0.869658226201535,1.7521667300802173,1.2572928615084078,0.2628374471037185,0.07767687171867826,0.5330838241777741,0.8073522465442207,1.6900106083690718,1.1823207713645227,0.2596305097633943,0.31303879951213714,0.16374402462380114,3.297135726657306,1.5606421755162199,1.9488714683118538,12.497020604928199,3.185743869177181,10.693831679991975,0.7989048246850309,1.1617493337692701,1.8099096010042963,0.7563054304000002,3.0700882500000013,1.5807853396000004,0.0690835236,0.0060336964,0.2841783636,0.65181765,2.8561358564000003,1.3978824064,0.06740800159999999,0.09799329,0.026812105599999997,10.871104,2.4356039999999997,3.7981000000000007,156.17552399999997,10.148963999999996,114.358036,0.63824891890502,1.3496615145133433,3.2757727638075314,6.851947005719914,483.84386915954417,64.83162363279378,6.521586513849356,484.5580370255385,70.54840434838763,4.843051005211839,6.710844669046926,9.167688752933165,1.9212380573690937,3.027229822906966,1.1071489860376436,672.9928480155226,1424.8880974308856,1515.2325297259904,10138.400114607433,4086.35438201218,268.47367647969065,5.624838614904559,10.703655916123498,488.4358238925748,0.0
0.35039999999999993,9.87044,0.7569400000000001,0.4142,9.75356,0.77226,-0.06384,0.09067999999999998,-0.01738,-0.02254,0.0018799999999999984,0.012400000000000001,15.325999999999999,-28.517999999999997,26.772,178.13600000000002,-84.78200000000001,-31.686,-0.03695431355283699,0.017723543631049596,9.914314713674305,0.3195,9.651,0.59,0.42,9.775500000000001,0.6065,-0.0915,-0.123,-0.174,0.0165,0.006,-0.0005,15.149999999999999,-27.9,27.35,179.65,-85.5,-29.049999999999997,0.0018002802481994207,0.24343312942557382,9.720656498111591,0.6747379046711397,1.870818752952835,1.2291444896349655,0.1816039647144302,0.0587997142850202,0.4846049034006982,0.6501695889535284,1.8695968168565114,1.1499895980399126,0.24590560872009404,0.21718992978496954,0.16019225948840352,2.345447505274846,1.9085795765437712,1.7986706202081577,12.9823997781612,2.737859748051386,13.216853029371249,0.8609861280895884,0.9927859017461963,1.8881518459762396,0.45527124,3.4999628064000006,1.5107961763999997,0.03298,0.003457406400000008,0.23484191240000002,0.42272049440000004,3.4953922576,1.3224760756,0.06046956839999999,0.0471714656,0.025661560000000003,5.501124,3.6426760000000007,3.2352159999999985,168.542704,7.495875999999999,174.68520399999997,0.741297112762701,0.9856238467060081,3.5651173934634817,18.050299396914575,493.5449336977456,41.13741172203008,20.916195588212332,487.6804728915369,40.9779800522713,4.683940884016869,6.774888001415924,5.0788568603657405,2.2750322120348834,2.45645221701404,1.2895425991447416,769.1612937881057,1426.816499639629,1339.7351752951279,8912.436835515484,4239.70668399233,1623.33069675303,6.6195079840575515,6.032899874409211,495.7287108731663,0.0
0.5430800000000001,9.518659999999999,2.37414,0.5825400000000001,9.48562,2.31574,0.03850000000000001,-0.009660000000000028,0.00612000000000001,0.006220000000000001,0.024220000000000005,0.004059999999999997,9.170000000000002,-33.166,24.388,184.25,-75.78999999999999,-14.718,-0.06223101874400815,-0.04404830085423292,9.845522267848555,0.579,9.376000000000001,2.2335000000000003,0.5745,9.516,2.3145,-0.0175,-0.242,-0.14049999999999999,-0.007500000000000001,0.0155,-0.0225,9.350000000000001,-32.849999999999994,24.9,184.0,-76.0,-15.3,-0.06494041727678451,0.06562347466858198,9.715193252299876,0.6419963189925625,1.8539330474426525,1.3263389311936824,0.19760336130744335,0.1723251450021153,0.6504500537320295,0.6462777189413232,1.7494620157065426,1.166774659306586,0.26623668342285217,0.22856117693081648,0.18484657529962517,2.3634931774811623,2.1087067126558883,2.8277651953441962,3.190438841288139,3.8603238206140174,5.490562448420016,0.5865131535281564,0.9583078563091744,1.9855209628887698,0.4121592736000001,3.4370677444,1.7591749603999998,0.0390470884,0.02969595560000006,0.4230852724,0.41767489,3.0606173443999993,1.3613631055999997,0.0708819716,0.0522402116,0.0341682564,5.5861,4.446644000000003,7.996256000000001,10.178900000000002,14.902100000000003,30.146276000000004,0.3439976792615427,0.9183539474638852,3.9422934940707473,28.079446817085906,476.0280576367449,120.57197725981312,29.793501009850086,474.3147620755424,117.72792250652083,3.4880731683054758,4.54836604884972,2.4475118654470807,1.674819182744736,2.6252772621120584,0.5663431905140431,465.1682190261595,1659.6196524649736,1222.82062123277,9212.66991746804,3791.6063685165295,756.1758896938139,4.846451682578995,3.3517364402850043,492.3191460458936,0.0
0.34764,9.86058,0.9013,0.45775999999999994,9.74388,0.82678,-0.12592000000000003,0.11506,0.15640000000000004,0.02012,0.044180000000000004,0.005100000000000002,10.12,-28.252,30.756,172.836,-84.05199999999999,-18.938000000000002,-0.07864477937421681,-0.06648652218188981,9.924362170855686,0.2955,9.712,0.5975,0.4415,9.764,0.8085,-0.122,-0.014,0.0315,-0.004999999999999999,0.026500000000000003,-0.016,10.5,-28.15,30.7,171.65,-84.45,-28.55,-0.04134501911302317,0.022272633780073936,9.768611229691045,0.7772007915590411,1.6943170670214003,1.181905905730232,0.3116536898546205,0.04968003220610872,0.4846995064986141,0.6717173762826149,1.6528274974721349,1.0471770432930623,0.25826309376293005,0.27673848232582327,0.21022076491155672,2.6217551373078303,1.7481693281830568,1.1723753665102319,41.60513314484164,2.6519607840237756,43.462640922981194,0.9152161296713472,0.8611072307946706,1.7184847906794243,0.6040410704000001,2.8707103236,1.39690157,0.0971280224,0.0024681055999999997,0.23493361160000004,0.45120423359999995,2.7318387364,1.09657976,0.0666998256,0.0765841876,0.04419277,6.873599999999999,3.056096,1.3744640000000004,1730.987104,7.032895999999999,1889.0011559999998,0.8376205640106003,0.741505662926866,2.9531899757965046,21.300286630758922,493.0440157134458,46.08256032910347,24.314791437469655,487.19643512940826,43.67356087132529,7.516662881237012,6.7687773377755915,8.871727216164679,1.4360360477423193,2.649684028640051,2.0981829151161175,508.1568098816815,1413.4908764472061,1538.0249101492514,8653.21084033155,4203.409873008967,1365.3808265849852,4.445223918080324,7.140602995319962,496.2368923097577,0.0
0.69792,9.95178,0.74432,0.85148,9.7395,0.64776,-0.16146000000000002,0.19054,0.1015,-0.03266000000000001,-0.018279999999999998,0.0059599999999999966,6.66,-28.253999999999998,30.635999999999996,139.69199999999998,-83.56800000000001,-55.738,-0.18060199132132315,0.0929862551321835,10.010347637717715,0.7484999999999999,10.0105,0.643,0.8295000000000001,9.7485,0.64,-0.0935,0.28,-0.1025,-0.020499999999999997,0.001,-0.005,6.6,-28.2,30.7,141.2,-83.8,-53.400000000000006,0.11645151229330736,0.16837181194780437,9.958431498349949,0.9929828365082652,1.8116504661771817,1.028808406653056,0.23135273847525553,0.036629632812792405,0.33852867293628175,0.9469925704038021,1.8153892718643019,1.0635844536283896,0.28879692588391587,0.2720036793868789,0.16677289468016077,1.9491536624904668,1.0243456447898822,0.8194534764097349,16.248604124662524,1.8568187849114406,16.481102997069097,1.0637672050735025,0.8202137417364413,1.8310909918415998,0.9860149136000002,3.2820774116,1.0584467376,0.053524089599999984,0.0013417299999999982,0.11460166240000001,0.8967949284000001,3.2956382084,1.1312118899999999,0.08340366440000001,0.0739860016,0.027813198399999996,3.799200000000001,1.0492839999999997,0.6715039999999999,264.017136,3.447775999999999,271.626756,1.131600666589891,0.6727505821332938,3.352894220403454,35.97712239965628,497.6274384919931,38.45838052484929,43.133927288328785,486.97612157588907,33.55622786202873,8.48099304458755,10.802439782561756,8.56820592495651,1.968511036944162,2.0631681427967634,1.8073593671094836,336.6969528347761,1412.8869602915279,1531.8840325898263,6994.513260695891,4178.741180548695,2813.7762745275572,11.362403705949227,5.818753407265673,500.55178612007825,0.0
0.38610000000000005,9.737860000000001,0.86216,0.41481999999999997,9.73518,1.04496,0.011199999999999998,0.004299999999999993,-0.20552000000000004,0.007539999999999998,-0.006999999999999998,-0.010800000000000002,6.367999999999999,-28.881999999999998,29.266000000000005,172.674,-83.19200000000001,-20.77,0.019749039264292983,0.14621662544552216,9.789676831914752,0.3795,9.443,0.894,0.3345,9.7385,1.081,-0.08199999999999999,-0.3705,-0.3415,0.053,0.013500000000000002,0.0235,6.1,-28.9,29.8,173.95,-83.15,-20.15,-0.026290509905632413,0.138738463108587,9.609129799618266,0.9187374434516099,1.6869679310526327,0.9547125925638564,0.2883839586384791,0.030043095712659066,0.21839230389370407,0.8059065950840705,1.6847656602625778,1.0107152762276823,0.27719243929082915,0.2816902554225119,0.17003282036124673,1.9481724769639879,0.8449118297195276,1.6665665303251473,13.048276667820929,1.4355263842925352,12.861154691550832,0.8845662082063127,0.8627848808333377,1.7126963984512613,0.84407849,2.8458608004,0.9114761344000002,0.08316530760000003,0.0009025875999999935,0.04769519839999999,0.64948544,2.83843533,1.0215453696,0.07683564840000001,0.07934940000000001,0.028911159999999998,3.795376,0.7138760000000001,2.7774440000000005,170.25752400000005,2.0607359999999995,165.40929999999997,0.7824573767004938,0.7443977505945968,2.933328953267922,21.682880994925235,486.94279467257337,43.360653586409335,22.731935058456838,486.7595397308715,52.44952928606997,2.223201275940654,6.363217987244787,10.53707413976543,1.833819243271859,2.286732944855745,2.296674667954618,320.00787086004294,1444.149232848878,1463.8721814968962,8643.182399164494,4159.723368575022,1116.479668212823,2.62682436517132,7.473385168842596,489.5329328082248,0.0
0.5746600000000001,9.93332,0.9538599999999999,0.6016800000000001,9.71616,1.08314,0.008199999999999985,0.2544,-0.12689999999999999,-0.009099999999999999,0.0522,0.010159999999999997,5.442,-29.031999999999996,30.61,162.90599999999998,-82.586,-29.305999999999997,0.04536794799302588,0.13769226004790328,10.016727781677506,0.5630000000000001,10.231000000000002,0.9545,0.6094999999999999,9.721,1.1155,-0.05450000000000001,0.602,-0.113,-0.0395,0.0975,-0.008,5.65,-29.25,30.65,164.8,-82.4,-28.15,0.21859383691235829,0.2596768261824299,10.316713674849478,0.9971536413211355,1.8645135820368806,1.3117535745710776,0.27128320552514856,0.05220741709757344,0.3937903508213476,0.940943653998474,1.8565510712070379,1.1936909692210962,0.2881466466922702,0.34038301955297356,0.20427250035185843,2.9057246944609187,1.5683673039183137,1.4997666485156949,10.396641957863126,2.4564209736932305,11.465956741589427,0.9808382709974494,1.036927160027718,1.9259383296282986,0.9943153843999998,3.476410897599999,1.7206974403999995,0.07359457759999999,0.002725614400000004,0.15507084040000002,0.8853749599999999,3.4467818799999996,1.4248981299999999,0.08302849,0.1158606,0.0417272544,8.443235999999999,2.459776,2.2493,108.09016400000002,6.034003999999998,131.468164,0.9620437138532659,1.0752179352031483,3.709238449531441,29.34394402390565,496.715843354453,48.77392007640548,30.648814472479078,485.80947426431595,54.94704453414109,4.689501093145404,13.818194973123735,8.075373176279259,3.0152020284043064,4.475426338944461,0.6707342652681698,282.47441880948986,1452.0770202272076,1531.1201643075553,8147.299923863984,4129.686840479286,1487.4151184216928,5.860655655449863,7.934494822486504,500.8817061052974,0.0
0.43851999999999997,9.64742,1.70334,0.51488,9.6448,1.6406200000000002,-0.08668000000000001,0.03136000000000003,0.02748000000000001,-0.025459999999999997,-0.032659999999999995,-0.02902,12.095999999999998,-30.925999999999995,26.787999999999997,186.43,-79.862,-16.824,-0.06785280523865556,-0.07622908827746232,9.817520131561164,0.4355,9.746,1.798,0.516,9.64,1.7125,-0.161,0.12150000000000001,0.0034999999999999996,-0.109,-0.013999999999999999,-0.038000000000000006,12.7,-31.0,26.5,187.9,-79.5,-16.7,0.00630391135430843,-0.011850554537954442,10.006400904153894,0.9626672995381115,1.9489899341966854,1.47463040264332,0.24041502781648239,0.0646937400371938,0.3592892923536687,0.8788942926199943,2.01329972691599,1.5264419050851559,0.35019755624504295,0.41470850533838827,0.2731454184129765,3.4240303736970557,1.3472653784611255,1.9521926134477612,10.41267016667675,2.32825170460584,7.249015381415603,0.9082692698124183,1.2792693999328888,2.051975839336975,0.9267283296,3.7985617636,2.1745348244,0.057799385599999996,0.004185280000000013,0.1290887956,0.7724551776000002,4.0533757904000005,2.3300248895999998,0.12263832840000001,0.1719831444,0.0746084196,11.723984,1.815124,3.8110559999999998,108.42370000000001,5.420756000000001,52.548224,0.8249530664855834,1.6365301976046533,4.210604845222684,22.742969515707582,482.427214657012,85.88305996513354,26.09838284450198,482.24114937751443,82.20977782878943,6.154787700647515,8.340935774809667,9.929365567804531,2.1749608740896664,4.260042218811609,2.0014624631612374,610.5135167120574,1546.3871772678556,1340.2725711690564,9324.924797721398,3993.276376099349,854.5117760823458,6.583946749068918,8.477187236630563,490.94448448100985,0.0
0.32852,9.76436,1.6220400000000001,0.3748,9.66232,1.50596,-0.07838,0.09843999999999997,0.07930000000000001,0.030379999999999994,-0.07351999999999999,0.018179999999999995,19.928,-30.42,23.438000000000002,206.47600000000003,-80.48400000000001,-10.74,-0.022635036572173636,-0.12052797088798853,9.9275652984981,0.298,9.653500000000001,1.4835,0.43100000000000005,9.6665,1.5215,0.1185,-0.017,-0.1395,-0.0515,-0.0825,0.019000000000000003,19.3,-30.65,23.9,204.45,-80.4,-15.1,0.10900867237331116,0.13192723343068077,9.784740416005263,1.0858550960418245,2.0410662778067743,1.6151246510409034,0.5052124305675781,0.07391168784434564,0.3751396518631428,0.9058946051279917,2.026471170878086,1.6160494701586334,0.4399904039862688,0.2836743372249242,0.26087373880864284,2.52309651024292,1.539610340313418,3.058946877603467,13.478761960951754,2.572264372104858,17.9267063344051,0.8841938583607392,1.4084073507790065,2.1675616952045704,1.1790812896,4.1659515504,2.6086276384000002,0.2552396,0.005462937599999991,0.1407297584,0.8206450356,4.106585406400001,2.61161589,0.19359155560000002,0.0804711296,0.06805510760000001,6.366016000000001,2.370399999999999,9.357156,181.677024,6.616543999999999,321.36679999999996,0.7817987791628509,1.9836112657283393,4.6983237025181115,23.58710254842834,488.2310803133492,81.93637626143548,24.178260478988935,483.11957506901757,75.83157982225008,5.17862960130168,5.183858238738848,4.060120515775698,2.5584095097410935,4.108281698299282,1.6073056424728096,999.1226678436112,1521.6041153885224,1175.742951921202,10330.861232485937,4024.743056447293,772.5788334829372,3.677610997763559,7.0838824740277255,496.3922819360199,0.0
1.31178,9.7425,1.5848400000000005,1.37488,9.55634,1.60626,-0.03860000000000002,0.12353999999999989,-0.03393999999999999,-0.006760000000000011,-0.02404000000000001,-0.008420000000000006,23.572,-32.064,18.089999999999996,189.29600000000002,-77.36200000000001,-41.166000000000004,0.04995717445657462,0.08080810724439409,9.997254654935064,1.4845000000000002,9.4805,1.702,1.2974999999999999,9.571,1.553,0.067,0.11,0.22400000000000003,-0.012,0.004,0.001,23.15,-32.150000000000006,18.1,191.5,-77.3,-42.45,0.06242312193613575,0.1758682708612337,9.79166382145388,1.1970370802945078,2.863599023955693,1.6490956231825975,0.37855206458293156,0.11452975333947062,0.4701388650175605,1.063503587205986,2.8311307225912405,1.5317009944502877,0.5688717802809347,0.5375785695133316,0.3768157157019861,2.124997882351886,1.704905862503851,2.6047840601477885,7.897593557533838,2.9615462177720606,9.520453980772135,1.3425476768054427,0.8569004985544708,3.0017603711796315,1.4328977716,8.20019937,2.7195163743999995,0.1433016656,0.013117064399999982,0.2210305524,1.13103988,8.0153011684,2.3461079364,0.3236151024,0.28899071839999996,0.1419900836,4.515616,2.9067039999999995,6.784899999999998,62.37198399999998,8.770755999999999,90.639044,1.8024342644956917,0.7342784644229006,9.01056532598448,66.34530676413539,487.160836742234,79.3382628915804,69.41950413413547,477.8213566364437,80.45775261625266,6.316907033969416,7.504085050125743,4.006751477500612,3.1845710161043925,3.2474952058117705,0.5886437578728981,1178.9963717939722,1603.4630491829382,906.6305367911567,9465.666428199698,3868.4839356902744,2063.7549323106596,5.677740551216766,4.137755977898014,499.88599162578447,0.0
0.6755399999999999,9.81904,1.5141,0.7483399999999999,9.63134,1.6127799999999999,-0.019659999999999997,0.19554,-0.12251999999999999,-0.013019999999999993,-0.12029999999999999,-0.04064,32.919999999999995,-28.817999999999998,3.6720000000000006,231.602,-79.47,-25.232000000000003,-0.0563364211930178,0.21363387242103468,9.962063327283888,0.46799999999999997,9.887,1.5474999999999999,0.745,9.626000000000001,1.689,-0.1295,0.36250000000000004,0.0625,0.018500000000000003,-0.059500000000000004,-0.0195,33.45,-28.799999999999997,5.3,232.25,-78.9,-25.5,-0.22194324375483404,0.00638074723627635,10.094079177238989,1.007652741970169,1.8261075319925715,1.3831119585919283,0.2726902719203602,0.07085918712488888,0.4085690781251073,0.9930497794169233,1.8474881564978975,1.3432637155823126,0.4635672330956967,0.3880437217634116,0.2787648299194143,2.272443618662518,1.740998564043061,6.884708853684373,15.264029481103604,2.5161279776672734,8.994096730633933,1.1395921502603257,1.0678577070863147,1.9222179293379975,1.0153640484,3.3346687184000006,1.91299869,0.0743599844,0.005021024400000017,0.1669286916,0.9861478643999999,3.4132124884,1.8043574096000001,0.2148945796,0.15057793000000003,0.0777098304,5.164,3.0310760000000005,47.399215999999996,232.99059599999998,6.330900000000003,80.893776,1.2986702689349527,1.1403200825836413,3.6949217678684585,34.32383663856467,490.99158491959014,75.97762765157103,37.99258752006204,481.5673938516326,80.69027027567314,5.162077266230478,12.526220977005066,8.59549296020408,1.4134802421894075,6.448458822727437,2.5948597180919313,1647.0355832224454,1441.3778845425982,280.1883946873923,11587.26940635936,3973.612237954548,1273.641630940269,6.093357870075238,11.324829239662712,498.14359266783765,0.0
0.75558,9.64964,1.4870599999999998,0.82674,9.638079999999999,1.50628,-0.08936000000000004,0.024900000000000002,0.006300000000000031,-0.022320000000000003,-0.024460000000000006,-0.0009400000000000007,34.612,-26.292,-10.357999999999999,252.048,-79.716,-27.851999999999997,-0.059975131515099867,0.0630086554674258,9.808078901956016,0.735,9.3915,1.3325,0.8985000000000001,9.6425,1.519,-0.0475,-0.2195,-0.11850000000000002,-0.0565,0.031,-0.0475,34.7,-26.35,-9.95,251.25,-79.3,-28.8,0.006274084371095279,0.2756285448434531,9.634123672120555,1.0069455018023568,2.126221764162901,1.5456728943731919,0.4301263911921704,0.07387227896850083,0.36702904735184105,0.9125020276141858,2.091006162114306,1.4620976608968363,0.4501800279888036,0.514101126627826,0.21342899615563019,1.6008297848303548,1.6385164021150351,3.673586258685101,12.12617400501906,2.5668159263959693,12.193510405129443,1.1133706231401344,1.167249879188219,2.2391110649105475,1.0139392436,4.520818990399999,2.3891046964000004,0.1850087124,0.00545711360000001,0.1347103216,0.8326599504000002,4.37230677,2.1377295700000003,0.20266205759999997,0.2642999684,0.04555193640000001,2.562656,2.6847359999999996,13.495235999999998,147.044096,6.588543999999998,148.681696,1.239594144471451,1.3624722804649119,5.013618361004846,39.877685304160565,482.5115643647367,75.10748167856984,43.513591322563734,481.90788029073303,75.77231920817927,6.6136674884251345,6.135028193379074,4.313017902917003,3.239575413086443,4.278367430819902,1.89353115561616,1731.284375406549,1315.4538673988686,528.0991959334666,12607.44708937582,3986.4352366983294,1436.5376547868195,5.491965182441655,4.462293445342138,490.43056940152013,0.0
0.44567999999999997,9.84358,1.20224,0.5733600000000001,9.669740000000001,1.3135,-0.13190000000000002,0.17583999999999997,-0.07116,0.049240000000000006,-0.006519999999999997,0.014940000000000002,36.34,-26.346000000000004,-5.611999999999999,245.77800000000002,-80.694,-27.354,-0.002864339073327038,0.15197969384389962,9.956357318951175,0.613,9.4805,1.143,0.7345,9.6845,1.3035,-0.049,-0.28500000000000003,-0.253,0.030000000000000002,0.087,-0.014,36.349999999999994,-26.45,-5.8,245.7,-80.75,-29.25,0.12550167192513526,0.3228394639671489,9.6288245545579,1.0886947678757348,1.8282331261630724,1.102731582208472,0.5384511030725074,0.07807606803624273,0.5624127043373043,0.9280801743384027,1.7793742536071493,1.0876793527506166,0.43709328798324054,0.4600620932004722,0.21748263470907278,1.307669683062202,1.6032729025340633,3.7942398448174046,20.668848927794695,2.6748016748910572,24.5490546457496,0.9168244599607446,0.9600734531001189,1.8355716493393168,1.1852562976,3.3424363636000005,1.2160169424,0.28992959040000005,0.006095872400000004,0.31630805,0.86133281,3.1661727343999995,1.1830463744000002,0.19105054240000005,0.2116571296,0.047298696399999986,1.71,2.570484,14.396256000000001,427.2013159999999,7.154564000000004,602.6560840000001,0.8405670903823109,0.9217410353475863,3.36932327985826,28.01219733690465,492.2782474350579,62.45892768932011,33.37401663178397,483.4888590180835,67.05503726097245,8.31413560819426,13.976849789402326,4.89000915545325,3.4859022794923664,6.270504823500461,1.3448331370230078,1817.367003730767,1317.8382744104129,302.3141072702387,12303.768971572701,4035.0071830240954,1562.9511203296493,6.277981243993459,12.328355521810588,497.89185651361055,0.0
0.53872,9.69218,0.8505800000000001,0.62104,9.72712,1.00036,-0.12804,-0.04193999999999999,-0.07363999999999998,0.0010399999999999943,0.03828,0.0058199999999999944,36.97,-26.892000000000003,-0.008000000000000012,233.61599999999999,-82.94200000000001,-32.343999999999994,0.011953448454984951,0.19503302861684307,9.750352610669438,0.5575,9.683499999999999,0.5985,0.5345,9.7425,0.952,-0.1395,-0.056,-0.371,0.042499999999999996,0.131,0.045,36.3,-27.0,-0.6,231.85000000000002,-83.55,-31.6,-0.003927667196304819,0.3254058035045673,9.800532211924242,0.8831685238956378,1.7054535078975328,1.3391146790323822,0.25834016025387924,0.0452007256578918,0.3118907988383114,0.8200652403315238,1.7145493449883558,1.2688025498082829,0.31051440932748997,0.3972680223728056,0.17661151604581168,2.008407329203914,1.844433788456501,2.9289479339858535,10.126111988320098,1.9418640529141067,11.096741143236603,1.0512709166178442,1.070359694318517,1.7536955109374284,0.7799866415999999,2.9085716676,1.7932281236000003,0.0667396384,0.002043105599999998,0.09727587040000002,0.6725069984,2.9396794564,1.6098599104000002,0.0964191984,0.1578218816,0.0311916276,4.033699999999999,3.401936000000001,8.578736,102.53814399999999,3.7708360000000005,123.13766399999999,1.1051705401265226,1.145669875221629,3.0754479450820877,28.309694698255793,484.6693408379839,42.99252543579483,31.80213462118994,486.35627476398076,50.036232562958496,10.644683029693866,7.448751589507448,9.801374604671084,1.1348715799542661,4.443216997700388,1.7473176644758532,1849.4650608285858,1345.464202828989,87.23663953512676,11683.657897323008,4147.151274313207,1638.3283775575512,7.955163669917771,10.935488062009195,487.5835885016613,0.0
0.65676,9.83174,0.7531600000000002,0.7380199999999999,9.726360000000001,0.9046199999999999,-0.08816,0.08068,-0.06092000000000002,-0.004239999999999997,-0.06264,-0.013359999999999999,30.476000000000003,-25.414000000000005,-4.763999999999999,232.75,-82.948,-41.542,0.06890544315972225,0.21973002419430085,9.905577088417937,0.7015,10.056000000000001,0.7004999999999999,0.7195,9.737,0.8665,-0.0895,0.223,-0.0345,0.02,0.0055,0.013,32.8,-26.2,-4.3,232.95,-83.0,-39.3,0.06229865864172307,0.379310454357226,10.24762677397984,1.092928608098443,2.0999701503592854,1.376997434420268,0.19621003949849253,0.049827205420332414,0.4038606635957505,0.9513396104441357,2.075713597199768,1.3793966338946895,0.35060687728565737,0.4538972024588827,0.209947303864565,7.275206113918697,4.626100301549893,4.996148916915908,16.815127118163574,2.3009771837199953,12.8658632046202,1.1021350120329008,1.1190560406122791,2.1264312627029773,1.1944929424,4.4098746324,1.8961219344,0.0384983796,0.0024827504000000038,0.16310343559999999,0.9050470544,4.3085869376,1.9027350736000002,0.1229251824,0.20602267039999997,0.04407787039999999,52.92862399999999,21.400804000000004,24.961504,282.7485,5.2944960000000005,165.53043599999998,1.214701584748762,1.2522864220308307,4.521709915000578,33.06997153008014,491.60750295891404,39.17807903443708,36.96683211804283,486.3185735595201,45.72812994955315,5.854234741702298,5.94146218825515,4.578569890126488,0.688745165628982,3.736398404838039,1.4575691575812906,1544.4218767955729,1280.4652913805137,291.5857367400166,11646.887890147396,4147.5541228525735,2091.181058151229,5.25980086776528,11.796747454438783,495.29641333904897,0.0
0.45598000000000005,9.86972,0.65482,0.6674800000000001,9.753820000000001,0.6147,-0.18919999999999998,0.16515999999999995,-0.011900000000000013,-0.02206000000000001,-6.0000000000004494e-05,0.014659999999999992,36.37,-27.08,-5.132000000000001,222.93399999999997,-84.38799999999999,-52.20399999999999,-0.11330002661115549,0.19728765868934658,9.915530805665131,0.3865,9.746,0.5780000000000001,0.6445000000000001,9.7605,0.5569999999999999,-0.2195,0.54,-0.1,0.011500000000000002,0.1005,0.0315,36.5,-27.299999999999997,-5.2,227.64999999999998,-84.4,-47.5,-0.03887005811435023,0.19140767900182204,9.888684472835283,1.1555005580266935,2.2538801568850104,1.3218327835244517,0.23010086831648421,0.036205905595634524,0.39417439034011326,1.0500956718318575,2.3020126442745705,1.2641247129931446,0.36737481731877053,0.4944087948246876,0.2752740169358525,0.9066973034039533,1.2116104984688765,1.8398304269687464,19.892698258406273,2.0738023049461574,20.62108590739101,1.243986411129956,1.0339590023962073,2.285693591864941,1.3351815396,5.079975761599999,1.7472419076,0.05294640960000001,0.0013108675999999992,0.15537344999999997,1.10270092,5.299262214400001,1.5980112900000003,0.1349642564,0.2444400564,0.0757757844,0.8221000000000005,1.4679999999999995,3.384976,395.71944399999995,4.300655999999996,425.22918400000003,1.5475021910759876,1.0690712186361602,5.224395195892455,23.356867764436608,493.4912328940434,33.13920061151802,33.47186009070199,487.6911403261271,31.41209616891602,10.331962761825354,9.170993842869743,8.449876302052447,3.243106194019286,2.924271875127569,1.2425520028103132,1818.5303197720689,1354.0559444115001,259.16648362899986,11154.266336229099,4219.451826188085,2643.6074362843037,9.267617983449044,11.39583720405767,495.78348743163025,0.0
0.6746800000000002,9.74994,0.65672,0.8815599999999999,9.72914,0.6977200000000002,-0.1815,0.03853999999999996,-0.03283999999999998,-0.005880000000000012,-0.04069999999999999,0.002859999999999997,35.132000000000005,-27.922000000000004,-7.984000000000001,225.49400000000003,-83.10400000000001,-53.666,-0.0827260010795425,0.19175439500541078,9.812062365343369,0.7004999999999999,9.813,0.481,0.8520000000000001,9.7365,0.699,-0.2215,-0.0335,-0.2565,0.027500000000000004,-0.029500000000000002,0.0045000000000000005,34.95,-28.0,-7.550000000000001,227.95,-83.1,-50.65,0.05564312261641672,0.30549266245996715,9.752452860138092,1.1437171405553035,2.1104656397108195,1.2438960895508917,0.2822113505867544,0.044470219248391465,0.4109019367196996,0.9824302570666276,2.120436192956534,1.1481706904463291,0.5038629829626304,0.5269272530435297,0.2739625529155399,1.2376493849228865,1.4241193770186544,3.6810520235389235,16.8957439611282,2.099996190472736,17.022263186779835,1.1845131152730866,0.9469423340585191,2.153435291590548,1.3080888976,4.454065216399999,1.5472774816000001,0.07964324639999999,0.0019776004000000066,0.16884040160000002,0.96516921,4.4962496484,1.3182959344,0.2538779056,0.27765233,0.0750554804,1.531775999999999,2.0281160000000003,13.550144000000003,285.46616400000005,4.409984000000003,289.757444,1.4030713202539524,0.896699784032196,4.637283555067669,34.41877938405481,487.5354873839772,35.17793039458837,44.676676343259274,486.45757228966426,35.77573941913656,9.526253618457678,7.3319628294099735,6.212757985058482,1.774545264155982,2.358862095167162,1.6383202968723574,1756.8388482175365,1396.5808625087361,413.523861507233,11283.835935051156,4155.361420755889,2718.726348872101,8.393009860415567,10.794682962715852,490.6467665687277,0.0
0.7894199999999999,9.9177,0.8805200000000001,0.8891,9.70992,0.9486999999999999,-0.12302000000000003,0.23767999999999995,-0.08690000000000003,-0.007239999999999993,-0.003760000000000001,-0.007439999999999999,34.187999999999995,-27.471999999999998,-12.142000000000003,242.69,-82.08800000000001,-42.053999999999995,-0.0443236002743819,0.1671102526904475,9.998620389598578,0.857,9.698,0.5974999999999999,0.9105000000000001,9.704,0.8965,-0.0115,-0.057999999999999996,-0.48,-0.0675,0.025500000000000002,-0.0205,34.05,-27.45,-12.75,241.64999999999998,-81.55,-42.25,0.14870393215389383,0.346737768586368,9.930715346990945,1.033698468413299,2.2222168323545746,1.5948232032422904,0.36043319769410803,0.040923753493539695,0.25468680766777063,0.906124284852801,2.2040707832553834,1.621893476773367,0.30614065786824196,0.4369938013290348,0.20215035592350564,0.9146890181914289,1.4951976457980398,2.8404288408618865,15.534481001951752,1.9170435571473075,12.657601826570465,1.3274740339420217,1.179748543141106,2.2700704550242827,1.0685325236,4.93824765,2.5434610496000003,0.12991208999999998,0.0016747536000000023,0.06486536999999999,0.8210612196000002,4.8579280176,2.6305384500000004,0.09372210239999999,0.19096358239999997,0.04086476640000001,0.8366560000000001,2.2356160000000003,8.068036,241.3200999999999,3.6750560000000014,160.21488399999998,1.7621873107903034,1.3918066250435621,5.153219870774155,40.959742754311705,495.9623023576258,44.18482181840577,45.71352053224091,485.4971553856571,47.709008787083675,8.35649933140039,14.94877393384406,7.906234757394355,2.3775143972380217,4.134712296089019,1.5709535873300746,1709.5701299885263,1374.1621748838977,612.5179080342855,12143.197132964608,4104.690756830108,2129.5993043959297,5.7640239982086365,10.160894205493053,500.00501770808677,0.0
0.45252,9.8189,-0.04662000000000004,0.3794200000000001,9.789100000000001,0.09539999999999998,0.06491999999999999,0.024640000000000013,-0.10859999999999999,-0.019020000000000002,0.006819999999999994,0.01232,35.134,-25.872,-11.122,210.16000000000003,-86.79399999999998,-76.73600000000002,0.04242513520823461,0.0001889156261130398,9.836155508634313,0.6645,9.838,-0.30400000000000005,0.3345,9.792,0.1615,0.167,0.06899999999999999,-0.29600000000000004,-0.012,-0.020999999999999998,0.0035000000000000005,35.25,-25.9,-11.8,220.2,-86.75,-67.0,0.22398299871682187,-0.05057520688128614,9.815178977161953,0.9181360300086256,1.8347936804992544,1.361132952947654,0.22883864096782258,0.011407453703609632,0.3718462047675087,0.8562062564592717,1.826998136397517,1.3071430526151298,0.3072309548206365,0.3884832912751847,0.1851579261063377,1.2181313558069182,0.8537072097622229,2.719947793616635,47.04295058773418,1.222850767673636,46.85927340452475,1.2351520880218914,1.0120966566234681,1.8379809790319022,0.8429737695999999,3.3664678500000003,1.8526829156,0.0523671236,0.0001301299999999971,0.1382696,0.7330891536000002,3.3379221903999996,1.7086229599999998,0.09439085959999999,0.1509192676,0.034283457600000004,1.483844000000001,0.728816,7.398116000000001,2213.0392,1.4953640000000008,2195.7915040000003,1.5256006805448379,1.0243396423484024,3.37817407928307,23.286357107238388,490.98843740941726,11.145002969546374,20.22234039237675,489.4550870477918,10.58079940391849,5.406975957055848,7.802069141622857,6.222324133503591,1.7460257912450547,3.118932023113664,1.3948074072779526,1757.0997655987444,1293.7270969536444,561.5814278879295,10576.450926498977,4339.802159040774,4008.7371080674034,5.13664274086739,5.81094211540629,491.85239596804064,0.0
0.51972,9.83378,0.80698,0.47385999999999995,9.702839999999998,1.09508,0.04667999999999999,0.12034000000000003,-0.28802000000000005,-0.04223999999999999,0.003860000000000011,0.014620000000000001,28.486,-22.72,-16.878,265.718,-82.488,-30.971999999999998,0.1511492984122566,0.21913006972441662,9.898856150329664,0.6335,9.654499999999999,0.5925,0.505,9.747,0.971,0.2,-0.126,-0.3665,-0.0155,0.022500000000000003,0.009000000000000001,30.65,-23.0,-16.3,262.7,-83.6,-28.25,0.24395190955199964,0.35706643864352067,9.791980063617295,0.8300814668452728,1.7638014433603348,0.960147790498942,0.30897158510128403,0.10392177057768032,0.7039582896734721,0.7056051995273277,1.746124630259822,0.7920296835346514,0.3923215803393945,0.34892732825045386,0.20576704206456387,6.0010335776431045,1.615673234289657,5.082294363769182,21.890150205057978,3.5064877013900957,23.215305640891316,0.7984170912901165,0.6616728155211254,1.7924763013074527,0.6890352415999998,3.1109955316000004,0.9218837796000002,0.09546344040000002,0.010799734400000021,0.4955572736,0.4978786976,3.0489512243999997,0.6273110196,0.1539162224,0.1217502804,0.04234007559999999,36.012404000000004,2.6104000000000007,25.829715999999998,479.1786759999999,12.295455999999996,538.9504160000001,0.6374698516641703,0.4378109147996533,3.212971290748846,27.23263537482396,491.7083504631408,45.19147251989089,24.33093307059839,485.14867511341583,58.215210961904226,4.777084275695073,6.5511327209293935,15.466108723850317,2.3741622539284823,4.8485116611389,1.5696278900129979,1439.194089619924,1136.6987619530316,860.024270481325,13300.759367070314,4125.4490511304775,1669.9910965892248,9.838552512174944,12.166203290342677,494.9544491208273,0.0
0.34753999999999996,9.787279999999999,1.6171999999999997,0.341,9.6662,1.5089999999999997,0.007519999999999995,0.12584,0.09172000000000001,0.0369,-0.0339,0.012719999999999995,34.18000000000001,-21.736000000000004,-12.703999999999999,271.832,-80.80199999999999,-12.753999999999998,-0.03503468477647267,-0.08902555444883724,9.950763848815482,0.461,9.598500000000001,1.597,0.266,9.6745,1.512,0.1195,-0.139,-0.3115,0.093,-0.0485,-0.002,33.8,-21.75,-12.2,271.5,-80.80000000000001,-12.2,0.05024861507884143,0.22795970119370343,9.86781760517081,1.0134520651713135,1.6244983846098462,1.8888886362091333,0.2887193100573635,0.08652236705037601,0.5012312041363746,0.9296412908213577,1.5832802703248718,1.7543753422799808,0.3755951677005443,0.38344283798240386,0.205843536697172,2.2970415755923965,1.1799593213327313,3.44754753411755,7.19856763530079,2.929606799555189,10.249628481071886,1.0811156475555597,1.657829980073352,1.678357715269635,1.0270850884,2.6389950016,3.5679002799999995,0.08335884,0.007486119999999994,0.25123272,0.8642329296000001,2.5067764143999995,3.0778328416,0.14107173,0.14702841,0.042371561599999996,5.2764,1.3923039999999998,11.885584,51.81937600000001,8.582595999999997,105.05488399999999,1.168811043389477,2.7484002428300105,2.816884620405109,19.250157893744593,489.3846997792673,83.33659591923178,18.496804495435494,483.3138472763995,76.20313246625857,3.6991264535807598,7.7638910144463855,10.034093023817286,4.134826633929076,2.4448056677250802,1.271847896308854,1710.450970881668,1087.2084754337034,642.9887393787795,13591.884885102672,4040.734309126048,670.8636486431635,5.368564463191996,8.87934090938029,497.58806558841985,0.0
0.057139999999999996,9.71006,1.6089000000000004,0.14148000000000002,9.627379999999999,1.6491599999999997,-0.07486,0.09697999999999997,-0.0643,-0.038960000000000015,0.06587999999999998,-0.0015799999999999992,35.3,-20.220000000000002,-11.593999999999996,276.252,-79.76599999999999,-6.708000000000001,-0.05136010492356912,0.060009730764001096,9.87737443223855,0.0945,9.472,1.3435,0.096,9.6765,1.5139999999999998,0.065,-0.1265,-0.124,-0.055499999999999994,0.0225,0.0225,36.150000000000006,-21.6,-11.5,272.8,-80.7,-1.5999999999999999,0.03044555720152073,0.2293667929533611,9.516402253173672,1.0632149549362067,1.8487037016244652,1.442636298586723,0.5311694735204575,0.13298464422631662,0.6672378994032039,0.8298999942161707,1.8508123026390333,1.276374901821561,0.37521748146908085,0.49757972788287913,0.2517317691512138,4.3441915243230245,3.758563555402516,4.298670026880408,20.497436327502037,3.6559874179214567,21.863118167361215,0.985169977821268,1.0713035737757466,1.9543296458916517,1.1304260404000002,3.4177053764,2.0811994900000004,0.28214100960000005,0.017684915600000004,0.4452064144000001,0.6887340004000001,3.4255061796000006,1.62913289,0.14078815840000003,0.24758558560000002,0.06336888360000001,18.872,14.126800000000003,18.478564000000002,420.14489600000024,13.366244,477.99593600000003,0.9705598852003576,1.1476913471846864,3.8194043648109886,18.07818968051252,485.54527918043834,81.4387551241825,17.913109280720825,481.37766748100586,83.74249900152743,5.470125735133234,7.098868102118529,7.094613401044664,2.460671596468585,6.881815481268294,1.282727697100642,1771.166549057091,1019.1233587196966,589.6166179183328,13826.058741741295,3989.1712225209717,769.0551614159242,8.812682378219348,6.7108423667027015,493.89509362413924,0.0
0.42436,9.585880000000001,2.44862,0.44140000000000007,9.459140000000001,2.4814999999999996,0.0029800000000000048,0.10014,-0.04668,0.036340000000000004,0.06402,0.011080000000000005,35.132000000000005,-27.238000000000003,-4.956,256.616,-74.88,-10.28,-0.022878386185087845,0.08272154019016865,9.924400517309412,0.494,9.353000000000002,2.351,0.364,9.472999999999999,2.46,0.1625,-0.1445,-0.10200000000000001,0.088,0.07300000000000001,0.025,35.4,-26.9,-4.6,257.35,-74.9,-8.1,0.2150137213109075,0.2017560088367667,9.997361393152463,0.9529776022551631,1.4977663054028154,1.6116860474670616,0.35882023354320475,0.11682585501506078,0.4479433557940111,0.9296047652631736,1.4757520389279495,1.5583656495187515,0.41670443290178716,0.42439667717832097,0.22226874184194234,1.082486027623452,1.1791335802189673,3.475178268808666,6.880417429197155,2.6886427802889696,8.428546731198683,1.0969576303030504,1.3134387671803816,1.5441468454944336,0.9081663104,2.2433039055999995,2.5975319155999994,0.12875196,0.0136482804,0.20065325000000006,0.8641650196000001,2.1778440804,2.4285034976,0.17364258440000005,0.18011253959999998,0.04940339360000001,1.171776000000001,1.390356,12.076863999999999,47.34014399999999,7.2288000000000014,71.0404,1.2033160426800835,1.7251213951323203,2.38438948045041,24.179370242543353,479.33446225968913,122.99540263859332,24.71472687033347,472.9636242153604,124.491099061181,6.889101489339872,8.398973846683505,6.078577412132784,4.4461105631769655,6.421778528581064,1.8212816807635206,1756.8593182897314,1362.221674377756,258.906784874465,12832.007300313328,3744.4560928016303,575.4258847639354,6.416864722117975,6.713939133730351,496.2456472957169,0.0
-0.01038000000000003,9.555380000000001,2.3432399999999998,0.05138,9.557080000000001,2.16268,-0.10482000000000002,-0.015480000000000002,0.046320000000000014,-0.004320000000000002,0.23614000000000002,0.050839999999999996,28.034000000000006,-28.748,10.662,237.36399999999998,-77.12800000000001,-0.9780000000000001,-0.07057228852010529,-0.19501077653169385,9.84745030011549,-0.10650000000000001,9.1615,1.96,-0.061,9.556999999999999,2.1814999999999998,-0.151,-0.46950000000000003,-0.111,-0.026500000000000003,0.2675,0.0545,34.150000000000006,-27.4,6.35,247.5,-77.3,1.4,-0.010807111743128268,0.07841008172838981,9.623382492139218,1.0508328295214229,1.7948608178909027,1.6631513047224535,0.2649203570886918,0.06433594329766211,0.27811950237263117,0.7665585089215304,1.6687332709573452,1.396064044949228,0.3314226570408245,0.4161133984865184,0.21398545371122776,11.55682672709079,3.761076441658691,11.45755453838209,30.880166838927536,1.6562656791710684,6.682792530073038,0.9790769253076742,1.5786898942412515,1.8498311187877363,1.1042496356,3.2215253556000003,2.7660722624,0.0701827956,0.004139113599999994,0.07735045759999999,0.5876119476,2.7846707296000006,1.9489948176000005,0.10984097759999999,0.17315036040000004,0.045789774400000004,133.560244,14.145696000000001,131.27555600000002,953.5847039999999,2.7432160000000003,44.659715999999996,0.958591625669929,2.492261782179454,3.4218751680354886,10.536411204077973,477.81241866279913,118.02358285993574,5.875430975778333,477.8548072067276,108.18999065044345,8.303174000218531,4.7669512412232615,6.8795763559822865,0.9182183944465862,13.449556318105282,3.2207269795830653,1449.4767962084948,1442.3616053867977,648.9771268733398,11909.286198385982,3856.4778715126163,147.3118011465026,7.140844781511163,15.646082190457095,492.3889320050164,0.0
