ACCELEROMETER.X,ACCELEROMETER.Y,ACCELEROMETER.Z,ORIENTATION.Z,ORIENTATION.X,ORIENTATION.Y,Global X,Global Y,Global Z,Time since start in ms ,YYYY-MO-DD HH-MI-SS_SSS
-0.6704,1.6664,9.2512,99.26,-8.32,11.43,-0.5026550839,1.1097891524,9.3448773381,18,2018-07-07 14:53:41:495
-0.6704,1.6664,9.2512,99.26,-8.32,11.43,-0.5026550839,1.1097891524,9.3448773381,41,2018-07-07 14:53:41:518
-0.6704,1.6664,9.2512,101.07,-10.18,4.14,-0.0006476686,-0.0009129982,9.4239601711,65,2018-07-07 14:53:41:542
-0.1149,2.4421,8.7245,101.07,-10.18,4.14,-0.9470865153,0.3397272547,9.0045303706,89,2018-07-07 14:53:41:566
-0.1149,2.4421,8.7245,101.07,-10.18,4.14,-0.9470865153,0.3397272547,9.0045303706,114,2018-07-07 14:53:41:591
-0.1149,2.4421,8.7245,101.07,-10.18,4.14,-0.9470865153,0.3397272547,9.0045303706,138,2018-07-07 14:53:41:615
-0.1149,2.4421,8.7245,101.07,-10.18,4.14,-0.9470865153,0.3397272547,9.0045303706,162,2018-07-07 14:53:41:639
-0.6704,2.9975,8.9735,101.07,-10.18,4.14,-1.3306078974,-0.2815460392,9.3866053028,186,2018-07-07 14:53:41:663
-0.6704,2.9975,8.9735,101.07,-10.18,4.14,-1.3306078974,-0.2815460392,9.3866053028,210,2018-07-07 14:53:41:687
-0.6704,2.9975,8.9735,101.07,-10.18,4.14,-1.3306078974,-0.2815460392,9.3866053028,234,2018-07-07 14:53:41:711
-0.6704,2.9975,8.9735,99.76,-18.42,4.27,-0.0004982186,-0.0004945321,9.4846267279,257,2018-07-07 14:53:41:734
-0.6704,2.9975,8.9735,99.76,-18.42,4.27,-0.0004982186,-0.0004945321,9.4846267279,282,2018-07-07 14:53:41:759
-0.2873,3.2561,9.2895,99.76,-18.42,4.27,-0.221801171,0.3729599501,9.8382541066,305,2018-07-07 14:53:41:782
-0.2873,3.2561,9.2895,99.76,-18.42,4.27,-0.221801171,0.3729599501,9.8382541066,329,2018-07-07 14:53:41:806
-0.2873,3.2561,9.2895,99.76,-18.42,4.27,-0.221801171,0.3729599501,9.8382541066,353,2018-07-07 14:53:41:830
-0.2873,3.2561,9.2895,99.76,-18.42,4.27,-0.221801171,0.3729599501,9.8382541066,377,2018-07-07 14:53:41:854
-0.2873,3.2561,9.2895,99.76,-18.42,4.27,-0.221801171,0.3729599501,9.8382541066,401,2018-07-07 14:53:41:878
-0.1437,3.2178,9.7971,99.76,-18.42,4.27,-0.0623701944,0.5840375337,10.2962646167,426,2018-07-07 14:53:41:903
-0.1437,3.2178,9.7971,101.05,-18.18,0.84,-0.0001014215,-0.000077592,10.3130041658,449,2018-07-07 14:53:41:926
-0.1437,3.2178,9.7971,101.05,-18.18,0.84,-0.0001014215,-0.000077592,10.3130041658,474,2018-07-07 14:53:41:951
-0.1437,3.2178,9.7971,101.05,-18.18,0.84,-0.0001014215,-0.000077592,10.3130041658,498,2018-07-07 14:53:41:975
-0.1437,3.2178,9.7971,101.05,-18.18,0.84,-0.0001014215,-0.000077592,10.3130041658,522,2018-07-07 14:53:41:999
-0.1053,1.9154,9.1363,101.05,-18.18,0.84,1.0063408735,0.2257172841,9.2783701529,546,2018-07-07 14:53:42:023
-0.1053,1.9154,9.1363,101.05,-18.18,0.84,1.0063408735,0.2257172841,9.2783701529,569,2018-07-07 14:53:42:046
-0.1053,1.9154,9.1363,101.05,-18.18,0.84,1.0063408735,0.2257172841,9.2783701529,593,2018-07-07 14:53:42:070
-0.1053,1.9154,9.1363,101.05,-18.18,0.84,1.0063408735,0.2257172841,9.2783701529,618,2018-07-07 14:53:42:095
-0.1053,1.9154,9.1363,101.05,-18.18,0.84,1.0063408735,0.2257172841,9.2783701529,642,2018-07-07 14:53:42:119
1.245,2.1739,9.6917,103.5,-11.84,0.66,-0.4549392838,1.2858808241,9.9168773238,665,2018-07-07 14:53:42:142
1.245,2.1739,9.6917,103.5,-11.84,0.66,-0.4549392838,1.2858808241,9.9168773238,689,2018-07-07 14:53:42:166
1.245,2.1739,9.6917,103.5,-11.84,0.66,-0.4549392838,1.2858808241,9.9168773238,713,2018-07-07 14:53:42:190
1.245,2.1739,9.6917,103.5,-11.84,0.66,-0.4549392838,1.2858808241,9.9168773238,737,2018-07-07 14:53:42:214
1.245,2.1739,9.6917,103.5,-11.84,0.66,-0.4549392838,1.2858808241,9.9168773238,762,2018-07-07 14:53:42:239
-0.0958,2.4229,8.169,103.5,-11.84,0.66,-0.6755235287,-0.1639226318,8.4928782155,786,2018-07-07 14:53:42:263
-0.0958,2.4229,8.169,103.5,-11.84,0.66,-0.6755235287,-0.1639226318,8.4928782155,809,2018-07-07 14:53:42:286
-0.0958,2.4229,8.169,103.5,-11.84,0.66,-0.6755235287,-0.1639226318,8.4928782155,833,2018-07-07 14:53:42:310
-0.0958,2.4229,8.169,104.37,-16.52,0.67,0.0001938831,-0.0002287824,8.5212782468,857,2018-07-07 14:53:42:334
-0.0958,2.4229,8.169,104.37,-16.52,0.67,0.0001938831,-0.0002287824,8.5212782468,882,2018-07-07 14:53:42:359
0.6704,2.9975,9.2895,104.37,-16.52,0.67,-0.4206913047,0.6963588764,9.7502490123,906,2018-07-07 14:53:42:383
0.6704,2.9975,9.2895,104.37,-16.52,0.67,-0.4206913047,0.6963588764,9.7502490123,929,2018-07-07 14:53:42:406
0.6704,2.9975,9.2895,104.37,-16.52,0.67,-0.4206913047,0.6963588764,9.7502490123,954,2018-07-07 14:53:42:431
0.6704,2.9975,9.2895,104.37,-16.52,0.67,-0.4206913047,0.6963588764,9.7502490123,977,2018-07-07 14:53:42:454
0.6704,2.9975,9.2895,104.37,-16.52,0.67,-0.4206913047,0.6963588764,9.7502490123,1002,2018-07-07 14:53:42:479
0.4788,3.4955,8.9639,104.37,-16.52,0.67,-0.9237674376,0.365766638,9.5818652353,1025,2018-07-07 14:53:42:502
0.4788,3.4955,8.9639,102.64,-21.28,-3.06,0.000768653,-0.0002281399,9.6332378906,1050,2018-07-07 14:53:42:527
0.4788,3.4955,8.9639,102.64,-21.28,-3.06,0.000768653,-0.0002281399,9.6332378906,1073,2018-07-07 14:53:42:550
0.4788,3.4955,8.9639,102.64,-21.28,-3.06,0.000768653,-0.0002281399,9.6332378906,1097,2018-07-07 14:53:42:574
0.4788,3.4955,8.9639,102.64,-21.28,-3.06,0.000768653,-0.0002281399,9.6332378906,1121,2018-07-07 14:53:42:598
0.1532,3.7445,10.3525,102.64,-21.28,-3.06,0.3466263287,-0.3318445511,10.9994879936,1145,2018-07-07 14:53:42:622
0.1532,3.7445,10.3525,102.64,-21.28,-3.06,0.3466263287,-0.3318445511,10.9994879936,1170,2018-07-07 14:53:42:647
0.1532,3.7445,10.3525,102.64,-21.28,-3.06,0.3466263287,-0.3318445511,10.9994879936,1193,2018-07-07 14:53:42:670
0.1532,3.7445,10.3525,102.64,-21.28,-3.06,0.3466263287,-0.3318445511,10.9994879936,1218,2018-07-07 14:53:42:695
-0.3543,3.2178,10.7643,102.64,-21.28,-3.06,1.0772547102,-0.7098862642,11.1662663232,1241,2018-07-07 14:53:42:718
-0.3543,3.2178,10.7643,108.52,-16.63,1.89,-0.0011456005,0.0005731303,11.2405479483,1266,2018-07-07 14:53:42:743
-0.3543,3.2178,10.7643,108.52,-16.63,1.89,-0.0011456005,0.0005731303,11.2405479483,1289,2018-07-07 14:53:42:766
-0.3543,3.2178,10.7643,108.52,-16.63,1.89,-0.0011456005,0.0005731303,11.2405479483,1314,2018-07-07 14:53:42:791
-0.3543,3.2178,10.7643,108.52,-16.63,1.89,-0.0011456005,0.0005731303,11.2405479483,1337,2018-07-07 14:53:42:814
-1.0151,2.2889,7.1826,108.52,-16.63,1.89,0.1245890911,-0.7783973549,7.5655673347,1361,2018-07-07 14:53:42:838
-1.0151,2.2889,7.1826,108.52,-16.63,1.89,0.1245890911,-0.7783973549,7.5655673347,1385,2018-07-07 14:53:42:862
-1.0151,2.2889,7.1826,108.52,-16.63,1.89,0.1245890911,-0.7783973549,7.5655673347,1409,2018-07-07 14:53:42:886
-1.0151,2.2889,7.1826,108.52,-16.63,1.89,0.1245890911,-0.7783973549,7.5655673347,1434,2018-07-07 14:53:42:911
-1.0151,2.2889,7.1826,112.03,-17.51,8.04,-9.9276480648669E-05,-0.0006142577,7.6065257242,1457,2018-07-07 14:53:42:934
-0.2203,2.5379,10.5441,112.03,-17.51,8.04,0.2055511146,1.4387574059,10.749662282,1482,2018-07-07 14:53:42:959
-0.2203,2.5379,10.5441,112.03,-17.51,8.04,0.2055511146,1.4387574059,10.749662282,1505,2018-07-07 14:53:42:982
-0.2203,2.5379,10.5441,112.03,-17.51,8.04,0.2055511146,1.4387574059,10.749662282,1529,2018-07-07 14:53:43:006
-0.2203,2.5379,10.5441,112.03,-17.51,8.04,0.2055511146,1.4387574059,10.749662282,1553,2018-07-07 14:53:43:030
-0.2203,2.5379,10.5441,112.03,-17.51,8.04,0.2055511146,1.4387574059,10.749662282,1577,2018-07-07 14:53:43:054
0.0192,2.8156,7.9871,112.03,-17.51,8.04,-0.7102439836,0.9382168982,8.3867181272,1602,2018-07-07 14:53:43:079
0.0192,2.8156,7.9871,112.03,-17.51,8.04,-0.7102439836,0.9382168982,8.3867181272,1625,2018-07-07 14:53:43:102
0.0192,2.8156,7.9871,110.51,-19.42,-0.14,0.0003265063,-0.0002154647,8.4688687708,1650,2018-07-07 14:53:43:127
0.0192,2.8156,7.9871,110.51,-19.42,-0.14,0.0003265063,-0.0002154647,8.4688687708,1673,2018-07-07 14:53:43:150
0.0096,3.3806,8.7819,110.51,-19.42,-0.14,-0.2472037093,-0.1051356505,9.4062826319,1698,2018-07-07 14:53:43:175
0.0096,3.3806,8.7819,110.51,-19.42,-0.14,-0.2472037093,-0.1051356505,9.4062826319,1721,2018-07-07 14:53:43:198
0.0096,3.3806,8.7819,110.51,-19.42,-0.14,-0.2472037093,-0.1051356505,9.4062826319,1746,2018-07-07 14:53:43:223
0.0096,3.3806,8.7819,110.51,-19.42,-0.14,-0.2472037093,-0.1051356505,9.4062826319,1770,2018-07-07 14:53:43:247
0.2203,3.9361,8.7819,110.51,-19.42,-0.14,-0.8115528473,-0.0912901163,9.5914665719,1794,2018-07-07 14:53:43:271
0.2203,3.9361,8.7819,110.51,-19.42,-0.14,-0.8115528473,-0.0912901163,9.5914665719,1817,2018-07-07 14:53:43:294
0.2203,3.9361,8.7819,110.51,-19.42,-0.14,-0.8115528473,-0.0912901163,9.5914665719,1842,2018-07-07 14:53:43:319
0.2203,3.9361,8.7819,108.04,-24.14,-1.44,0.0008641108,-0.0002018842,9.6261717273,1865,2018-07-07 14:53:43:342
0.4693,3.9456,10.4291,108.04,-24.14,-1.44,0.5711200438,0.4037821803,11.1384429121,1889,2018-07-07 14:53:43:366
0.4693,3.9456,10.4291,108.04,-24.14,-1.44,0.5711200438,0.4037821803,11.1384429121,1914,2018-07-07 14:53:43:391
0.4693,3.9456,10.4291,108.04,-24.14,-1.44,0.5711200438,0.4037821803,11.1384429121,1937,2018-07-07 14:53:43:414
0.4693,3.9456,10.4291,108.04,-24.14,-1.44,0.5711200438,0.4037821803,11.1384429121,1962,2018-07-07 14:53:43:439
0.4693,3.9456,10.4291,108.04,-24.14,-1.44,0.5711200438,0.4037821803,11.1384429121,1986,2018-07-07 14:53:43:463
0.996,2.5857,10.3908,108.04,-24.14,-1.44,1.5779923924,1.2864804012,10.5594267513,2009,2018-07-07 14:53:43:486
0.996,2.5857,10.3908,108.04,-24.14,-1.44,1.5779923924,1.2864804012,10.5594267513,2034,2018-07-07 14:53:43:511
0.996,2.5857,10.3908,108.04,-24.14,-1.44,1.5779923924,1.2864804012,10.5594267513,2058,2018-07-07 14:53:43:535
0.996,2.5857,10.3908,108.04,-24.14,-1.44,1.5779923924,1.2864804012,10.5594267513,2081,2018-07-07 14:53:43:558
0.7374,2.241,9.1267,108.04,-24.14,-1.44,1.4533716011,1.0074177821,9.2593365341,2106,2018-07-07 14:53:43:583
0.7374,2.241,9.1267,108.04,-24.14,-1.44,1.4533716011,1.0074177821,9.2593365341,2129,2018-07-07 14:53:43:606
0.7374,2.241,9.1267,108.4,-13.75,-4.62,-0.0003604033,-0.0002494946,9.4266904297,2153,2018-07-07 14:53:43:630
0.7374,2.241,9.1267,108.4,-13.75,-4.62,-0.0003604033,-0.0002494946,9.4266904297,2178,2018-07-07 14:53:43:655
0.7374,2.241,9.1267,108.4,-13.75,-4.62,-0.0003604033,-0.0002494946,9.4266904297,2201,2018-07-07 14:53:43:678
0.4501,2.6432,8.849,108.4,-13.75,-4.62,-0.3553769965,-0.3965702882,9.2309445046,2226,2018-07-07 14:53:43:703
0.4501,2.6432,8.849,108.4,-13.75,-4.62,-0.3553769965,-0.3965702882,9.2309445046,2249,2018-07-07 14:53:43:726
0.4501,2.6432,8.849,108.4,-13.75,-4.62,-0.3553769965,-0.3965702882,9.2309445046,2274,2018-07-07 14:53:43:751
0.4501,2.6432,8.849,108.4,-13.75,-4.62,-0.3553769965,-0.3965702882,9.2309445046,2297,2018-07-07 14:53:43:774
0.4501,2.6432,8.849,108.4,-13.75,-4.62,-0.3553769965,-0.3965702882,9.2309445046,2322,2018-07-07 14:53:43:799
0.1628,3.3902,8.4276,108.4,-13.75,-4.62,-1.0641474552,-0.8983711253,8.9780243459,2345,2018-07-07 14:53:43:822
0.1628,3.3902,8.4276,108.4,-13.75,-4.62,-1.0641474552,-0.8983711253,8.9780243459,2369,2018-07-07 14:53:43:846
0.1628,3.3902,8.4276,108.4,-13.75,-4.62,-1.0641474552,-0.8983711253,8.9780243459,2394,2018-07-07 14:53:43:871
0.1628,3.3902,8.4276,104,-21.91,-1.11,0.0001315391,-0.0004717258,9.0853949501,2451,2018-07-07 14:53:43:928
0.1628,3.3902,8.4276,104,-21.91,-1.11,0.0001315391,-0.0004717258,9.0853949501,2452,2018-07-07 14:53:43:929
0.0479,4.2234,8.3031,104,-21.91,-1.11,-0.7685918732,-0.3080456424,9.2787523943,2466,2018-07-07 14:53:43:943
0.0479,4.2234,8.3031,104,-21.91,-1.11,-0.7685918732,-0.3080456424,9.2787523943,2489,2018-07-07 14:53:43:966
0.0479,4.2234,8.3031,104,-21.91,-1.11,-0.7685918732,-0.3080456424,9.2787523943,2513,2018-07-07 14:53:43:990
0.0479,4.2234,8.3031,104,-21.91,-1.11,-0.7685918732,-0.3080456424,9.2787523943,2538,2018-07-07 14:53:44:015
0.0479,4.2234,8.3031,104,-21.91,-1.11,-0.7685918732,-0.3080456424,9.2787523943,2561,2018-07-07 14:53:44:038
0.3256,4.2329,10.9176,104,-21.91,-1.11,0.1163304217,0.1465395021,11.7124908084,2586,2018-07-07 14:53:44:063
0.3256,4.2329,10.9176,104,-21.91,-1.11,0.1163304217,0.1465395021,11.7124908084,2610,2018-07-07 14:53:44:087
0.3256,4.2329,10.9176,104,-21.91,-1.11,0.1163304217,0.1465395021,11.7124908084,2633,2018-07-07 14:53:44:110
0.3256,4.2329,10.9176,105.27,-21.18,-1.71,-0.000582138,-0.000504968,11.7139851006,2657,2018-07-07 14:53:44:134
0.3256,4.2329,10.9176,105.27,-21.18,-1.71,-0.000582138,-0.000504968,11.7139851006,2681,2018-07-07 14:53:44:158
-0.1149,3.486,9.8258,105.27,-21.18,-1.71,0.3937063983,-0.3155067465,10.4142783915,2705,2018-07-07 14:53:44:182
-0.1149,3.486,9.8258,105.27,-21.18,-1.71,0.3937063983,-0.3155067465,10.4142783915,2729,2018-07-07 14:53:44:206
-0.1149,3.486,9.8258,105.27,-21.18,-1.71,0.3937063983,-0.3155067465,10.4142783915,2753,2018-07-07 14:53:44:230
-0.1149,3.486,9.8258,105.27,-21.18,-1.71,0.3937063983,-0.3155067465,10.4142783915,2777,2018-07-07 14:53:44:254
-0.1149,3.486,9.8258,105.27,-21.18,-1.71,0.3937063983,-0.3155067465,10.4142783915,2801,2018-07-07 14:53:44:278
-1.1396,2.49,7.4603,105.27,-21.18,-1.71,0.7060304293,-1.2187963241,7.8211841049,2826,2018-07-07 14:53:44:303
-1.1396,2.49,7.4603,110.21,-18.26,8.69,-0.0001925777,0.0006178002,7.9470034498,2849,2018-07-07 14:53:44:326
-1.1396,2.49,7.4603,110.21,-18.26,8.69,-0.0001925777,0.0006178002,7.9470034498,2873,2018-07-07 14:53:44:350
-1.1396,2.49,7.4603,110.21,-18.26,8.69,-0.0001925777,0.0006178002,7.9470034498,2897,2018-07-07 14:53:44:374
-1.1396,2.49,7.4603,110.21,-18.26,8.69,-0.0001925777,0.0006178002,7.9470034498,2922,2018-07-07 14:53:44:399
-0.249,2.5762,9.1842,110.21,-18.26,8.69,-0.0096192696,1.2128311505,9.4645277299,2945,2018-07-07 14:53:44:422
-0.249,2.5762,9.1842,110.21,-18.26,8.69,-0.0096192696,1.2128311505,9.4645277299,2970,2018-07-07 14:53:44:447
-0.249,2.5762,9.1842,110.21,-18.26,8.69,-0.0096192696,1.2128311505,9.4645277299,2993,2018-07-07 14:53:44:470
-0.249,2.5762,9.1842,110.21,-18.26,8.69,-0.0096192696,1.2128311505,9.4645277299,3018,2018-07-07 14:53:44:495
-0.249,2.5762,9.1842,110.21,-18.26,8.69,-0.0096192696,1.2128311505,9.4645277299,3043,2018-07-07 14:53:44:520
0.1628,3.2848,7.8147,110.21,-18.26,8.69,-1.1266121663,1.0149252677,8.3418596666,3066,2018-07-07 14:53:44:543
0.1628,3.2848,7.8147,110.21,-18.26,8.69,-1.1266121663,1.0149252677,8.3418596666,3089,2018-07-07 14:53:44:566
0.1628,3.2848,7.8147,110.21,-18.26,8.69,-1.1266121663,1.0149252677,8.3418596666,3114,2018-07-07 14:53:44:591
0.1628,3.2848,7.8147,110.21,-18.26,8.69,-1.1266121663,1.0149252677,8.3418596666,3138,2018-07-07 14:53:44:615
0.1628,3.2848,7.8147,105.07,-22.79,-1.19,-0.000740862,0.000287033,8.4785582701,3162,2018-07-07 14:53:44:639
0.1149,3.869,8.6383,105.07,-22.79,-1.19,-0.1962964774,-0.1196770512,9.4630721754,3185,2018-07-07 14:53:44:662
0.1149,3.869,8.6383,105.07,-22.79,-1.19,-0.1962964774,-0.1196770512,9.4630721754,3210,2018-07-07 14:53:44:687
0.1149,3.869,8.6383,105.07,-22.79,-1.19,-0.1962964774,-0.1196770512,9.4630721754,3233,2018-07-07 14:53:44:710
0.1149,3.869,8.6383,105.07,-22.79,-1.19,-0.1962964774,-0.1196770512,9.4630721754,3258,2018-07-07 14:53:44:735
0.1149,3.869,8.6383,105.07,-22.79,-1.19,-0.1962964774,-0.1196770512,9.4630721754,3281,2018-07-07 14:53:44:758
0.0192,3.9744,9.6247,105.07,-22.79,-1.19,0.1081999111,-0.1579908021,10.4112634092,3305,2018-07-07 14:53:44:782
0.0192,3.9744,9.6247,105.07,-22.79,-1.19,0.1081999111,-0.1579908021,10.4112634092,3329,2018-07-07 14:53:44:806
0.0192,3.9744,9.6247,104.45,-22.44,-0.11,0.0002548991,0.0008111447,10.4130242181,3354,2018-07-07 14:53:44:831
0.3926,3.5721,10.0652,104.45,-22.44,-0.11,0.4304559754,0.4963923303,10.6672670595,3378,2018-07-07 14:53:44:855
0.3926,3.5721,10.0652,104.45,-22.44,-0.11,0.4304559754,0.4963923303,10.6672670595,3402,2018-07-07 14:53:44:879
0.3926,3.5721,10.0652,104.45,-22.44,-0.11,0.4304559754,0.4963923303,10.6672670595,3425,2018-07-07 14:53:44:902
0.3926,3.5721,10.0652,104.45,-22.44,-0.11,0.4304559754,0.4963923303,10.6672670595,3449,2018-07-07 14:53:44:926
0.3926,3.5721,10.0652,104.45,-22.44,-0.11,0.4304559754,0.4963923303,10.6672670595,3473,2018-07-07 14:53:44:950
0.3735,2.2984,8.5042,104.45,-22.44,-0.11,0.9974665965,0.6258743509,8.7382437672,3498,2018-07-07 14:53:44:975
0.3735,2.2984,8.5042,104.45,-22.44,-0.11,0.9974665965,0.6258743509,8.7382437672,3521,2018-07-07 14:53:44:998
0.3735,2.2984,8.5042,104.45,-22.44,-0.11,0.9974665965,0.6258743509,8.7382437672,3545,2018-07-07 14:53:45:022
0.3735,2.2984,8.5042,105.78,-15.11,-2.51,-0.000179201,0.0006880198,8.8172309681,3572,2018-07-07 14:53:45:049
0.3735,2.2984,8.5042,105.78,-15.11,-2.51,-0.000179201,0.0006880198,8.8172309681,3594,2018-07-07 14:53:45:071
1.1301,2.2027,9.8354,105.78,-15.11,-2.51,0.2409499668,0.7937247975,10.1082169802,3618,2018-07-07 14:53:45:095
1.1301,2.2027,9.8354,105.78,-15.11,-2.51,0.2409499668,0.7937247975,10.1082169802,3641,2018-07-07 14:53:45:118
1.1301,2.2027,9.8354,105.78,-15.11,-2.51,0.2409499668,0.7937247975,10.1082169802,3665,2018-07-07 14:53:45:142
1.1301,2.2027,9.8354,105.78,-15.11,-2.51,0.2409499668,0.7937247975,10.1082169802,3690,2018-07-07 14:53:45:167
1.1301,2.2027,9.8354,105.78,-15.11,-2.51,0.2409499668,0.7937247975,10.1082169802,3713,2018-07-07 14:53:45:190
0.1532,3.3902,7.5369,105.78,-15.11,-2.51,-1.211010187,-0.5261734124,8.1595578163,3738,2018-07-07 14:53:45:215
0.1532,3.3902,7.5369,104.32,-24.21,-1.16,-0.0007655134,0.0004117655,8.2656994341,3761,2018-07-07 14:53:45:238
0.1532,3.3902,7.5369,104.32,-24.21,-1.16,-0.0007655134,0.0004117655,8.2656994341,3785,2018-07-07 14:53:45:262
0.1532,3.3902,7.5369,104.32,-24.21,-1.16,-0.0007655134,0.0004117655,8.2656994341,3809,2018-07-07 14:53:45:286
0.1532,3.3902,7.5369,104.32,-24.21,-1.16,-0.0007655134,0.0004117655,8.2656994341,3833,2018-07-07 14:53:45:310
0.5555,3.8882,9.2895,104.32,-24.21,-1.16,0.1679115433,0.4219669896,10.0754771258,3857,2018-07-07 14:53:45:334
0.5555,3.8882,9.2895,104.32,-24.21,-1.16,0.1679115433,0.4219669896,10.0754771258,3882,2018-07-07 14:53:45:359
0.5555,3.8882,9.2895,104.32,-24.21,-1.16,0.1679115433,0.4219669896,10.0754771258,3905,2018-07-07 14:53:45:382
0.5555,3.8882,9.2895,104.32,-24.21,-1.16,0.1679115433,0.4219669896,10.0754771258,3929,2018-07-07 14:53:45:406
0.5555,3.8882,9.2895,105.51,-22.68,-3.42,0.0006248554,0.0005337552,10.0857071673,3953,2018-07-07 14:53:45:430
0.4501,3.8499,10.5632,105.51,-22.68,-3.42,0.5531837163,-0.0341666755,11.2382531861,3977,2018-07-07 14:53:45:454
0.4501,3.8499,10.5632,105.51,-22.68,-3.42,0.5531837163,-0.0341666755,11.2382531861,4002,2018-07-07 14:53:45:479
0.4501,3.8499,10.5632,105.51,-22.68,-3.42,0.5531837163,-0.0341666755,11.2382531861,4025,2018-07-07 14:53:45:502
0.4501,3.8499,10.5632,105.51,-22.68,-3.42,0.5531837163,-0.0341666755,11.2382531861,4049,2018-07-07 14:53:45:526
0.5076,2.7773,11.9327,105.51,-22.68,-3.42,2.0224964709,0.3483679674,12.0891906315,4073,2018-07-07 14:53:45:550
0.5076,2.7773,11.9327,105.51,-22.68,-3.42,2.0224964709,0.3483679674,12.0891906315,4097,2018-07-07 14:53:45:574
0.5076,2.7773,11.9327,105.51,-22.68,-3.42,2.0224964709,0.3483679674,12.0891906315,4121,2018-07-07 14:53:45:598
0.5076,2.7773,11.9327,105.51,-22.68,-3.42,2.0224964709,0.3483679674,12.0891906315,4145,2018-07-07 14:53:45:622
0.5076,2.7773,11.9327,111.65,-13.09,-2.44,0.0001773932,-0.0008688399,12.262152403,4169,2018-07-07 14:53:45:646
0.0287,2.2218,8.6479,111.65,-13.09,-2.44,-0.0671259197,-0.3919067366,8.9199381478,4194,2018-07-07 14:53:45:671
0.0287,2.2218,8.6479,111.65,-13.09,-2.44,-0.0671259197,-0.3919067366,8.9199381478,4218,2018-07-07 14:53:45:695
0.0287,2.2218,8.6479,111.65,-13.09,-2.44,-0.0671259197,-0.3919067366,8.9199381478,4242,2018-07-07 14:53:45:719
0.0287,2.2218,8.6479,111.65,-13.09,-2.44,-0.0671259197,-0.3919067366,8.9199381478,4266,2018-07-07 14:53:45:743
0.0287,2.2218,8.6479,111.65,-13.09,-2.44,-0.0671259197,-0.3919067366,8.9199381478,4289,2018-07-07 14:53:45:766
0.0192,2.4421,8.8777,111.65,-13.09,-2.44,-0.2112082869,-0.4698361162,9.1930638757,4314,2018-07-07 14:53:45:791
0.0192,2.4421,8.8777,111.65,-13.09,-2.44,-0.2112082869,-0.4698361162,9.1930638757,4338,2018-07-07 14:53:45:815
0.0192,2.4421,8.8777,111.14,-15.38,-0.12,-0.0003104887,0.000530269,9.207484888,4361,2018-07-07 14:53:45:838
0.0192,2.4421,8.8777,111.14,-15.38,-0.12,-0.0003104887,0.000530269,9.207484888,4385,2018-07-07 14:53:45:862
0.0192,2.4421,8.8777,111.14,-15.38,-0.12,-0.0003104887,0.000530269,9.207484888,4409,2018-07-07 14:53:45:886
0.4214,3.0454,8.4946,111.14,-15.38,-0.12,-0.7827591095,0.130060298,8.9989244233,4433,2018-07-07 14:53:45:910
0.4214,3.0454,8.4946,111.14,-15.38,-0.12,-0.7827591095,0.130060298,8.9989244233,4458,2018-07-07 14:53:45:935
0.4214,3.0454,8.4946,111.14,-15.38,-0.12,-0.7827591095,0.130060298,8.9989244233,4482,2018-07-07 14:53:45:959
0.4214,3.0454,8.4946,111.14,-15.38,-0.12,-0.7827591095,0.130060298,8.9989244233,4505,2018-07-07 14:53:45:982
0.4214,3.0454,8.4946,111.14,-15.38,-0.12,-0.7827591095,0.130060298,8.9989244233,4529,2018-07-07 14:53:46:006
0.4597,3.5147,8.5617,111.14,-15.38,-0.12,-1.2019443637,0.0088865873,9.1881661851,4553,2018-07-07 14:53:46:030
0.4597,3.5147,8.5617,107.08,-22.29,-3.07,-0.0001330988,0.0004927263,9.266452763,4578,2018-07-07 14:53:46:055
0.4597,3.5147,8.5617,107.08,-22.29,-3.07,-0.0001330988,0.0004927263,9.266452763,4602,2018-07-07 14:53:46:079
0.4597,3.5147,8.5617,107.08,-22.29,-3.07,-0.0001330988,0.0004927263,9.266452763,4625,2018-07-07 14:53:46:102
0.4597,3.5147,8.5617,107.08,-22.29,-3.07,-0.0001330988,0.0004927263,9.266452763,4649,2018-07-07 14:53:46:126
0.498,3.6966,9.9599,107.08,-22.29,-3.07,0.3566989209,0.0718049258,10.6292085078,4673,2018-07-07 14:53:46:150
0.498,3.6966,9.9599,107.08,-22.29,-3.07,0.3566989209,0.0718049258,10.6292085078,4697,2018-07-07 14:53:46:174
0.498,3.6966,9.9599,107.08,-22.29,-3.07,0.3566989209,0.0718049258,10.6292085078,4721,2018-07-07 14:53:46:198
0.498,3.6966,9.9599,107.08,-22.29,-3.07,0.3566989209,0.0718049258,10.6292085078,4745,2018-07-07 14:53:46:222
0.498,3.6966,9.9599,105.75,-20.34,-2.86,6.3822555631976E-05,0.000458149,10.6354343285,4770,2018-07-07 14:53:46:247
1.5036,2.8922,11.5592,105.75,-20.34,-2.86,1.0261779421,1.2504676191,11.9005893974,4793,2018-07-07 14:53:46:270
1.5036,2.8922,11.5592,105.75,-20.34,-2.86,1.0261779421,1.2504676191,11.9005893974,4849,2018-07-07 14:53:46:326
1.5036,2.8922,11.5592,105.75,-20.34,-2.86,1.0261779421,1.2504676191,11.9005893974,4850,2018-07-07 14:53:46:327
1.5036,2.8922,11.5592,105.75,-20.34,-2.86,1.0261779421,1.2504676191,11.9005893974,4865,2018-07-07 14:53:46:342
1.5036,2.8922,11.5592,105.75,-20.34,-2.86,1.0261779421,1.2504676191,11.9005893974,4889,2018-07-07 14:53:46:366
1.743,2.2218,9.979,105.75,-20.34,-2.86,1.0208861309,1.5793250636,10.1989415672,4914,2018-07-07 14:53:46:391
1.743,2.2218,9.979,105.75,-20.34,-2.86,1.0208861309,1.5793250636,10.1989415672,4938,2018-07-07 14:53:46:415
1.743,2.2218,9.979,107.12,-12.37,-9.91,8.78944331406117E-06,-0.0004189443,10.3708671317,4961,2018-07-07 14:53:46:438
1.743,2.2218,9.979,107.12,-12.37,-9.91,8.78944331406117E-06,-0.0004189443,10.3708671317,4986,2018-07-07 14:53:46:463
1.743,2.2218,9.979,107.12,-12.37,-9.91,8.78944331406117E-06,-0.0004189443,10.3708671317,5010,2018-07-07 14:53:46:487
1.0439,2.5953,7.3933,107.12,-12.37,-9.91,-0.8230341212,-0.5088992345,7.84537001,5034,2018-07-07 14:53:46:511
1.0439,2.5953,7.3933,107.12,-12.37,-9.91,-0.8230341212,-0.5088992345,7.84537001,5057,2018-07-07 14:53:46:534
1.0439,2.5953,7.3933,107.12,-12.37,-9.91,-0.8230341212,-0.5088992345,7.84537001,5081,2018-07-07 14:53:46:558
1.0439,2.5953,7.3933,107.12,-12.37,-9.91,-0.8230341212,-0.5088992345,7.84537001,5105,2018-07-07 14:53:46:582
0.8045,2.988,9.347,107.12,-12.37,-9.91,-0.6356397257,-1.0497624564,9.7691214638,5130,2018-07-07 14:53:46:607
0.8045,2.988,9.347,102.93,-17.67,-4.92,0.0006047916,0.000029095,9.8459013241,5153,2018-07-07 14:53:46:630
0.8045,2.988,9.347,102.93,-17.67,-4.92,0.0006047916,0.000029095,9.8459013241,5177,2018-07-07 14:53:46:654
0.8045,2.988,9.347,102.93,-17.67,-4.92,0.0006047916,0.000029095,9.8459013241,5202,2018-07-07 14:53:46:679
0.8045,2.988,9.347,102.93,-17.67,-4.92,0.0006047916,0.000029095,9.8459013241,5226,2018-07-07 14:53:46:703
0.7278,3.6583,8.7628,102.93,-17.67,-4.92,-0.7901264458,-0.2085065427,9.4885057196,5250,2018-07-07 14:53:46:727
0.7278,3.6583,8.7628,102.93,-17.67,-4.92,-0.7901264458,-0.2085065427,9.4885057196,5274,2018-07-07 14:53:46:751
0.7278,3.6583,8.7628,102.93,-17.67,-4.92,-0.7901264458,-0.2085065427,9.4885057196,5297,2018-07-07 14:53:46:774
0.7278,3.6583,8.7628,102.93,-17.67,-4.92,-0.7901264458,-0.2085065427,9.4885057196,5321,2018-07-07 14:53:46:798
0.7278,3.6583,8.7628,102.93,-17.67,-4.92,-0.7901264458,-0.2085065427,9.4885057196,5346,2018-07-07 14:53:46:823
0.7278,3.6583,8.7628,102.88,-22.59,-4.75,0.0001283507,-0.0003105922,9.5236293217,5370,2018-07-07 14:53:46:847
0.6225,3.8211,11.2432,102.88,-22.59,-4.75,0.8451552505,-0.1254297153,11.8603472837,5393,2018-07-07 14:53:46:870
0.6225,3.8211,11.2432,102.88,-22.59,-4.75,0.8451552505,-0.1254297153,11.8603472837,5418,2018-07-07 14:53:46:895
0.6225,3.8211,11.2432,102.88,-22.59,-4.75,0.8451552505,-0.1254297153,11.8603472837,5442,2018-07-07 14:53:46:919
0.6225,3.8211,11.2432,102.88,-22.59,-4.75,0.8451552505,-0.1254297153,11.8603472837,5466,2018-07-07 14:53:46:943
-0.1724,2.4517,11.1282,102.88,-22.59,-4.75,2.1845738203,-0.6220013076,11.1677276779,5489,2018-07-07 14:53:46:966
-0.1724,2.4517,11.1282,102.88,-22.59,-4.75,2.1845738203,-0.6220013076,11.1677276779,5514,2018-07-07 14:53:46:991
-0.1724,2.4517,11.1282,102.88,-22.59,-4.75,2.1845738203,-0.6220013076,11.1677276779,5538,2018-07-07 14:53:47:015
-0.1724,2.4517,11.1282,108,-12.42,0.89,-0.0007404964,0.0002567048,11.3963761466,5562,2018-07-07 14:53:47:039
0.3639,2.0686,7.4124,108,-12.42,0.89,-0.5544657432,0.3234845929,7.6774428287,5586,2018-07-07 14:53:47:063
0.3639,2.0686,7.4124,108,-12.42,0.89,-0.5544657432,0.3234845929,7.6774428287,5609,2018-07-07 14:53:47:086
0.3639,2.0686,7.4124,108,-12.42,0.89,-0.5544657432,0.3234845929,7.6774428287,5633,2018-07-07 14:53:47:110
0.3639,2.0686,7.4124,108,-12.42,0.89,-0.5544657432,0.3234845929,7.6774428287,5657,2018-07-07 14:53:47:134
0.7661,1.8962,10.7643,108,-12.42,0.89,0.1495682053,1.029829939,10.9073240434,5681,2018-07-07 14:53:47:158
0.7661,1.8962,10.7643,108,-12.42,0.89,0.1495682053,1.029829939,10.9073240434,5705,2018-07-07 14:53:47:182
0.7661,1.8962,10.7643,108,-12.42,0.89,0.1495682053,1.029829939,10.9073240434,5730,2018-07-07 14:53:47:207
0.7661,1.8962,10.7643,108.26,-9.97,-4.07,0.0007061202,0.0004118619,10.9568534476,5753,2018-07-07 14:53:47:230
0.7661,1.8962,10.7643,108.26,-9.97,-4.07,0.0007061202,0.0004118619,10.9568534476,5777,2018-07-07 14:53:47:254
1.3408,2.0973,8.4276,108.26,-9.97,-4.07,-0.7954764618,0.5160056827,8.7362354034,5802,2018-07-07 14:53:47:279
1.3408,2.0973,8.4276,108.26,-9.97,-4.07,-0.7954764618,0.5160056827,8.7362354034,5825,2018-07-07 14:53:47:302
1.3408,2.0973,8.4276,108.26,-9.97,-4.07,-0.7954764618,0.5160056827,8.7362354034,5849,2018-07-07 14:53:47:326
1.3408,2.0973,8.4276,108.26,-9.97,-4.07,-0.7954764618,0.5160056827,8.7362354034,5873,2018-07-07 14:53:47:350
1.3408,2.0973,8.4276,108.26,-9.97,-4.07,-0.7954764618,0.5160056827,8.7362354034,5898,2018-07-07 14:53:47:375
0.2107,2.7007,9.0788,108.26,-9.97,-4.07,-0.89854695,-0.7536948245,9.4014542444,5921,2018-07-07 14:53:47:398
0.2107,2.7007,9.0788,108.26,-9.97,-4.07,-0.89854695,-0.7536948245,9.4014542444,5945,2018-07-07 14:53:47:422
0.2107,2.7007,9.0788,108.41,-16.56,-1.33,-0.0003060413,-0.0001892633,9.4743223658,5969,2018-07-07 14:53:47:446
0.2107,2.7007,9.0788,108.41,-16.56,-1.33,-0.0003060413,-0.0001892633,9.4743223658,5993,2018-07-07 14:53:47:470
0.2107,2.7007,9.0788,108.41,-16.56,-1.33,-0.0003060413,-0.0001892633,9.4743223658,6018,2018-07-07 14:53:47:495
0.9098,2.7964,9.3853,108.41,-16.56,-1.33,-0.2185683232,0.6562751135,9.8108601026,6041,2018-07-07 14:53:47:518
0.9098,2.7964,9.3853,108.41,-16.56,-1.33,-0.2185683232,0.6562751135,9.8108601026,6066,2018-07-07 14:53:47:543
0.9098,2.7964,9.3853,108.41,-16.56,-1.33,-0.2185683232,0.6562751135,9.8108601026,6089,2018-07-07 14:53:47:566
0.9098,2.7964,9.3853,108.41,-16.56,-1.33,-0.2185683232,0.6562751135,9.8108601026,6114,2018-07-07 14:53:47:591
0.9098,2.7964,9.3853,108.41,-16.56,-1.33,-0.2185683232,0.6562751135,9.8108601026,6138,2018-07-07 14:53:47:615
0.8045,2.5187,10.343,108.72,-16.52,-5.54,0.5698415871,-0.0157224211,10.6603823717,6161,2018-07-07 14:53:47:638
0.8045,2.5187,10.343,108.72,-16.52,-5.54,0.5698415871,-0.0157224211,10.6603823717,6185,2018-07-07 14:53:47:662
0.8045,2.5187,10.343,108.72,-16.52,-5.54,0.5698415871,-0.0157224211,10.6603823717,6210,2018-07-07 14:53:47:687
0.8045,2.5187,10.343,108.72,-16.52,-5.54,0.5698415871,-0.0157224211,10.6603823717,6233,2018-07-07 14:53:47:710
0.8045,2.5187,10.343,108.72,-16.52,-5.54,0.5698415871,-0.0157224211,10.6603823717,6257,2018-07-07 14:53:47:734
0.9194,1.494,9.4236,108.72,-16.52,-5.54,1.191623479,0.4094496022,9.5023130777,6281,2018-07-07 14:53:47:758
0.9194,1.494,9.4236,108.72,-16.52,-5.54,1.191623479,0.4094496022,9.5023130777,6305,2018-07-07 14:53:47:782
0.9194,1.494,9.4236,108.72,-16.52,-5.54,1.191623479,0.4094496022,9.5023130777,6329,2018-07-07 14:53:47:806
0.9194,1.494,9.4236,118.61,-8.97,-5.57,0.0002972692,0.0006035046,9.585487409,6353,2018-07-07 14:53:47:830
0.9194,1.494,9.4236,118.61,-8.97,-5.57,0.0002972692,0.0006035046,9.585487409,6378,2018-07-07 14:53:47:855
1.9249,1.3791,10.1323,118.61,-8.97,-5.57,-0.2364249715,0.9330695764,10.3607019313,6401,2018-07-07 14:53:47:878
1.9249,1.3791,10.1323,118.61,-8.97,-5.57,-0.2364249715,0.9330695764,10.3607019313,6426,2018-07-07 14:53:47:903
1.9249,1.3791,10.1323,118.61,-8.97,-5.57,-0.2364249715,0.9330695764,10.3607019313,6449,2018-07-07 14:53:47:926
1.9249,1.3791,10.1323,118.61,-8.97,-5.57,-0.2364249715,0.9330695764,10.3607019313,6473,2018-07-07 14:53:47:950
1.9249,1.3791,10.1323,118.61,-8.97,-5.57,-0.2364249715,0.9330695764,10.3607019313,6498,2018-07-07 14:53:47:975
0.8906,1.5036,9.6822,118.61,-8.97,-5.57,0.0525645538,-0.0321294735,9.8384542904,6522,2018-07-07 14:53:47:999
0.8906,1.5036,9.6822,118.61,-8.97,-5.57,0.0525645538,-0.0321294735,9.8384542904,6545,2018-07-07 14:53:48:022
0.8906,1.5036,9.6822,128.79,-8.79,-5.26,0.0003851821,-0.0006784244,9.8386471403,6570,2018-07-07 14:53:48:047
0.8906,1.5036,9.6822,128.79,-8.79,-5.26,0.0003851821,-0.0006784244,9.8386471403,6593,2018-07-07 14:53:48:070
0.8906,1.5036,9.6822,128.79,-8.79,-5.26,0.0003851821,-0.0006784244,9.8386471403,6618,2018-07-07 14:53:48:095
0.4597,1.9345,9.2799,128.79,-8.79,-5.26,-0.138251871,-0.6152883818,9.4695546346,6642,2018-07-07 14:53:48:119
0.4597,1.9345,9.2799,128.79,-8.79,-5.26,-0.138251871,-0.6152883818,9.4695546346,6666,2018-07-07 14:53:48:143
0.4597,1.9345,9.2799,128.79,-8.79,-5.26,-0.138251871,-0.6152883818,9.4695546346,6690,2018-07-07 14:53:48:167
0.4597,1.9345,9.2799,128.79,-8.79,-5.26,-0.138251871,-0.6152883818,9.4695546346,6713,2018-07-07 14:53:48:190
0.4597,1.9345,9.2799,128.79,-8.79,-5.26,-0.138251871,-0.6152883818,9.4695546346,6737,2018-07-07 14:53:48:214
0.0766,2.4804,8.916,143.4,-15.55,-0.49,0.0001221395,0.0007472709,9.2549071928,6762,2018-07-07 14:53:48:239
0.0766,2.4804,8.916,143.4,-15.55,-0.49,0.0001221395,0.0007472709,9.2549071928,6786,2018-07-07 14:53:48:263
0.0766,2.4804,8.916,143.4,-15.55,-0.49,0.0001221395,0.0007472709,9.2549071928,6810,2018-07-07 14:53:48:287
0.0766,2.4804,8.916,143.4,-15.55,-0.49,0.0001221395,0.0007472709,9.2549071928,6834,2018-07-07 14:53:48:311
0.2203,3.1412,9.0405,143.4,-15.55,-0.49,-0.4738528182,-0.3982386971,9.5531763946,6858,2018-07-07 14:53:48:335
0.2203,3.1412,9.0405,143.4,-15.55,-0.49,-0.4738528182,-0.3982386971,9.5531763946,6882,2018-07-07 14:53:48:359
0.2203,3.1412,9.0405,143.4,-15.55,-0.49,-0.4738528182,-0.3982386971,9.5531763946,6905,2018-07-07 14:53:48:382
0.2203,3.1412,9.0405,143.4,-15.55,-0.49,-0.4738528182,-0.3982386971,9.5531763946,6930,2018-07-07 14:53:48:407
0.2203,3.1412,9.0405,163.41,-19.15,-1.4,0.0003816854,-0.0009774116,9.5732078573,6953,2018-07-07 14:53:48:430
-0.2011,3.6679,8.3318,163.41,-19.15,-1.4,0.1781392992,-0.8191345455,9.0669789812,6978,2018-07-07 14:53:48:455
-0.2011,3.6679,8.3318,163.41,-19.15,-1.4,0.1781392992,-0.8191345455,9.0669789812,7002,2018-07-07 14:53:48:479
-0.2011,3.6679,8.3318,163.41,-19.15,-1.4,0.1781392992,-0.8191345455,9.0669789812,7026,2018-07-07 14:53:48:503
-0.2011,3.6679,8.3318,163.41,-19.15,-1.4,0.1781392992,-0.8191345455,9.0669789812,7049,2018-07-07 14:53:48:526
-0.2011,3.6679,8.3318,163.41,-19.15,-1.4,0.1781392992,-0.8191345455,9.0669789812,7073,2018-07-07 14:53:48:550
-0.8045,2.9401,8.9447,163.41,-19.15,-1.4,1.02291095,-0.1487410468,9.3931142673,7097,2018-07-07 14:53:48:574
-0.8045,2.9401,8.9447,163.41,-19.15,-1.4,1.02291095,-0.1487410468,9.3931142673,7121,2018-07-07 14:53:48:598
-0.8045,2.9401,8.9447,163.41,-19.15,-1.4,1.02291095,-0.1487410468,9.3931142673,7145,2018-07-07 14:53:48:622
-0.8045,2.9401,8.9447,184,-18.13,5.14,-0.0001195364,0.000454155,9.449818312,7170,2018-07-07 14:53:48:647
-0.8045,2.9401,8.9447,184,-18.13,5.14,-0.0001195364,0.000454155,9.449818312,7194,2018-07-07 14:53:48:671
-0.1341,3.0071,8.9639,184,-18.13,5.14,-0.6625828681,-0.1224689087,9.4317613275,7240,2018-07-07 14:53:48:717
-0.1341,3.0071,8.9639,184,-18.13,5.14,-0.6625828681,-0.1224689087,9.4317613275,7241,2018-07-07 14:53:48:718
-0.1341,3.0071,8.9639,184,-18.13,5.14,-0.6625828681,-0.1224689087,9.4317613275,7265,2018-07-07 14:53:48:742
-0.1341,3.0071,8.9639,184,-18.13,5.14,-0.6625828681,-0.1224689087,9.4317613275,7289,2018-07-07 14:53:48:766
-0.1341,3.0071,8.9639,184,-18.13,5.14,-0.6625828681,-0.1224689087,9.4317613275,7314,2018-07-07 14:53:48:791
-0.3256,2.6624,7.8434,184,-18.13,5.14,-0.3711763524,-0.116469982,8.2802159114,7337,2018-07-07 14:53:48:814
-0.3256,2.6624,7.8434,204.59,-18.73,2.38,-8.65388427089275E-05,-0.0007550606,8.2893493172,7361,2018-07-07 14:53:48:838
-0.3256,2.6624,7.8434,204.59,-18.73,2.38,-8.65388427089275E-05,-0.0007550606,8.2893493172,7386,2018-07-07 14:53:48:863
-0.3256,2.6624,7.8434,204.59,-18.73,2.38,-8.65388427089275E-05,-0.0007550606,8.2893493172,7410,2018-07-07 14:53:48:887
-0.3256,2.6624,7.8434,204.59,-18.73,2.38,-8.65388427089275E-05,-0.0007550606,8.2893493172,7434,2018-07-07 14:53:48:911
-0.7949,3.2848,8.3318,204.59,-18.73,2.38,0.5853121915,-0.2018853228,8.9698004574,7457,2018-07-07 14:53:48:934
-0.7949,3.2848,8.3318,204.59,-18.73,2.38,0.5853121915,-0.2018853228,8.9698004574,7481,2018-07-07 14:53:48:958
-0.7949,3.2848,8.3318,204.59,-18.73,2.38,0.5853121915,-0.2018853228,8.9698004574,7505,2018-07-07 14:53:48:982
-0.7949,3.2848,8.3318,204.59,-18.73,2.38,0.5853121915,-0.2018853228,8.9698004574,7529,2018-07-07 14:53:49:006
-0.7949,3.2848,8.3318,218.36,-21.43,5.45,-0.0001798898,0.0001897121,8.9911438773,7554,2018-07-07 14:53:49:031
-1.2163,3.3423,8.983,218.36,-21.43,5.45,0.1574133045,0.3773613548,9.6528474265,7577,2018-07-07 14:53:49:054
-1.2163,3.3423,8.983,218.36,-21.43,5.45,0.1574133045,0.3773613548,9.6528474265,7601,2018-07-07 14:53:49:078
-1.2163,3.3423,8.983,218.36,-21.43,5.45,0.1574133045,0.3773613548,9.6528474265,7626,2018-07-07 14:53:49:103
-1.2163,3.3423,8.983,218.36,-21.43,5.45,0.1574133045,0.3773613548,9.6528474265,7649,2018-07-07 14:53:49:126
-1.2163,3.3423,8.983,218.36,-21.43,5.45,0.1574133045,0.3773613548,9.6528474265,7674,2018-07-07 14:53:49:151
-0.8715,3.9648,8.4563,218.36,-21.43,5.45,0.4134215389,-0.4185771518,9.3617325736,7697,2018-07-07 14:53:49:174
-0.8715,3.9648,8.4563,218.36,-21.43,5.45,0.4134215389,-0.4185771518,9.3617325736,7722,2018-07-07 14:53:49:199
-0.8715,3.9648,8.4563,218.36,-21.43,5.45,0.4134215389,-0.4185771518,9.3617325736,7745,2018-07-07 14:53:49:222
-0.8715,3.9648,8.4563,233.68,-25,5.88,0.0008534665,0.0001252452,9.3802004369,7770,2018-07-07 14:53:49:247
-0.8715,3.9648,8.4563,233.68,-25,5.88,0.0008534665,0.0001252452,9.3802004369,7793,2018-07-07 14:53:49:270
-0.5171,4.3479,9.0309,233.68,-25,5.88,-0.1453312394,-0.4030116023,10.0272250453,7818,2018-07-07 14:53:49:295
-0.5171,4.3479,9.0309,233.68,-25,5.88,-0.1453312394,-0.4030116023,10.0272250453,7842,2018-07-07 14:53:49:319
-0.5171,4.3479,9.0309,233.68,-25,5.88,-0.1453312394,-0.4030116023,10.0272250453,7866,2018-07-07 14:53:49:343
-0.5171,4.3479,9.0309,233.68,-25,5.88,-0.1453312394,-0.4030116023,10.0272250453,7890,2018-07-07 14:53:49:367
-0.5171,4.3479,9.0309,233.68,-25,5.88,-0.1453312394,-0.4030116023,10.0272250453,7914,2018-07-07 14:53:49:391
0.8523,3.371,9.9216,233.68,-25,5.88,-1.9734897819,-0.8630153489,10.2902257234,7938,2018-07-07 14:53:49:415
0.8523,3.371,9.9216,239.01,-18.7,-4.91,0.0003017073,-0.000151499,10.5132394026,7961,2018-07-07 14:53:49:438
0.8523,3.371,9.9216,239.01,-18.7,-4.91,0.0003017073,-0.000151499,10.5132394026,7985,2018-07-07 14:53:49:462
0.8523,3.371,9.9216,239.01,-18.7,-4.91,0.0003017073,-0.000151499,10.5132394026,8010,2018-07-07 14:53:49:487
0.8523,3.371,9.9216,239.01,-18.7,-4.91,0.0003017073,-0.000151499,10.5132394026,8033,2018-07-07 14:53:49:510
0.0766,2.2889,8.1403,239.01,-18.7,-4.91,-0.0528969196,0.7554932754,8.4223421141,8057,2018-07-07 14:53:49:534
0.0766,2.2889,8.1403,239.01,-18.7,-4.91,-0.0528969196,0.7554932754,8.4223421141,8081,2018-07-07 14:53:49:558
0.0766,2.2889,8.1403,239.01,-18.7,-4.91,-0.0528969196,0.7554932754,8.4223421141,8106,2018-07-07 14:53:49:583
0.0766,2.2889,8.1403,239.01,-18.7,-4.91,-0.0528969196,0.7554932754,8.4223421141,8130,2018-07-07 14:53:49:607
0.5842,2.4708,9.3087,239.01,-18.7,-4.91,-0.4459955716,0.51830538,9.6244732559,8154,2018-07-07 14:53:49:631
0.5842,2.4708,9.3087,239.01,-18.7,-4.91,-0.4459955716,0.51830538,9.6244732559,8177,2018-07-07 14:53:49:654
0.5842,2.4708,9.3087,239.01,-18.7,-4.91,-0.4459955716,0.51830538,9.6244732559,8202,2018-07-07 14:53:49:679
0.5842,2.4708,9.3087,239.01,-18.7,-4.91,-0.4459955716,0.51830538,9.6244732559,8226,2018-07-07 14:53:49:703
0.5842,2.4708,9.3087,253.63,-14.84,-3.59,-0.000486387,-4.1579271950476E-05,9.6487324417,8249,2018-07-07 14:53:49:726
0.1628,2.9592,7.8626,253.63,-14.84,-3.59,0.9066464863,0.077458199,8.3531933784,8273,2018-07-07 14:53:49:750
0.1628,2.9592,7.8626,253.63,-14.84,-3.59,0.9066464863,0.077458199,8.3531933784,8299,2018-07-07 14:53:49:776
0.1628,2.9592,7.8626,253.63,-14.84,-3.59,0.9066464863,0.077458199,8.3531933784,8322,2018-07-07 14:53:49:799
0.1628,2.9592,7.8626,253.63,-14.84,-3.59,0.9066464863,0.077458199,8.3531933784,8346,2018-07-07 14:53:49:823
0.1628,2.9592,7.8626,253.63,-14.84,-3.59,0.9066464863,0.077458199,8.3531933784,8370,2018-07-07 14:53:49:847
0.3639,3.3423,8.9064,253.63,-14.84,-3.59,0.964717659,-0.0806650306,9.4704892403,8394,2018-07-07 14:53:49:871
0.3639,3.3423,8.9064,253.63,-14.84,-3.59,0.964717659,-0.0806650306,9.4704892403,8417,2018-07-07 14:53:49:894
0.3639,3.3423,8.9064,253.63,-14.84,-3.59,0.964717659,-0.0806650306,9.4704892403,8442,2018-07-07 14:53:49:919
0.3639,3.3423,8.9064,263.94,-20.55,-2.34,0.000643664,-2.20907982402818E-05,9.5198399695,8465,2018-07-07 14:53:49:942
0.3639,3.3423,8.9064,263.94,-20.55,-2.34,0.000643664,-2.20907982402818E-05,9.5198399695,8490,2018-07-07 14:53:49:967
0.4118,3.8499,9.5002,263.94,-20.55,-2.34,0.2630105432,-0.0516240735,10.2554019765,8514,2018-07-07 14:53:49:991
0.4118,3.8499,9.5002,263.94,-20.55,-2.34,0.2630105432,-0.0516240735,10.2554019765,8538,2018-07-07 14:53:50:015
0.4118,3.8499,9.5002,263.94,-20.55,-2.34,0.2630105432,-0.0516240735,10.2554019765,8562,2018-07-07 14:53:50:039
0.4118,3.8499,9.5002,263.94,-20.55,-2.34,0.2630105432,-0.0516240735,10.2554019765,8586,2018-07-07 14:53:50:063
0.4118,3.8499,9.5002,263.94,-20.55,-2.34,0.2630105432,-0.0516240735,10.2554019765,8610,2018-07-07 14:53:50:087
0.4597,3.8211,10.3238,263.94,-20.55,-2.34,-0.0532399843,-0.0323629176,11.0176718905,8633,2018-07-07 14:53:50:110
0.4597,3.8211,10.3238,269.5,-20.29,-2.55,0.0004476709,6.96009308755949E-05,11.0178480446,8657,2018-07-07 14:53:50:134
0.4597,3.8211,10.3238,269.5,-20.29,-2.55,0.0004476709,6.96009308755949E-05,11.0178480446,8682,2018-07-07 14:53:50:159
0.4597,3.8211,10.3238,269.5,-20.29,-2.55,0.0004476709,6.96009308755949E-05,11.0178480446,8705,2018-07-07 14:53:50:182
0.4597,3.8211,10.3238,269.5,-20.29,-2.55,0.0004476709,6.96009308755949E-05,11.0178480446,8729,2018-07-07 14:53:50:206
-0.4884,2.0877,10.4291,269.5,-20.29,-2.55,-1.6388762416,0.9662581013,10.4758571299,8753,2018-07-07 14:53:50:230
-0.4884,2.0877,10.4291,269.5,-20.29,-2.55,-1.6388762416,0.9662581013,10.4758571299,8777,2018-07-07 14:53:50:254
-0.4884,2.0877,10.4291,269.5,-20.29,-2.55,-1.6388762416,0.9662581013,10.4758571299,8801,2018-07-07 14:53:50:278
-0.4884,2.0877,10.4291,269.5,-20.29,-2.55,-1.6388762416,0.9662581013,10.4758571299,8825,2018-07-07 14:53:50:302
-0.4884,2.0877,10.4291,269.5,-20.29,2.68,-1.6622605308,0.0147306986,10.5166451682,8849,2018-07-07 14:53:50:326
-0.067,2.1261,9.5193,272.75,-11.31,2.68,0.2372317841,-0.3672154693,9.744266857,8873,2018-07-07 14:53:50:350
-0.067,2.1261,9.5193,272.75,-11.31,2.68,0.2372317841,-0.3672154693,9.744266857,8897,2018-07-07 14:53:50:374
-0.067,2.1261,9.5193,272.75,-11.31,2.68,0.2372317841,-0.3672154693,9.744266857,8922,2018-07-07 14:53:50:399
-0.067,2.1261,9.5193,272.75,-11.31,2.68,0.2372317841,-0.3672154693,9.744266857,8945,2018-07-07 14:53:50:422
-0.067,2.1261,9.5193,272.75,-11.31,2.68,0.2372317841,-0.3672154693,9.744266857,8969,2018-07-07 14:53:50:446
-0.1053,2.5091,8.0732,272.75,-11.31,2.68,0.8898999003,-0.2298689843,8.4046693901,8993,2018-07-07 14:53:50:470
-0.1053,2.5091,8.0732,272.75,-11.31,2.68,0.8898999003,-0.2298689843,8.4046693901,9018,2018-07-07 14:53:50:495
-0.1053,2.5091,8.0732,272.75,-11.31,2.68,0.8898999003,-0.2298689843,8.4046693901,9041,2018-07-07 14:53:50:518
-0.1053,2.5091,8.0732,275.64,-17.26,0.75,0.0005570395,-0.0003308011,8.4547754979,9066,2018-07-07 14:53:50:543
-0.1053,2.5091,8.0732,275.64,-17.26,0.75,0.0005570395,-0.0003308011,8.4547754979,9090,2018-07-07 14:53:50:567
-0.0096,3.1891,8.6095,275.64,-17.26,0.75,0.4989151772,-0.0543264642,9.1674464002,9114,2018-07-07 14:53:50:591
-0.0096,3.1891,8.6095,275.64,-17.26,0.75,0.4989151772,-0.0543264642,9.1674464002,9138,2018-07-07 14:53:50:615
-0.0096,3.1891,8.6095,275.64,-17.26,0.75,0.4989151772,-0.0543264642,9.1674464002,9161,2018-07-07 14:53:50:638
-0.0096,3.1891,8.6095,275.64,-17.26,0.75,0.4989151772,-0.0543264642,9.1674464002,9185,2018-07-07 14:53:50:662
-0.0096,3.1891,8.6095,275.64,-17.26,0.75,0.4989151772,-0.0543264642,9.1674464002,9210,2018-07-07 14:53:50:687
0.2777,3.6775,8.9639,275.64,-17.26,0.75,0.8882274533,-0.3092140001,9.6471791444,9233,2018-07-07 14:53:50:710
0.2777,3.6775,8.9639,276.18,-22.3,-1.77,-0.0005018993,-0.0007542209,9.6929162758,9257,2018-07-07 14:53:50:734
0.2777,3.6775,8.9639,276.18,-22.3,-1.77,-0.0005018993,-0.0007542209,9.6929162758,9282,2018-07-07 14:53:50:759
0.2777,3.6775,8.9639,276.18,-22.3,-1.77,-0.0005018993,-0.0007542209,9.6929162758,9305,2018-07-07 14:53:50:782
0.2777,3.6775,8.9639,276.18,-22.3,-1.77,-0.0005018993,-0.0007542209,9.6929162758,9330,2018-07-07 14:53:50:807
0.2969,3.5051,9.8545,276.18,-22.3,-1.77,-0.4960196474,-0.0460435608,10.4516453427,9357,2018-07-07 14:53:50:834
0.2969,3.5051,9.8545,276.18,-22.3,-1.77,-0.4960196474,-0.0460435608,10.4516453427,9377,2018-07-07 14:53:50:854
0.2969,3.5051,9.8545,276.18,-22.3,-1.77,-0.4960196474,-0.0460435608,10.4516453427,9402,2018-07-07 14:53:50:879
0.2969,3.5051,9.8545,276.18,-22.3,-1.77,-0.4960196474,-0.0460435608,10.4516453427,9425,2018-07-07 14:53:50:902
0.2969,3.5051,9.8545,272.52,-19.57,-1.73,0.0002440357,0.0007502805,10.4635101781,9450,2018-07-07 14:53:50:927
0.3831,2.2697,10.9846,272.52,-19.57,-1.73,-1.539245345,-0.1190975042,11.1164868737,9473,2018-07-07 14:53:50:950
0.3831,2.2697,10.9846,272.52,-19.57,-1.73,-1.539245345,-0.1190975042,11.1164868737,9498,2018-07-07 14:53:50:975
0.3831,2.2697,10.9846,272.52,-19.57,-1.73,-1.539245345,-0.1190975042,11.1164868737,9521,2018-07-07 14:53:50:998
0.3831,2.2697,10.9846,272.52,-19.57,-1.73,-1.539245345,-0.1190975042,11.1164868737,9546,2018-07-07 14:53:51:023
1.9249,2.0303,9.6151,272.52,-19.57,-1.73,-1.2525239506,-1.6904524074,9.7903554849,9569,2018-07-07 14:53:51:046
1.9249,2.0303,9.6151,272.52,-19.57,-1.73,-1.2525239506,-1.6904524074,9.7903554849,9594,2018-07-07 14:53:51:071
1.9249,2.0303,9.6151,263.05,-11.7,-11.32,-0.0004045936,-7.20574596106693E-05,10.0138656842,9651,2018-07-07 14:53:51:128
1.9249,2.0303,9.6151,263.05,-11.7,-11.32,-0.0004045936,-7.20574596106693E-05,10.0138656842,9654,2018-07-07 14:53:51:131
1.9249,2.0303,9.6151,263.05,-11.7,-11.32,-0.0004045936,-7.20574596106693E-05,10.0138656842,9665,2018-07-07 14:53:51:142
0.4022,2.4134,8.418,263.05,-11.7,-11.32,0.8206638226,1.1672542752,8.6494518177,9689,2018-07-07 14:53:51:166
0.4022,2.4134,8.418,263.05,-11.7,-11.32,0.8206638226,1.1672542752,8.6494518177,9714,2018-07-07 14:53:51:191
0.4022,2.4134,8.418,263.05,-11.7,-11.32,0.8206638226,1.1672542752,8.6494518177,9737,2018-07-07 14:53:51:214
0.4022,2.4134,8.418,263.05,-11.7,-11.32,0.8206638226,1.1672542752,8.6494518177,9761,2018-07-07 14:53:51:238
0.4022,2.4134,8.418,263.05,-11.7,-11.32,0.8206638226,1.1672542752,8.6494518177,9786,2018-07-07 14:53:51:263
0.8619,3.055,9.0692,263.05,-11.7,-11.32,1.2585422195,0.7885529031,9.4931839259,9809,2018-07-07 14:53:51:286
0.8619,3.055,9.0692,263.05,-11.7,-11.32,1.2585422195,0.7885529031,9.4931839259,9833,2018-07-07 14:53:51:310
0.8619,3.055,9.0692,267.21,-18.54,-5.43,-0.0002358032,0.0001939836,9.6086567821,9857,2018-07-07 14:53:51:334
0.8619,3.055,9.0692,267.21,-18.54,-5.43,-0.0002358032,0.0001939836,9.6086567821,9881,2018-07-07 14:53:51:358
0.8619,3.055,9.0692,267.21,-18.54,-5.43,-0.0002358032,0.0001939836,9.6086567821,9905,2018-07-07 14:53:51:382
0.6704,3.7158,9.0788,267.21,-18.54,-5.43,0.6375710851,0.1608880267,9.8106489793,9930,2018-07-07 14:53:51:407
0.6704,3.7158,9.0788,267.21,-18.54,-5.43,0.6375710851,0.1608880267,9.8106489793,9953,2018-07-07 14:53:51:430
0.6704,3.7158,9.0788,267.21,-18.54,-5.43,0.6375710851,0.1608880267,9.8106489793,9978,2018-07-07 14:53:51:455
0.6704,3.7158,9.0788,267.21,-18.54,-5.43,0.6375710851,0.1608880267,9.8106489793,10001,2018-07-07 14:53:51:478
0.6704,3.7158,9.0788,267.21,-18.54,-5.43,0.6375710851,0.1608880267,9.8106489793,10026,2018-07-07 14:53:51:503
1.063,3.7445,10.659,267.21,-18.54,-5.43,0.1416015461,-0.056532729,11.3464656745,10049,2018-07-07 14:53:51:526
1.063,3.7445,10.659,267.21,-18.54,-5.43,0.1416015461,-0.056532729,11.3464656745,10073,2018-07-07 14:53:51:550
1.063,3.7445,10.659,267.21,-18.54,-5.43,0.1416015461,-0.056532729,11.3464656745,10098,2018-07-07 14:53:51:575
1.063,3.7445,10.659,267.21,-18.54,-5.43,0.1416015461,-0.056532729,11.3464656745,10121,2018-07-07 14:53:51:598
1.063,3.7445,10.659,267.21,-18.54,-5.43,0.1416015461,-0.056532729,11.3464656745,10146,2018-07-07 14:53:51:623
0.5171,3.2178,10.7356,268.55,-19.27,-5.7,-0.4907542003,0.5643128953,11.1944382566,10170,2018-07-07 14:53:51:647
0.5171,3.2178,10.7356,268.55,-19.27,-5.7,-0.4907542003,0.5643128953,11.1944382566,10193,2018-07-07 14:53:51:670
0.5171,3.2178,10.7356,268.55,-19.27,-5.7,-0.4907542003,0.5643128953,11.1944382566,10217,2018-07-07 14:53:51:694
0.5171,3.2178,10.7356,268.55,-19.27,-5.7,-0.4907542003,0.5643128953,11.1944382566,10241,2018-07-07 14:53:51:718
0.5171,3.2178,10.7356,268.55,-19.27,-5.7,-0.4907542003,0.5643128953,11.1944382566,10265,2018-07-07 14:53:51:742
-0.2394,2.2505,7.1347,268.55,-19.27,-5.7,-0.1866659859,0.9518612223,7.4219352411,10289,2018-07-07 14:53:51:766
-0.2394,2.2505,7.1347,268.55,-19.27,-5.7,-0.1866659859,0.9518612223,7.4219352411,10314,2018-07-07 14:53:51:791
-0.2394,2.2505,7.1347,268.55,-19.27,-5.7,-0.1866659859,0.9518612223,7.4219352411,10337,2018-07-07 14:53:51:814
-0.2394,2.2505,7.1347,271.85,-17.5,1.92,-0.0003201759,0.0002140241,7.4850522077,10361,2018-07-07 14:53:51:838
-0.2394,2.2505,7.1347,271.85,-17.5,1.92,-0.0003201759,0.0002140241,7.4850522077,10386,2018-07-07 14:53:51:863
-0.2203,2.739,10.2185,271.85,-17.5,1.92,-0.4568410801,-0.1370044214,10.5707578421,10410,2018-07-07 14:53:51:887
-0.2203,2.739,10.2185,271.85,-17.5,1.92,-0.4568410801,-0.1370044214,10.5707578421,10433,2018-07-07 14:53:51:910
-0.2203,2.739,10.2185,271.85,-17.5,1.92,-0.4568410801,-0.1370044214,10.5707578421,10457,2018-07-07 14:53:51:934
-0.2203,2.739,10.2185,271.85,-17.5,1.92,-0.4568410801,-0.1370044214,10.5707578421,10481,2018-07-07 14:53:51:958
-0.2203,2.739,10.2185,271.85,-17.5,1.92,-0.4568410801,-0.1370044214,10.5707578421,10505,2018-07-07 14:53:51:982
0.3448,3.3136,7.9104,271.85,-17.5,1.92,0.8056136205,-0.5839336177,8.5254482806,10529,2018-07-07 14:53:52:006
0.3448,3.3136,7.9104,273.4,-22.71,-2.5,-0.0001794049,0.0005653302,8.5833128691,10554,2018-07-07 14:53:52:031
0.3448,3.3136,7.9104,273.4,-22.71,-2.5,-0.0001794049,0.0005653302,8.5833128691,10577,2018-07-07 14:53:52:054
0.3448,3.3136,7.9104,273.4,-22.71,-2.5,-0.0001794049,0.0005653302,8.5833128691,10602,2018-07-07 14:53:52:079
0.3448,3.3136,7.9104,273.4,-22.71,-2.5,-0.0001794049,0.0005653302,8.5833128691,10625,2018-07-07 14:53:52:102
0.3926,3.62,8.0445,273.4,-22.71,-2.5,0.232018551,-0.0276186048,8.8271127564,10650,2018-07-07 14:53:52:127
0.3926,3.62,8.0445,273.4,-22.71,-2.5,0.232018551,-0.0276186048,8.8271127564,10674,2018-07-07 14:53:52:151
0.3926,3.62,8.0445,273.4,-22.71,-2.5,0.232018551,-0.0276186048,8.8271127564,10697,2018-07-07 14:53:52:174
0.3926,3.62,8.0445,273.4,-22.71,-2.5,0.232018551,-0.0276186048,8.8271127564,10721,2018-07-07 14:53:52:198
0.3926,3.62,8.0445,273.4,-22.71,-2.5,0.232018551,-0.0276186048,8.8271127564,10746,2018-07-07 14:53:52:223
0.316,3.869,10.4483,272.49,-20.31,-1.73,0.0002199901,-0.0004167154,11.1461199378,10770,2018-07-07 14:53:52:247
0.316,3.869,10.4483,272.49,-20.31,-1.73,0.0002199901,-0.0004167154,11.1461199378,10793,2018-07-07 14:53:52:270
0.316,3.869,10.4483,272.49,-20.31,-1.73,0.0002199901,-0.0004167154,11.1461199378,10817,2018-07-07 14:53:52:294
0.316,3.869,10.4483,272.49,-20.31,-1.73,0.0002199901,-0.0004167154,11.1461199378,10842,2018-07-07 14:53:52:319
0.8811,2.6432,11.904,272.49,-20.31,-1.73,-1.6361356152,-0.592963097,12.1012195445,10865,2018-07-07 14:53:52:342
0.8811,2.6432,11.904,272.49,-20.31,-1.73,-1.6361356152,-0.592963097,12.1012195445,10890,2018-07-07 14:53:52:367
0.8811,2.6432,11.904,272.49,-20.31,-1.73,-1.6361356152,-0.592963097,12.1012195445,10914,2018-07-07 14:53:52:391
0.8811,2.6432,11.904,272.49,-20.31,-1.73,-1.6361356152,-0.592963097,12.1012195445,10937,2018-07-07 14:53:52:414
0.8811,2.6432,11.904,269.08,-12.49,-4.23,-0.0008762683,-0.0006423307,12.2257129964,10962,2018-07-07 14:53:52:439
0.8523,2.2984,7.4891,269.08,-12.49,-4.23,0.6103024133,-0.3074183215,7.8503949964,10985,2018-07-07 14:53:52:462
0.8523,2.2984,7.4891,269.08,-12.49,-4.23,0.6103024133,-0.3074183215,7.8503949964,11009,2018-07-07 14:53:52:486
0.8523,2.2984,7.4891,269.08,-12.49,-4.23,0.6103024133,-0.3074183215,7.8503949964,11034,2018-07-07 14:53:52:511
0.8523,2.2984,7.4891,269.08,-12.49,-4.23,0.6103024133,-0.3074183215,7.8503949964,11057,2018-07-07 14:53:52:534
0.8523,2.2984,7.4891,269.08,-12.49,-4.23,0.6103024133,-0.3074183215,7.8503949964,11082,2018-07-07 14:53:52:559
0.5171,2.4038,9.1363,269.08,-12.49,-4.23,0.3706369638,0.1522740981,9.4528866163,11105,2018-07-07 14:53:52:582
0.5171,2.4038,9.1363,269.08,-12.49,-4.23,0.3706369638,0.1522740981,9.4528866163,11130,2018-07-07 14:53:52:607
0.5171,2.4038,9.1363,268.73,-14.72,-3.24,-0.0003013091,0.0001035486,9.4613753989,11153,2018-07-07 14:53:52:630
0.5171,2.4038,9.1363,268.73,-14.72,-3.24,-0.0003013091,0.0001035486,9.4613753989,11178,2018-07-07 14:53:52:655
0.5171,2.4038,9.1363,268.73,-14.72,-3.24,-0.0003013091,0.0001035486,9.4613753989,11201,2018-07-07 14:53:52:678
0.7374,2.9784,8.5234,268.73,-14.72,-3.24,0.7019457071,-0.2701154107,9.0275845479,11225,2018-07-07 14:53:52:702
0.7374,2.9784,8.5234,268.73,-14.72,-3.24,0.7019457071,-0.2701154107,9.0275845479,11249,2018-07-07 14:53:52:726
0.7374,2.9784,8.5234,268.73,-14.72,-3.24,0.7019457071,-0.2701154107,9.0275845479,11274,2018-07-07 14:53:52:751
0.7374,2.9784,8.5234,268.73,-14.72,-3.24,0.7019457071,-0.2701154107,9.0275845479,11297,2018-07-07 14:53:52:774
0.7374,2.9784,8.5234,268.73,-14.72,-3.24,0.7019457071,-0.2701154107,9.0275845479,11321,2018-07-07 14:53:52:798
0.4788,3.5913,8.849,268.73,-14.72,-3.24,1.2218463432,-0.0049842141,9.4835938758,11345,2018-07-07 14:53:52:822
0.4788,3.5913,8.849,276.17,-22.06,-3.1,-8.48727970881313E-06,0.0004457281,9.5619812765,11370,2018-07-07 14:53:52:847
0.4788,3.5913,8.849,276.17,-22.06,-3.1,-8.48727970881313E-06,0.0004457281,9.5619812765,11394,2018-07-07 14:53:52:871
0.4788,3.5913,8.849,276.17,-22.06,-3.1,-8.48727970881313E-06,0.0004457281,9.5619812765,11417,2018-07-07 14:53:52:894
0.4788,3.5913,8.849,276.17,-22.06,-3.1,-8.48727970881313E-06,0.0004457281,9.5619812765,11441,2018-07-07 14:53:52:918
0.6895,3.984,9.9407,276.17,-22.06,-3.1,-0.03319941,-0.1553780575,10.7303279632,11466,2018-07-07 14:53:52:943
0.6895,3.984,9.9407,276.17,-22.06,-3.1,-0.03319941,-0.1553780575,10.7303279632,11489,2018-07-07 14:53:52:966
0.6895,3.984,9.9407,276.17,-22.06,-3.1,-0.03319941,-0.1553780575,10.7303279632,11514,2018-07-07 14:53:52:991
0.6895,3.984,9.9407,276.17,-22.06,-3.1,-0.03319941,-0.1553780575,10.7303279632,11537,2018-07-07 14:53:53:014
0.6895,3.984,9.9407,276.28,-21.79,-3.97,0.0003893817,0.0004355294,10.7315042002,11561,2018-07-07 14:53:53:038
0.2873,3.553,9.4715,276.28,-21.79,-3.97,-0.2547672691,0.343332514,10.1110275919,11586,2018-07-07 14:53:53:063
0.2873,3.553,9.4715,276.28,-21.79,-3.97,-0.2547672691,0.343332514,10.1110275919,11609,2018-07-07 14:53:53:086
0.2873,3.553,9.4715,276.28,-21.79,-3.97,-0.2547672691,0.343332514,10.1110275919,11634,2018-07-07 14:53:53:111
0.2873,3.553,9.4715,276.28,-21.79,-3.97,-0.2547672691,0.343332514,10.1110275919,11658,2018-07-07 14:53:53:135
0.2873,3.553,9.4715,276.28,-21.79,-3.97,-0.2547672691,0.343332514,10.1110275919,11681,2018-07-07 14:53:53:158
-0.814,2.1835,7.1251,276.28,-21.79,-3.97,-0.729368789,1.2329619762,7.3583384126,11705,2018-07-07 14:53:53:182
-0.814,2.1835,7.1251,276.28,-21.79,-3.97,-0.729368789,1.2329619762,7.3583384126,11730,2018-07-07 14:53:53:207
-0.814,2.1835,7.1251,280.44,-16.93,6.52,0.00057141,-0.0002201365,7.4964870363,11753,2018-07-07 14:53:53:230
-0.814,2.1835,7.1251,280.44,-16.93,6.52,0.00057141,-0.0002201365,7.4964870363,11777,2018-07-07 14:53:53:254
-0.814,2.1835,7.1251,280.44,-16.93,6.52,0.00057141,-0.0002201365,7.4964870363,11801,2018-07-07 14:53:53:278
0.3256,2.7677,10.8409,280.44,-16.93,6.52,-0.1883753451,-1.6153551906,11.0745850395,11826,2018-07-07 14:53:53:303
0.3256,2.7677,10.8409,280.44,-16.93,6.52,-0.1883753451,-1.6153551906,11.0745850395,11849,2018-07-07 14:53:53:326
0.3256,2.7677,10.8409,280.44,-16.93,6.52,-0.1883753451,-1.6153551906,11.0745850395,11873,2018-07-07 14:53:53:350
0.3256,2.7677,10.8409,280.44,-16.93,6.52,-0.1883753451,-1.6153551906,11.0745850395,11897,2018-07-07 14:53:53:374
0.3256,2.7677,10.8409,280.44,-16.93,6.52,-0.1883753451,-1.6153551906,11.0745850395,11921,2018-07-07 14:53:53:398
0.8428,3.1029,7.5369,280.44,-16.93,6.52,1.1090255637,-1.5173213375,7.9756479434,11946,2018-07-07 14:53:53:423
0.8428,3.1029,7.5369,278.99,-22.25,-6.38,0.0002427255,-2.70830644057973E-05,8.1940931042,11969,2018-07-07 14:53:53:446
0.8428,3.1029,7.5369,278.99,-22.25,-6.38,0.0002427255,-2.70830644057973E-05,8.1940931042,11993,2018-07-07 14:53:53:470
0.249,3.5338,8.5425,278.99,-22.25,-6.38,-0.0646006213,0.7003103435,9.2211410288,12055,2018-07-07 14:53:53:532
0.249,3.5338,8.5425,278.99,-22.25,-6.38,-0.0646006213,0.7003103435,9.2211410288,12056,2018-07-07 14:53:53:533
0.249,3.5338,8.5425,278.99,-22.25,-6.38,-0.0646006213,0.7003103435,9.2211410288,12066,2018-07-07 14:53:53:543
0.249,3.5338,8.5425,278.99,-22.25,-6.38,-0.0646006213,0.7003103435,9.2211410288,12089,2018-07-07 14:53:53:566
0.249,3.5338,8.5425,278.99,-22.25,-6.38,-0.0646006213,0.7003103435,9.2211410288,12113,2018-07-07 14:53:53:590
0.249,3.5338,8.5425,278.99,-22.25,-6.38,-0.0646006213,0.7003103435,9.2211410288,12137,2018-07-07 14:53:53:614
0.249,3.5338,8.5425,278.99,-22.25,-6.38,-0.0646006213,0.7003103435,9.2211410288,12161,2018-07-07 14:53:53:638
0.4693,3.9744,10.0365,278.99,-22.25,-6.38,-0.2179944693,0.6224651113,10.7848247875,12186,2018-07-07 14:53:53:663
0.4693,3.9744,10.0365,278.99,-22.25,-6.38,-0.2179944693,0.6224651113,10.7848247875,12209,2018-07-07 14:53:53:686
0.4693,3.9744,10.0365,278.99,-22.25,-6.38,-0.2179944693,0.6224651113,10.7848247875,12233,2018-07-07 14:53:53:710
0.4693,3.9744,10.0365,278.68,-21.58,-2.68,0.0002771743,0.0005457274,10.8049724537,12257,2018-07-07 14:53:53:734
0.4693,3.9744,10.0365,278.68,-21.58,-2.68,0.0002771743,0.0005457274,10.8049724537,12281,2018-07-07 14:53:53:758
1.6089,3.1508,12.3254,278.68,-21.58,-2.68,-1.451855668,-1.2644218649,12.6777339252,12305,2018-07-07 14:53:53:782
1.6089,3.1508,12.3254,278.68,-21.58,-2.68,-1.451855668,-1.2644218649,12.6777339252,12329,2018-07-07 14:53:53:806
1.6089,3.1508,12.3254,278.68,-21.58,-2.68,-1.451855668,-1.2644218649,12.6777339252,12353,2018-07-07 14:53:53:830
1.6089,3.1508,12.3254,278.68,-21.58,-2.68,-1.451855668,-1.2644218649,12.6777339252,12377,2018-07-07 14:53:53:854
0.814,2.1644,7.0294,278.68,-21.58,-2.68,-0.5041021059,-0.5670016636,7.3609834873,12401,2018-07-07 14:53:53:878
0.814,2.1644,7.0294,278.68,-21.58,-2.68,-0.5041021059,-0.5670016636,7.3609834873,12426,2018-07-07 14:53:53:903
0.814,2.1644,7.0294,278.68,-21.58,-2.68,-0.5041021059,-0.5670016636,7.3609834873,12449,2018-07-07 14:53:53:926
0.814,2.1644,7.0294,275.1,-17.01,-6.61,-0.0004458658,0.0005313031,7.3999788675,12473,2018-07-07 14:53:53:950
0.814,2.1644,7.0294,275.1,-17.01,-6.61,-0.0004458658,0.0005313031,7.3999788675,12498,2018-07-07 14:53:53:975
1.1396,2.4229,10.1131,275.1,-17.01,-6.61,-0.6605138662,-0.0267221824,10.4406384641,12521,2018-07-07 14:53:53:998
1.1396,2.4229,10.1131,275.1,-17.01,-6.61,-0.6605138662,-0.0267221824,10.4406384641,12545,2018-07-07 14:53:54:022
1.1396,2.4229,10.1131,275.1,-17.01,-6.61,-0.6605138662,-0.0267221824,10.4406384641,12569,2018-07-07 14:53:54:046
1.1396,2.4229,10.1131,275.1,-17.01,-6.61,-0.6605138662,-0.0267221824,10.4406384641,12593,2018-07-07 14:53:54:070
1.1396,2.4229,10.1131,275.1,-17.01,-6.61,-0.6605138662,-0.0267221824,10.4406384641,12617,2018-07-07 14:53:54:094
0.7757,3.2274,7.7189,275.1,-17.01,-6.61,0.8033034154,0.1901448128,8.3616856574,12641,2018-07-07 14:53:54:118
0.7757,3.2274,7.7189,276.01,-22.59,-5.74,-0.0002614803,0.0001640858,8.4023352923,12666,2018-07-07 14:53:54:143
0.7757,3.2274,7.7189,276.01,-22.59,-5.74,-0.0002614803,0.0001640858,8.4023352923,12689,2018-07-07 14:53:54:166
0.7757,3.2274,7.7189,276.01,-22.59,-5.74,-0.0002614803,0.0001640858,8.4023352923,12713,2018-07-07 14:53:54:190
0.7757,3.2274,7.7189,276.01,-22.59,-5.74,-0.0002614803,0.0001640858,8.4023352923,12737,2018-07-07 14:53:54:214
0.7183,3.7062,9.0309,276.01,-22.59,-5.74,-0.0768524749,0.1814724849,9.7862244801,12761,2018-07-07 14:53:54:238
0.7183,3.7062,9.0309,276.01,-22.59,-5.74,-0.0768524749,0.1814724849,9.7862244801,12786,2018-07-07 14:53:54:263
0.7183,3.7062,9.0309,276.01,-22.59,-5.74,-0.0768524749,0.1814724849,9.7862244801,12810,2018-07-07 14:53:54:287
0.7183,3.7062,9.0309,276.01,-22.59,-5.74,-0.0768524749,0.1814724849,9.7862244801,12833,2018-07-07 14:53:54:310
0.7183,3.7062,9.0309,278.96,-22.25,-4.55,-0.0001564424,0.0003563455,9.78820862,12858,2018-07-07 14:53:54:335
0.2873,3.4764,11.1953,278.96,-22.25,-4.55,-1.0981128991,0.4360128904,11.6664768101,12881,2018-07-07 14:53:54:358
0.2873,3.4764,11.1953,278.96,-22.25,-4.55,-1.0981128991,0.4360128904,11.6664768101,12905,2018-07-07 14:53:54:382
0.2873,3.4764,11.1953,278.96,-22.25,-4.55,-1.0981128991,0.4360128904,11.6664768101,12930,2018-07-07 14:53:54:407
0.2873,3.4764,11.1953,278.96,-22.25,-4.55,-1.0981128991,0.4360128904,11.6664768101,12953,2018-07-07 14:53:54:430
0.2873,3.4764,11.1953,278.96,-22.25,-4.55,-1.0981128991,0.4360128904,11.6664768101,12977,2018-07-07 14:53:54:454
0.3831,2.059,12.9383,278.96,-22.25,-4.55,-3.0533462593,0.1710342656,12.7449471321,13001,2018-07-07 14:53:54:478
0.3831,2.059,12.9383,278.96,-22.25,-4.55,-3.0533462593,0.1710342656,12.7449471321,13026,2018-07-07 14:53:54:503
0.3831,2.059,12.9383,278.96,-22.25,-4.55,-3.0533462593,0.1710342656,12.7449471321,13049,2018-07-07 14:53:54:526
0.3831,2.059,12.9383,275.92,-9.04,-1.7,-0.0004737324,0.0008550831,13.1067102106,13073,2018-07-07 14:53:54:550
0.3831,2.059,12.9383,275.92,-9.04,-1.7,-0.0004737324,0.0008550831,13.1067102106,13097,2018-07-07 14:53:54:574
-0.4693,1.7334,8.6095,275.92,-9.04,-1.7,0.28523814,0.7579666915,8.7574273619,13121,2018-07-07 14:53:54:598
-0.4693,1.7334,8.6095,275.92,-9.04,-1.7,0.28523814,0.7579666915,8.7574273619,13146,2018-07-07 14:53:54:623
-0.4693,1.7334,8.6095,275.92,-9.04,-1.7,0.28523814,0.7579666915,8.7574273619,13170,2018-07-07 14:53:54:647
-0.4693,1.7334,8.6095,275.92,-9.04,-1.7,0.28523814,0.7579666915,8.7574273619,13194,2018-07-07 14:53:54:671
-0.4693,1.7334,8.6095,275.92,-9.04,-1.7,0.28523814,0.7579666915,8.7574273619,13218,2018-07-07 14:53:54:695
0.4405,2.3559,8.849,275.92,-9.04,-1.7,0.9481575538,-0.0804257143,9.1183131673,13242,2018-07-07 14:53:54:719
0.4405,2.3559,8.849,278.11,-14.89,-2.85,0.000094826,4.30880796963851E-05,9.1678299531,13266,2018-07-07 14:53:54:743
0.4405,2.3559,8.849,278.11,-14.89,-2.85,0.000094826,4.30880796963851E-05,9.1678299531,13289,2018-07-07 14:53:54:766
0.4405,2.3559,8.849,278.11,-14.89,-2.85,0.000094826,4.30880796963851E-05,9.1678299531,13313,2018-07-07 14:53:54:790
0.4405,2.3559,8.849,278.11,-14.89,-2.85,0.000094826,4.30880796963851E-05,9.1678299531,13337,2018-07-07 14:53:54:814
0.6129,2.988,8.3414,278.11,-14.89,-2.85,0.7595019024,-0.0911617694,8.8485925865,13361,2018-07-07 14:53:54:838
0.6129,2.988,8.3414,278.11,-14.89,-2.85,0.7595019024,-0.0911617694,8.8485925865,13386,2018-07-07 14:53:54:863
0.6129,2.988,8.3414,278.11,-14.89,-2.85,0.7595019024,-0.0911617694,8.8485925865,13409,2018-07-07 14:53:54:886
0.6129,2.988,8.3414,278.11,-14.89,-2.85,0.7595019024,-0.0911617694,8.8485925865,13433,2018-07-07 14:53:54:910
0.6129,2.988,8.3414,278.32,-19.66,-4.2,-6.09347037450192E-05,-0.0003575258,8.881595816,13457,2018-07-07 14:53:54:934
0.1915,3.5913,8.3414,278.32,-19.66,-4.2,0.5115512591,0.499199568,9.0555053421,13482,2018-07-07 14:53:54:959
0.1915,3.5913,8.3414,278.32,-19.66,-4.2,0.5115512591,0.499199568,9.0555053421,13506,2018-07-07 14:53:54:983
0.1915,3.5913,8.3414,278.32,-19.66,-4.2,0.5115512591,0.499199568,9.0555053421,13530,2018-07-07 14:53:55:007
0.1915,3.5913,8.3414,278.32,-19.66,-4.2,0.5115512591,0.499199568,9.0555053421,13554,2018-07-07 14:53:55:031
0.4884,3.7637,10.2089,278.32,-19.66,-4.2,0.067993718,0.2733083173,10.8878965314,13577,2018-07-07 14:53:55:054
0.4884,3.7637,10.2089,278.32,-19.66,-4.2,0.067993718,0.2733083173,10.8878965314,13602,2018-07-07 14:53:55:079
0.4884,3.7637,10.2089,278.32,-19.66,-4.2,0.067993718,0.2733083173,10.8878965314,13625,2018-07-07 14:53:55:102
0.4884,3.7637,10.2089,278.32,-19.66,-4.2,0.067993718,0.2733083173,10.8878965314,13650,2018-07-07 14:53:55:127
0.4884,3.7637,10.2089,275.26,-20.22,-2.74,-0.0007557682,0.0001137308,10.891538499,13673,2018-07-07 14:53:55:150
0.6225,2.2122,11.0325,275.26,-20.22,-2.74,-1.7271804505,-0.2538017094,11.1332755164,13697,2018-07-07 14:53:55:174
0.6225,2.2122,11.0325,275.26,-20.22,-2.74,-1.7271804505,-0.2538017094,11.1332755164,13721,2018-07-07 14:53:55:198
0.6225,2.2122,11.0325,275.26,-20.22,-2.74,-1.7271804505,-0.2538017094,11.1332755164,13746,2018-07-07 14:53:55:223
0.6225,2.2122,11.0325,275.26,-20.22,-2.74,-1.7271804505,-0.2538017094,11.1332755164,13769,2018-07-07 14:53:55:246
0.6225,2.2122,11.0325,275.26,-20.22,-2.74,-1.7271804505,-0.2538017094,11.1332755164,13794,2018-07-07 14:53:55:271
1.7526,2.059,10.1035,275.26,-20.22,-2.74,-1.4620029495,-1.4075677604,10.2602680465,13817,2018-07-07 14:53:55:294
1.7526,2.059,10.1035,275.26,-20.22,-2.74,-1.4620029495,-1.4075677604,10.2602680465,13841,2018-07-07 14:53:55:318
1.7526,2.059,10.1035,268.42,-11.35,-9.84,0.0006474912,-0.0001732195,10.4590534735,13865,2018-07-07 14:53:55:342
1.7526,2.059,10.1035,268.42,-11.35,-9.84,0.0006474912,-0.0001732195,10.4590534735,13889,2018-07-07 14:53:55:366
1.7526,2.059,10.1035,268.42,-11.35,-9.84,0.0006474912,-0.0001732195,10.4590534735,13914,2018-07-07 14:53:55:391
0.4118,2.5283,7.8817,268.42,-11.35,-9.84,0.9622866881,0.9150351609,8.1804516993,13937,2018-07-07 14:53:55:414
0.4118,2.5283,7.8817,268.42,-11.35,-9.84,0.9622866881,0.9150351609,8.1804516993,13962,2018-07-07 14:53:55:439
0.4118,2.5283,7.8817,268.42,-11.35,-9.84,0.9622866881,0.9150351609,8.1804516993,13985,2018-07-07 14:53:55:462
0.4118,2.5283,7.8817,268.42,-11.35,-9.84,0.9622866881,0.9150351609,8.1804516993,14009,2018-07-07 14:53:55:486
0.4118,2.5283,7.8817,268.42,-11.35,-9.84,0.9622866881,0.9150351609,8.1804516993,14034,2018-07-07 14:53:55:511
0.9864,3.2561,9.7779,270.45,-18.33,-5.76,0.0002344944,-9.1032618169104E-05,10.3528981699,14058,2018-07-07 14:53:55:535
0.9864,3.2561,9.7779,270.45,-18.33,-5.76,0.0002344944,-9.1032618169104E-05,10.3528981699,14081,2018-07-07 14:53:55:558
0.9864,3.2561,9.7779,270.45,-18.33,-5.76,0.0002344944,-9.1032618169104E-05,10.3528981699,14106,2018-07-07 14:53:55:583
0.9864,3.2561,9.7779,270.45,-18.33,-5.76,0.0002344944,-9.1032618169104E-05,10.3528981699,14130,2018-07-07 14:53:55:607
0.9864,3.2561,9.7779,270.45,-18.33,-5.76,0.0002344944,-9.1032618169104E-05,10.3528981699,14154,2018-07-07 14:53:55:631
1.0918,3.6105,9.3565,270.45,-18.33,-5.76,0.466324072,-0.1435951011,10.0763957865,14177,2018-07-07 14:53:55:654
1.0918,3.6105,9.3565,270.45,-18.33,-5.76,0.466324072,-0.1435951011,10.0763957865,14201,2018-07-07 14:53:55:678
1.0918,3.6105,9.3565,270.45,-18.33,-5.76,0.466324072,-0.1435951011,10.0763957865,14226,2018-07-07 14:53:55:703
1.0918,3.6105,9.3565,270.45,-18.33,-5.76,0.466324072,-0.1435951011,10.0763957865,14249,2018-07-07 14:53:55:726
1.0918,3.6105,9.3565,273.21,-20.97,-6.66,0.0001135826,0.0007171323,10.0882024768,14273,2018-07-07 14:53:55:750
1.063,3.6679,10.7835,273.21,-20.97,-6.66,-0.4624991623,0.1691824234,11.4291208539,14297,2018-07-07 14:53:55:774
1.063,3.6679,10.7835,273.21,-20.97,-6.66,-0.4624991623,0.1691824234,11.4291208539,14321,2018-07-07 14:53:55:798
1.063,3.6679,10.7835,273.21,-20.97,-6.66,-0.4624991623,0.1691824234,11.4291208539,14346,2018-07-07 14:53:55:823
1.063,3.6679,10.7835,273.21,-20.97,-6.66,-0.4624991623,0.1691824234,11.4291208539,14369,2018-07-07 14:53:55:846
1.063,3.6679,10.7835,273.21,-20.97,-6.66,-0.4624991623,0.1691824234,11.4291208539,14393,2018-07-07 14:53:55:870
-0.1341,1.6855,7.9487,272.48,-11.97,0.97,8.08006979977627E-05,-0.0004787977,8.1265444387,14453,2018-07-07 14:53:55:930
-0.1341,1.6855,7.9487,272.48,-11.97,0.97,8.08006979977627E-05,-0.0004787977,8.1265444387,14457,2018-07-07 14:53:55:934
-0.1341,1.6855,7.9487,272.48,-11.97,0.97,8.08006979977627E-05,-0.0004787977,8.1265444387,14465,2018-07-07 14:53:55:942
-0.1341,1.6855,7.9487,272.48,-11.97,0.97,8.08006979977627E-05,-0.0004787977,8.1265444387,14489,2018-07-07 14:53:55:966
-0.1341,1.6855,7.9487,272.48,-11.97,0.97,8.08006979977627E-05,-0.0004787977,8.1265444387,14514,2018-07-07 14:53:55:991
0.4214,2.0016,10.0748,272.48,-11.97,0.97,-0.1039185773,-0.596950479,10.2624766316,14537,2018-07-07 14:53:56:014
0.4214,2.0016,10.0748,272.48,-11.97,0.97,-0.1039185773,-0.596950479,10.2624766316,14562,2018-07-07 14:53:56:039
0.4214,2.0016,10.0748,272.48,-11.97,0.97,-0.1039185773,-0.596950479,10.2624766316,14586,2018-07-07 14:53:56:063
0.4214,2.0016,10.0748,272.48,-11.97,0.97,-0.1039185773,-0.596950479,10.2624766316,14609,2018-07-07 14:53:56:086
0.4214,2.0016,10.0748,272.48,-11.97,0.97,-0.1039185773,-0.596950479,10.2624766316,14633,2018-07-07 14:53:56:110
0.8045,2.5857,7.9775,272.48,-11.97,0.97,0.9178371731,-0.9005629596,8.3258712619,14658,2018-07-07 14:53:56:135
0.8045,2.5857,7.9775,273.24,-17.87,-5.76,0.0005627613,0.0002296606,8.4245813321,14682,2018-07-07 14:53:56:159
0.8045,2.5857,7.9775,273.24,-17.87,-5.76,0.0005627613,0.0002296606,8.4245813321,14706,2018-07-07 14:53:56:183
0.8045,2.5857,7.9775,273.24,-17.87,-5.76,0.0005627613,0.0002296606,8.4245813321,14729,2018-07-07 14:53:56:206
0.8045,2.5857,7.9775,273.24,-17.87,-5.76,0.0005627613,0.0002296606,8.4245813321,14754,2018-07-07 14:53:56:231
0.4501,3.3232,8.5234,273.24,-17.87,-5.76,0.5228298756,0.4378450393,9.1339770337,14777,2018-07-07 14:53:56:254
0.4501,3.3232,8.5234,273.24,-17.87,-5.76,0.5228298756,0.4378450393,9.1339770337,14801,2018-07-07 14:53:56:278
0.4501,3.3232,8.5234,273.24,-17.87,-5.76,0.5228298756,0.4378450393,9.1339770337,14825,2018-07-07 14:53:56:302
0.4501,3.3232,8.5234,273.24,-17.87,-5.76,0.5228298756,0.4378450393,9.1339770337,14849,2018-07-07 14:53:56:326
0.4501,3.3232,8.5234,274.52,-21.27,-3.02,0.0005742935,-0.0003794125,9.159399289,14873,2018-07-07 14:53:56:350
0.929,3.8786,9.7683,274.52,-21.27,-3.02,0.0903524546,-0.4072174923,10.5428778897,14898,2018-07-07 14:53:56:375
0.929,3.8786,9.7683,274.52,-21.27,-3.02,0.0903524546,-0.4072174923,10.5428778897,14921,2018-07-07 14:53:56:398
0.929,3.8786,9.7683,274.52,-21.27,-3.02,0.0903524546,-0.4072174923,10.5428778897,14945,2018-07-07 14:53:56:422
0.929,3.8786,9.7683,274.52,-21.27,-3.02,0.0903524546,-0.4072174923,10.5428778897,14969,2018-07-07 14:53:56:446
0.996,3.2561,10.3908,274.52,-21.27,-3.02,-0.7113330515,-0.5048103359,10.8996375933,14993,2018-07-07 14:53:56:470
0.996,3.2561,10.3908,274.52,-21.27,-3.02,-0.7113330515,-0.5048103359,10.8996375933,15017,2018-07-07 14:53:56:494
0.996,3.2561,10.3908,274.52,-21.27,-3.02,-0.7113330515,-0.5048103359,10.8996375933,15042,2018-07-07 14:53:56:519
0.996,3.2561,10.3908,268.29,-17.32,-5.48,0.0008792863,0.0008298648,10.9344833617,15066,2018-07-07 14:53:56:543
0.8715,2.3272,10.5153,268.29,-17.32,-5.48,-0.9147944468,0.1640474172,10.7649034248,15089,2018-07-07 14:53:56:566
0.8715,2.3272,10.5153,268.29,-17.32,-5.48,-0.9147944468,0.1640474172,10.7649034248,15113,2018-07-07 14:53:56:590
0.8715,2.3272,10.5153,268.29,-17.32,-5.48,-0.9147944468,0.1640474172,10.7649034248,15137,2018-07-07 14:53:56:614
0.8715,2.3272,10.5153,268.29,-17.32,-5.48,-0.9147944468,0.1640474172,10.7649034248,15161,2018-07-07 14:53:56:638
0.8715,2.3272,10.5153,268.29,-17.32,-5.48,-0.9147944468,0.1640474172,10.7649034248,15186,2018-07-07 14:53:56:663
1.8292,2.2697,10.4675,268.29,-17.32,-5.48,-1.0113035904,-0.7913859088,10.7896728575,15210,2018-07-07 14:53:56:687
1.8292,2.2697,10.4675,268.29,-17.32,-5.48,-1.0113035904,-0.7913859088,10.7896728575,15233,2018-07-07 14:53:56:710
1.8292,2.2697,10.4675,263.43,-12.06,-9.91,-0.0006191555,-0.0003711088,10.8658210209,15257,2018-07-07 14:53:56:734
1.0056,2.6815,7.7668,263.43,-12.06,-9.91,1.0207190261,0.2308066811,8.211559949,15282,2018-07-07 14:53:56:759
1.0056,2.6815,7.7668,263.43,-12.06,-9.91,1.0207190261,0.2308066811,8.211559949,15305,2018-07-07 14:53:56:782
1.0056,2.6815,7.7668,263.43,-12.06,-9.91,1.0207190261,0.2308066811,8.211559949,15330,2018-07-07 14:53:56:807
1.0056,2.6815,7.7668,263.43,-12.06,-9.91,1.0207190261,0.2308066811,8.211559949,15353,2018-07-07 14:53:56:830
1.0056,2.6815,7.7668,263.43,-12.06,-9.91,1.0207190261,0.2308066811,8.211559949,15377,2018-07-07 14:53:56:854
0.7374,3.3519,9.2033,263.43,-12.06,-9.91,1.4463967912,0.6965821428,9.6903267696,15401,2018-07-07 14:53:56:878
0.7374,3.3519,9.2033,263.43,-12.06,-9.91,1.4463967912,0.6965821428,9.6903267696,15425,2018-07-07 14:53:56:902
0.7374,3.3519,9.2033,263.43,-12.06,-9.91,1.4463967912,0.6965821428,9.6903267696,15449,2018-07-07 14:53:56:926
0.7374,3.3519,9.2033,268.3,-19.95,-4.58,0.0005209863,-0.0001683676,9.8224092238,15473,2018-07-07 14:53:56:950
0.9098,3.62,8.7436,268.3,-19.95,-4.58,0.3978194455,-0.2206087343,9.4960912209,15497,2018-07-07 14:53:56:974
0.9098,3.62,8.7436,268.3,-19.95,-4.58,0.3978194455,-0.2206087343,9.4960912209,15521,2018-07-07 14:53:56:998
0.9098,3.62,8.7436,268.3,-19.95,-4.58,0.3978194455,-0.2206087343,9.4960912209,15546,2018-07-07 14:53:57:023
0.9098,3.62,8.7436,268.3,-19.95,-4.58,0.3978194455,-0.2206087343,9.4960912209,15569,2018-07-07 14:53:57:046
0.8428,3.6583,10.2376,268.3,-19.95,-4.58,-0.0667511204,-0.0206552455,10.9039920276,15594,2018-07-07 14:53:57:071
0.8428,3.6583,10.2376,268.3,-19.95,-4.58,-0.0667511204,-0.0206552455,10.9039920276,15618,2018-07-07 14:53:57:095
0.8428,3.6583,10.2376,268.3,-19.95,-4.58,-0.0667511204,-0.0206552455,10.9039920276,15641,2018-07-07 14:53:57:118
0.8428,3.6583,10.2376,269.73,-19.6,-4.71,0.0004953889,0.0006782022,10.9042158721,15665,2018-07-07 14:53:57:142
0.8428,3.6583,10.2376,269.73,-19.6,-4.71,0.0004953889,0.0006782022,10.9042158721,15689,2018-07-07 14:53:57:166
0.8715,3.5721,10.5153,269.73,-19.6,-4.71,-0.174366214,-0.004298294,11.1382459435,15714,2018-07-07 14:53:57:191
0.8715,3.5721,10.5153,269.73,-19.6,-4.71,-0.174366214,-0.004298294,11.1382459435,15737,2018-07-07 14:53:57:214
0.8715,3.5721,10.5153,269.73,-19.6,-4.71,-0.174366214,-0.004298294,11.1382459435,15762,2018-07-07 14:53:57:239
0.8715,3.5721,10.5153,269.73,-19.6,-4.71,-0.174366214,-0.004298294,11.1382459435,15785,2018-07-07 14:53:57:262
0.8715,3.5721,10.5153,269.73,-19.6,-4.71,-0.174366214,-0.004298294,11.1382459435,15810,2018-07-07 14:53:57:287
-0.2203,2.2889,6.8091,269.73,-19.6,-4.71,-0.110395909,0.7791968472,7.1436757434,15833,2018-07-07 14:53:57:310
-0.2203,2.2889,6.8091,273.77,-18.57,1.85,0.0001234738,0.000376059,7.1868934842,15858,2018-07-07 14:53:57:335
-0.2203,2.2889,6.8091,273.77,-18.57,1.85,0.0001234738,0.000376059,7.1868934842,15881,2018-07-07 14:53:57:358
-0.2203,2.2889,6.8091,273.77,-18.57,1.85,0.0001234738,0.000376059,7.1868934842,15906,2018-07-07 14:53:57:383
-0.2203,2.2889,6.8091,273.77,-18.57,1.85,0.0001234738,0.000376059,7.1868934842,15930,2018-07-07 14:53:57:407
0.6416,2.4421,10.2472,273.77,-18.57,1.85,-0.8741544968,-1.0317854115,10.4667035685,15957,2018-07-07 14:53:57:434
0.6416,2.4421,10.2472,273.77,-18.57,1.85,-0.8741544968,-1.0317854115,10.4667035685,15977,2018-07-07 14:53:57:454
0.6416,2.4421,10.2472,273.77,-18.57,1.85,-0.8741544968,-1.0317854115,10.4667035685,16001,2018-07-07 14:53:57:478
0.6416,2.4421,10.2472,273.77,-18.57,1.85,-0.8741544968,-1.0317854115,10.4667035685,16026,2018-07-07 14:53:57:503
0.6416,2.4421,10.2472,273.77,-18.57,1.85,-0.8741544968,-1.0317854115,10.4667035685,16050,2018-07-07 14:53:57:527
0.8332,2.806,7.6998,273.77,-18.57,1.85,0.2882776403,-1.0646874855,8.1632171869,16073,2018-07-07 14:53:57:550
0.8332,2.806,7.6998,273.77,-18.57,1.85,0.2882776403,-1.0646874855,8.1632171869,16097,2018-07-07 14:53:57:574
0.8332,2.806,7.6998,273.77,-18.57,1.85,0.2882776403,-1.0646874855,8.1632171869,16122,2018-07-07 14:53:57:599
0.8332,2.806,7.6998,273.77,-18.57,1.85,0.2882776403,-1.0646874855,8.1632171869,16145,2018-07-07 14:53:57:622
0.8332,2.806,7.6998,271.87,-19.92,-6.18,-0.0005986236,0.0005241734,8.2374011464,16170,2018-07-07 14:53:57:647
0.2873,3.2274,8.7724,271.87,-19.92,-6.18,0.0307855003,0.6600949993,9.3282892673,16194,2018-07-07 14:53:57:671
0.2873,3.2274,8.7724,271.87,-19.92,-6.18,0.0307855003,0.6600949993,9.3282892673,16217,2018-07-07 14:53:57:694
0.2873,3.2274,8.7724,271.87,-19.92,-6.18,0.0307855003,0.6600949993,9.3282892673,16242,2018-07-07 14:53:57:719
0.2873,3.2274,8.7724,271.87,-19.92,-6.18,0.0307855003,0.6600949993,9.3282892673,16265,2018-07-07 14:53:57:742
0.9577,3.6392,10.1131,271.87,-19.92,-6.18,-0.0436857422,0.1352107642,10.7896045871,16289,2018-07-07 14:53:57:766
0.9577,3.6392,10.1131,271.87,-19.92,-6.18,-0.0436857422,0.1352107642,10.7896045871,16314,2018-07-07 14:53:57:791
0.9577,3.6392,10.1131,271.87,-19.92,-6.18,-0.0436857422,0.1352107642,10.7896045871,16337,2018-07-07 14:53:57:814
0.9577,3.6392,10.1131,270.27,-19.71,-5.41,-1.39952367419482E-05,4.9990251844198E-05,10.7905401875,16361,2018-07-07 14:53:57:838
0.9577,3.6392,10.1131,270.27,-19.71,-5.41,-1.39952367419482E-05,4.9990251844198E-05,10.7905401875,16386,2018-07-07 14:53:57:863
2.0494,3.3806,10.726,270.27,-19.71,-5.41,-0.4791073997,-1.0312706951,11.3746432723,16410,2018-07-07 14:53:57:887
2.0494,3.3806,10.726,270.27,-19.71,-5.41,-0.4791073997,-1.0312706951,11.3746432723,16433,2018-07-07 14:53:57:910
2.0494,3.3806,10.726,270.27,-19.71,-5.41,-0.4791073997,-1.0312706951,11.3746432723,16457,2018-07-07 14:53:57:934
2.0494,3.3806,10.726,270.27,-19.71,-5.41,-0.4791073997,-1.0312706951,11.3746432723,16481,2018-07-07 14:53:57:958
2.0494,3.3806,10.726,270.27,-19.71,-5.41,-0.4791073997,-1.0312706951,11.3746432723,16505,2018-07-07 14:53:57:982
1.4557,2.2314,8.418,270.27,-19.71,-5.41,-0.7689284272,-0.6591799483,8.7712691966,16530,2018-07-07 14:53:58:007
1.4557,2.2314,8.418,264.48,-14.64,-9.81,-0.0002435481,-0.0001208225,8.8295488206,16553,2018-07-07 14:53:58:030
1.4557,2.2314,8.418,264.48,-14.64,-9.81,-0.0002435481,-0.0001208225,8.8295488206,16577,2018-07-07 14:53:58:054
1.4557,2.2314,8.418,264.48,-14.64,-9.81,-0.0002435481,-0.0001208225,8.8295488206,16601,2018-07-07 14:53:58:078
1.4557,2.2314,8.418,264.48,-14.64,-9.81,-0.0002435481,-0.0001208225,8.8295488206,16625,2018-07-07 14:53:58:102
1.245,2.49,9.3757,264.48,-14.64,-9.81,0.0560908838,0.3669559677,9.7732324551,16649,2018-07-07 14:53:58:126
1.245,2.49,9.3757,264.48,-14.64,-9.81,0.0560908838,0.3669559677,9.7732324551,16673,2018-07-07 14:53:58:150
1.245,2.49,9.3757,264.48,-14.64,-9.81,0.0560908838,0.3669559677,9.7732324551,16697,2018-07-07 14:53:58:174
1.245,2.49,9.3757,264.48,-14.64,-9.81,0.0560908838,0.3669559677,9.7732324551,16722,2018-07-07 14:53:58:199
1.245,2.49,9.3757,264.48,-14.64,-9.81,0.0560908838,0.3669559677,9.7732324551,16745,2018-07-07 14:53:58:222
0.6321,3.3519,7.9392,263.19,-14.75,-7.56,1.2574745445,0.2707122268,8.5446564191,16770,2018-07-07 14:53:58:247
0.6321,3.3519,7.9392,263.19,-14.75,-7.56,1.2574745445,0.2707122268,8.5446564191,16793,2018-07-07 14:53:58:270
0.6321,3.3519,7.9392,263.19,-14.75,-7.56,1.2574745445,0.2707122268,8.5446564191,16851,2018-07-07 14:53:58:328
0.6321,3.3519,7.9392,263.19,-14.75,-7.56,1.2574745445,0.2707122268,8.5446564191,16852,2018-07-07 14:53:58:329
0.6321,3.3519,7.9392,263.19,-14.75,-7.56,1.2574745445,0.2707122268,8.5446564191,16865,2018-07-07 14:53:58:342
0.814,3.7828,8.8107,263.19,-14.75,-7.56,1.4389938171,0.1829081749,9.5129620899,16890,2018-07-07 14:53:58:367
0.814,3.7828,8.8107,263.19,-14.75,-7.56,1.4389938171,0.1829081749,9.5129620899,16913,2018-07-07 14:53:58:390
0.814,3.7828,8.8107,263.19,-14.75,-7.56,1.4389938171,0.1829081749,9.5129620899,16938,2018-07-07 14:53:58:415
0.814,3.7828,8.8107,270.05,-23.15,-5.28,-0.0003828912,0.0002406844,9.6229208729,16961,2018-07-07 14:53:58:438
0.814,3.7828,8.8107,270.05,-23.15,-5.28,-0.0003828912,0.0002406844,9.6229208729,16986,2018-07-07 14:53:58:463
1.2737,4.3383,9.7492,270.05,-23.15,-5.28,0.1266846079,-0.3710344145,10.7394759506,17010,2018-07-07 14:53:58:487
1.2737,4.3383,9.7492,270.05,-23.15,-5.28,0.1266846079,-0.3710344145,10.7394759506,17033,2018-07-07 14:53:58:510
1.2737,4.3383,9.7492,270.05,-23.15,-5.28,0.1266846079,-0.3710344145,10.7394759506,17057,2018-07-07 14:53:58:534
1.2737,4.3383,9.7492,270.05,-23.15,-5.28,0.1266846079,-0.3710344145,10.7394759506,17081,2018-07-07 14:53:58:558
1.2737,4.3383,9.7492,270.05,-23.15,-5.28,0.1266846079,-0.3710344145,10.7394759506,17105,2018-07-07 14:53:58:582
0.9002,4.051,9.9311,270.05,-23.15,-5.28,-0.1955169111,0.0173387398,10.7614674072,17130,2018-07-07 14:53:58:607
0.9002,4.051,9.9311,271.29,-22.11,-5.18,-0.0001523837,0.0001018566,10.7632573237,17154,2018-07-07 14:53:58:631
0.9002,4.051,9.9311,271.29,-22.11,-5.18,-0.0001523837,0.0001018566,10.7632573237,17178,2018-07-07 14:53:58:655
0.9002,4.051,9.9311,271.29,-22.11,-5.18,-0.0001523837,0.0001018566,10.7632573237,17201,2018-07-07 14:53:58:678
0.9002,4.051,9.9311,271.29,-22.11,-5.18,-0.0001523837,0.0001018566,10.7632573237,17226,2018-07-07 14:53:58:703
-0.3543,2.7964,7.9296,271.29,-22.11,-5.18,-0.39356773,1.0601849037,8.3393674833,17250,2018-07-07 14:53:58:727
-0.3543,2.7964,7.9296,274.36,-19.41,2.56,-0.0003548471,-0.000261383,8.4156958961,17273,2018-07-07 14:53:58:750
-0.3543,2.7964,7.9296,274.36,-19.41,2.56,-0.0003548471,-0.000261383,8.4156958961,17298,2018-07-07 14:53:58:775
-0.3543,2.7964,7.9296,274.36,-19.41,2.56,-0.0003548471,-0.000261383,8.4156958961,17322,2018-07-07 14:53:58:799
-0.3543,2.7964,7.9296,274.36,-19.41,2.56,-0.0003548471,-0.000261383,8.4156958961,17346,2018-07-07 14:53:58:823
0.1915,2.9018,9.7683,274.36,-19.41,2.56,-0.4541303834,-0.6640615851,10.1601962671,17369,2018-07-07 14:53:58:846
0.1915,2.9018,9.7683,274.36,-19.41,2.56,-0.4541303834,-0.6640615851,10.1601962671,17394,2018-07-07 14:53:58:871
0.1915,2.9018,9.7683,274.36,-19.41,2.56,-0.4541303834,-0.6640615851,10.1601962671,17417,2018-07-07 14:53:58:894
0.1915,2.9018,9.7683,274.36,-19.41,2.56,-0.4541303834,-0.6640615851,10.1601962671,17441,2018-07-07 14:53:58:918
0.1915,2.9018,9.7683,272.98,-16.54,-1.12,0.0003346162,-0.0005111927,10.1919968606,17466,2018-07-07 14:53:58:943
0.2682,3.371,7.6519,272.98,-16.54,-1.12,1.0567994424,-0.0637272919,8.2985697334,17489,2018-07-07 14:53:58:966
0.2682,3.371,7.6519,272.98,-16.54,-1.12,1.0567994424,-0.0637272919,8.2985697334,17514,2018-07-07 14:53:58:991
0.2682,3.371,7.6519,272.98,-16.54,-1.12,1.0567994424,-0.0637272919,8.2985697334,17537,2018-07-07 14:53:59:014
0.2682,3.371,7.6519,272.98,-16.54,-1.12,1.0567994424,-0.0637272919,8.2985697334,17562,2018-07-07 14:53:59:039
0.2682,3.371,7.6519,272.98,-16.54,-1.12,1.0567994424,-0.0637272919,8.2985697334,17585,2018-07-07 14:53:59:062
0.7087,3.8499,8.4946,272.98,-16.54,-1.12,1.295320623,-0.4758285262,9.2508349114,17609,2018-07-07 14:53:59:086
0.7087,3.8499,8.4946,272.98,-16.54,-1.12,1.295320623,-0.4758285262,9.2508349114,17634,2018-07-07 14:53:59:111
0.7087,3.8499,8.4946,276.46,-24.31,-4.77,-0.0006263897,6.20232441716495E-05,9.3531927417,17658,2018-07-07 14:53:59:135
0.7087,3.8499,8.4946,276.46,-24.31,-4.77,-0.0006263897,6.20232441716495E-05,9.3531927417,17681,2018-07-07 14:53:59:158
0.8236,3.9552,10.1035,276.46,-24.31,-4.77,-0.5672074616,-0.0446800852,10.8664122706,17706,2018-07-07 14:53:59:183
0.8236,3.9552,10.1035,276.46,-24.31,-4.77,-0.5672074616,-0.0446800852,10.8664122706,17730,2018-07-07 14:53:59:207
0.8236,3.9552,10.1035,276.46,-24.31,-4.77,-0.5672074616,-0.0446800852,10.8664122706,17754,2018-07-07 14:53:59:231
0.8236,3.9552,10.1035,276.46,-24.31,-4.77,-0.5672074616,-0.0446800852,10.8664122706,17778,2018-07-07 14:53:59:255
0.8236,3.9552,10.1035,276.46,-24.31,-4.77,-0.5672074616,-0.0446800852,10.8664122706,17802,2018-07-07 14:53:59:279
1.743,3.0933,11.4251,276.46,-24.31,-4.77,-1.8269932798,-0.998792641,11.7815097808,17826,2018-07-07 14:53:59:303
1.743,3.0933,11.4251,276.46,-24.31,-4.77,-1.8269932798,-0.998792641,11.7815097808,17849,2018-07-07 14:53:59:326
1.743,3.0933,11.4251,268.02,-14.98,-8.67,0.0007987418,-0.0008543373,11.9640905435,17873,2018-07-07 14:53:59:350
1.743,3.0933,11.4251,268.02,-14.98,-8.67,0.0007987418,-0.0008543373,11.9640905435,17897,2018-07-07 14:53:59:374
1.743,3.0933,11.4251,268.02,-14.98,-8.67,0.0007987418,-0.0008543373,11.9640905435,17922,2018-07-07 14:53:59:399
1.3886,2.1931,8.8969,268.02,-14.98,-8.67,-0.2099111467,-0.0243469702,9.2654234504,17946,2018-07-07 14:53:59:423
1.3886,2.1931,8.8969,268.02,-14.98,-8.67,-0.2099111467,-0.0243469702,9.2654234504,17969,2018-07-07 14:53:59:446
1.3886,2.1931,8.8969,268.02,-14.98,-8.67,-0.2099111467,-0.0243469702,9.2654234504,17993,2018-07-07 14:53:59:470
1.3886,2.1931,8.8969,268.02,-14.98,-8.67,-0.2099111467,-0.0243469702,9.2654234504,18017,2018-07-07 14:53:59:494
1.3886,2.1931,8.8969,268.02,-14.98,-8.67,-0.2099111467,-0.0243469702,9.2654234504,18042,2018-07-07 14:53:59:519
0.8715,2.7485,7.6806,268.02,-14.98,-8.67,0.6683708326,0.2733276393,8.1721449627,18065,2018-07-07 14:53:59:542
0.8715,2.7485,7.6806,268.02,-14.98,-8.67,0.6683708326,0.2733276393,8.1721449627,18089,2018-07-07 14:53:59:566
0.8715,2.7485,7.6806,268.02,-14.98,-8.67,0.6683708326,0.2733276393,8.1721449627,18114,2018-07-07 14:53:59:591
0.8715,2.7485,7.6806,268.02,-14.98,-8.67,0.6683708326,0.2733276393,8.1721449627,18138,2018-07-07 14:53:59:615
0.8715,2.7485,7.6806,272.12,-19.57,-6.47,0.0005555756,-0.0004563872,8.2039856377,18162,2018-07-07 14:53:59:639
0.9673,3.4189,9.3278,272.12,-19.57,-6.47,0.0769839161,0.092856291,9.9808742366,18185,2018-07-07 14:53:59:662
0.9673,3.4189,9.3278,272.12,-19.57,-6.47,0.0769839161,0.092856291,9.9808742366,18210,2018-07-07 14:53:59:687
0.9673,3.4189,9.3278,272.12,-19.57,-6.47,0.0769839161,0.092856291,9.9808742366,18233,2018-07-07 14:53:59:710
0.9673,3.4189,9.3278,272.12,-19.57,-6.47,0.0769839161,0.092856291,9.9808742366,18258,2018-07-07 14:53:59:735
0.9673,3.4189,9.3278,272.12,-19.57,-6.47,0.0769839161,0.092856291,9.9808742366,18281,2018-07-07 14:53:59:758
1.0439,4.0318,9.4523,272.12,-19.57,-6.47,0.6120822833,0.0505388683,10.3108639231,18306,2018-07-07 14:53:59:783
1.0439,4.0318,9.4523,272.12,-19.57,-6.47,0.6120822833,0.0505388683,10.3108639231,18330,2018-07-07 14:53:59:807
1.0439,4.0318,9.4523,278.26,-22.98,-6.3,-0.0008058037,-0.0004749052,10.3291390186,18353,2018-07-07 14:53:59:830
1.0439,4.0318,9.4523,278.26,-22.98,-6.3,-0.0008058037,-0.0004749052,10.3291390186,18378,2018-07-07 14:53:59:855
1.0439,4.0318,9.4523,278.26,-22.98,-6.3,-0.0008058037,-0.0004749052,10.3291390186,18402,2018-07-07 14:53:59:879
0.9673,4.0127,10.5153,278.26,-22.98,-6.3,-0.4508767876,0.1289935359,11.2866751287,18425,2018-07-07 14:53:59:902
0.9673,4.0127,10.5153,278.26,-22.98,-6.3,-0.4508767876,0.1289935359,11.2866751287,18449,2018-07-07 14:53:59:926
0.9673,4.0127,10.5153,278.26,-22.98,-6.3,-0.4508767876,0.1289935359,11.2866751287,18474,2018-07-07 14:53:59:951
0.9673,4.0127,10.5153,278.26,-22.98,-6.3,-0.4508767876,0.1289935359,11.2866751287,18498,2018-07-07 14:53:59:975
0.9673,4.0127,10.5153,278.26,-22.98,-6.3,-0.4508767876,0.1289935359,11.2866751287,18521,2018-07-07 14:53:59:998
-0.4693,2.1452,7.9966,278.26,-22.98,-6.3,-1.2896195453,1.1708395354,8.1076354938,18545,2018-07-07 14:54:00:022
-0.4693,2.1452,7.9966,278.97,-14.99,3.36,0.0003425708,-0.0001313036,8.2926314856,18569,2018-07-07 14:54:00:046
-0.4693,2.1452,7.9966,278.97,-14.99,3.36,0.0003425708,-0.0001313036,8.2926314856,18593,2018-07-07 14:54:00:070
-0.4693,2.1452,7.9966,278.97,-14.99,3.36,0.0003425708,-0.0001313036,8.2926314856,18618,2018-07-07 14:54:00:095
-0.4693,2.1452,7.9966,278.97,-14.99,3.36,0.0003425708,-0.0001313036,8.2926314856,18641,2018-07-07 14:54:00:118
0.4788,2.2697,10.0078,278.97,-14.99,3.36,-0.2136707048,-1.1114363513,10.2105779678,18665,2018-07-07 14:54:00:142
0.4788,2.2697,10.0078,278.97,-14.99,3.36,-0.2136707048,-1.1114363513,10.2105779678,18690,2018-07-07 14:54:00:167
0.4788,2.2697,10.0078,278.97,-14.99,3.36,-0.2136707048,-1.1114363513,10.2105779678,18714,2018-07-07 14:54:00:191
0.4788,2.2697,10.0078,278.97,-14.99,3.36,-0.2136707048,-1.1114363513,10.2105779678,18737,2018-07-07 14:54:00:214
0.4788,2.2697,10.0078,276.98,-12.76,-2.74,0.0006947982,0.0002444644,10.2731128597,18762,2018-07-07 14:54:00:239
0.5267,2.9784,7.5657,276.98,-12.76,-2.74,1.2410402313,-0.013715547,8.0528086385,18785,2018-07-07 14:54:00:262
0.5267,2.9784,7.5657,276.98,-12.76,-2.74,1.2410402313,-0.013715547,8.0528086385,18809,2018-07-07 14:54:00:286
0.5267,2.9784,7.5657,276.98,-12.76,-2.74,1.2410402313,-0.013715547,8.0528086385,18833,2018-07-07 14:54:00:310
0.5267,2.9784,7.5657,276.98,-12.76,-2.74,1.2410402313,-0.013715547,8.0528086385,18857,2018-07-07 14:54:00:334
0.5267,2.9784,7.5657,276.98,-12.76,-2.74,1.2410402313,-0.013715547,8.0528086385,18881,2018-07-07 14:54:00:358
0.2682,3.5721,9.1554,276.98,-12.76,-2.74,1.4297703483,0.3460842505,9.7205535466,18905,2018-07-07 14:54:00:382
0.2682,3.5721,9.1554,276.98,-12.76,-2.74,1.4297703483,0.3460842505,9.7205535466,18929,2018-07-07 14:54:00:406
0.2682,3.5721,9.1554,276.98,-12.76,-1.68,1.450016511,0.1778554917,9.7220881683,18953,2018-07-07 14:54:00:430
0.2682,3.5721,9.1554,282.58,-21.31,-1.68,-0.0008116713,0.0001540833,9.8312348221,18977,2018-07-07 14:54:00:454
0.8619,3.8211,10.161,282.58,-21.31,-1.68,-0.014268623,-0.5806844475,10.8743827319,19002,2018-07-07 14:54:00:479
0.8619,3.8211,10.161,282.58,-21.31,-1.68,-0.014268623,-0.5806844475,10.8743827319,19025,2018-07-07 14:54:00:502
0.8619,3.8211,10.161,282.58,-21.31,-1.68,-0.014268623,-0.5806844475,10.8743827319,19050,2018-07-07 14:54:00:527
0.8619,3.8211,10.161,282.58,-21.31,-1.68,-0.014268623,-0.5806844475,10.8743827319,19074,2018-07-07 14:54:00:551
0.8619,3.8211,10.161,282.58,-21.31,-1.68,-0.014268623,-0.5806844475,10.8743827319,19097,2018-07-07 14:54:00:574
1.1013,3.371,9.8641,282.58,-21.31,-1.68,-0.2667395654,-0.8911275317,10.4408674556,19121,2018-07-07 14:54:00:598
1.1013,3.371,9.8641,282.58,-21.31,-1.68,-0.2667395654,-0.8911275317,10.4408674556,19146,2018-07-07 14:54:00:623
1.1013,3.371,9.8641,276.95,-18.76,-6.37,-0.0001272368,-0.0001090333,10.4822216859,19169,2018-07-07 14:54:00:646
1.1013,3.371,9.8641,276.95,-18.76,-6.37,-0.0001272368,-0.0001090333,10.4822216859,19194,2018-07-07 14:54:00:671
-0.0096,2.6624,8.3318,276.95,-18.76,-6.37,-0.2536719668,0.9099330916,8.6956902809,19246,2018-07-07 14:54:00:723
-0.0096,2.6624,8.3318,276.95,-18.76,-6.37,-0.2536719668,0.9099330916,8.6956902809,19247,2018-07-07 14:54:00:724
-0.0096,2.6624,8.3318,276.95,-18.76,-6.37,-0.2536719668,0.9099330916,8.6956902809,19266,2018-07-07 14:54:00:743
-0.0096,2.6624,8.3318,276.95,-18.76,-6.37,-0.2536719668,0.9099330916,8.6956902809,19290,2018-07-07 14:54:00:767
-0.0096,2.6624,8.3318,276.95,-18.76,-6.37,-0.2536719668,0.9099330916,8.6956902809,19314,2018-07-07 14:54:00:791
-0.0096,2.6624,8.3318,276.95,-18.76,-6.37,-0.2536719668,0.9099330916,8.6956902809,19338,2018-07-07 14:54:00:815
0.9768,2.8635,8.667,273.54,-18.18,-6.43,-0.0006913158,-8.73596647052166E-05,9.179905174,19362,2018-07-07 14:54:00:839
0.9768,2.8635,8.667,273.54,-18.18,-6.43,-0.0006913158,-8.73596647052166E-05,9.179905174,19385,2018-07-07 14:54:00:862
0.9768,2.8635,8.667,273.54,-18.18,-6.43,-0.0006913158,-8.73596647052166E-05,9.179905174,19409,2018-07-07 14:54:00:886
0.9768,2.8635,8.667,273.54,-18.18,-6.43,-0.0006913158,-8.73596647052166E-05,9.179905174,19433,2018-07-07 14:54:00:910
0.9768,2.8635,8.667,273.54,-18.18,-6.43,-0.0006913158,-8.73596647052166E-05,9.179905174,19458,2018-07-07 14:54:00:935
0.5459,3.5243,8.3318,273.54,-18.18,-6.43,0.7205581266,0.4359289807,9.0237658685,19481,2018-07-07 14:54:00:958
0.5459,3.5243,8.3318,273.54,-18.18,-6.43,0.7205581266,0.4359289807,9.0237658685,19505,2018-07-07 14:54:00:982
0.5459,3.5243,8.3318,273.54,-18.18,-6.43,0.7205581266,0.4359289807,9.0237658685,19530,2018-07-07 14:54:01:007
0.5459,3.5243,8.3318,277.16,-22.88,-3.75,0.0006135825,0.0002732137,9.0629789853,19554,2018-07-07 14:54:01:031
0.5459,3.5243,8.3318,277.16,-22.88,-3.75,0.0006135825,0.0002732137,9.0629789853,19577,2018-07-07 14:54:01:054
0.9098,4.0127,8.8107,277.16,-22.88,-3.75,0.2949022525,-0.2971652176,9.7150737164,19601,2018-07-07 14:54:01:078
0.9098,4.0127,8.8107,277.16,-22.88,-3.75,0.2949022525,-0.2971652176,9.7150737164,19625,2018-07-07 14:54:01:102
0.9098,4.0127,8.8107,277.16,-22.88,-3.75,0.2949022525,-0.2971652176,9.7150737164,19650,2018-07-07 14:54:01:127
0.9098,4.0127,8.8107,277.16,-22.88,-3.75,0.2949022525,-0.2971652176,9.7150737164,19673,2018-07-07 14:54:01:150
0.9098,4.0127,8.8107,277.16,-22.88,-3.75,0.2949022525,-0.2971652176,9.7150737164,19697,2018-07-07 14:54:01:174
0.7757,4.1372,11.2911,277.16,-22.88,-3.75,-0.5796191199,-0.1086572694,12.0357512775,19723,2018-07-07 14:54:01:200
0.7757,4.1372,11.2911,277.16,-22.88,-3.75,-0.5796191199,-0.1086572694,12.0357512775,19745,2018-07-07 14:54:01:222
0.7757,4.1372,11.2911,276.44,-20.08,-3.93,-1.38287731688003E-05,-1.19321185632071E-05,12.0501897719,19769,2018-07-07 14:54:01:246
0.7757,4.1372,11.2911,276.44,-20.08,-3.93,-1.38287731688003E-05,-1.19321185632071E-05,12.0501897719,19793,2018-07-07 14:54:01:270
0.7757,4.1372,11.2911,276.44,-20.08,-3.93,-1.38287731688003E-05,-1.19321185632071E-05,12.0501897719,19817,2018-07-07 14:54:01:294
0.3926,3.2944,10.7069,276.44,-20.08,-3.93,-0.6171680633,0.2746590507,11.1887702505,19841,2018-07-07 14:54:01:318
0.3926,3.2944,10.7069,276.44,-20.08,-3.93,-0.6171680633,0.2746590507,11.1887702505,19865,2018-07-07 14:54:01:342
0.3926,3.2944,10.7069,276.44,-20.08,-3.93,-0.6171680633,0.2746590507,11.1887702505,19889,2018-07-07 14:54:01:366
0.3926,3.2944,10.7069,276.44,-20.08,-3.93,-0.6171680633,0.2746590507,11.1887702505,19913,2018-07-07 14:54:01:390
0.3926,3.2944,10.7069,276.44,-20.08,-3.93,-0.6171680633,0.2746590507,11.1887702505,19937,2018-07-07 14:54:01:414
-0.3831,2.3846,8.7053,276.44,-20.08,-3.93,-0.838277237,0.8904354579,8.9509634582,19962,2018-07-07 14:54:01:439
-0.3831,2.3846,8.7053,276.44,-20.08,-3.93,-0.838277237,0.8904354579,8.9509634582,19985,2018-07-07 14:54:01:462
-0.3831,2.3846,8.7053,276.44,-20.08,-3.93,-0.838277237,0.8904354579,8.9509634582,20009,2018-07-07 14:54:01:486
-0.3831,2.3846,8.7053,276.44,-20.08,-3.93,-0.838277237,0.8904354579,8.9509634582,20033,2018-07-07 14:54:01:510
-0.3831,2.3846,8.7053,277.78,-15.31,2.52,-0.0007994807,-0.0001356169,9.0341203336,20057,2018-07-07 14:54:01:534
0.6895,2.8635,7.9392,277.78,-15.31,2.52,0.8099145497,-0.936890918,8.3768856367,20081,2018-07-07 14:54:01:558
0.6895,2.8635,7.9392,277.78,-15.31,2.52,0.8099145497,-0.936890918,8.3768856367,20106,2018-07-07 14:54:01:583
0.6895,2.8635,7.9392,277.78,-15.31,2.52,0.8099145497,-0.936890918,8.3768856367,20130,2018-07-07 14:54:01:607
0.6895,2.8635,7.9392,277.78,-15.31,2.52,0.8099145497,-0.936890918,8.3768856367,20153,2018-07-07 14:54:01:630
0.6895,2.8635,7.9392,277.78,-15.31,2.52,0.8099145497,-0.936890918,8.3768856367,20178,2018-07-07 14:54:01:655
0.7183,3.6105,8.4946,277.78,-15.31,2.52,1.3861461949,-0.9118481233,9.1080747706,20201,2018-07-07 14:54:01:678
0.7183,3.6105,8.4946,277.78,-15.31,2.52,1.3861461949,-0.9118481233,9.1080747706,20225,2018-07-07 14:54:01:702
0.7183,3.6105,8.4946,277.78,-15.31,2.52,1.3861461949,-0.9118481233,9.1080747706,20249,2018-07-07 14:54:01:726
0.7183,3.6105,8.4946,276.74,-22.95,-4.83,0.0006673459,-0.0004320412,9.2579637971,20273,2018-07-07 14:54:01:750
0.5459,3.7062,8.4755,276.74,-22.95,-4.83,0.0812012147,0.1804494009,9.264387183,20297,2018-07-07 14:54:01:774
0.5459,3.7062,8.4755,276.74,-22.95,-4.83,0.0812012147,0.1804494009,9.264387183,20322,2018-07-07 14:54:01:799
0.5459,3.7062,8.4755,276.74,-22.95,-4.83,0.0812012147,0.1804494009,9.264387183,20346,2018-07-07 14:54:01:823
0.5459,3.7062,8.4755,276.74,-22.95,-4.83,0.0812012147,0.1804494009,9.264387183,20369,2018-07-07 14:54:01:846
0.5459,3.7062,8.4755,276.74,-22.95,-4.83,0.0812012147,0.1804494009,9.264387183,20394,2018-07-07 14:54:01:871
1.1013,3.2753,9.7971,276.74,-22.95,-4.83,-0.7890147609,-0.3676199618,10.3520979256,20418,2018-07-07 14:54:01:895
1.1013,3.2753,9.7971,276.74,-22.95,-4.83,-0.7890147609,-0.3676199618,10.3520979256,20442,2018-07-07 14:54:01:919
1.1013,3.2753,9.7971,271.15,-18.38,-6.41,-0.0004292785,-0.0006523947,10.3886293408,20465,2018-07-07 14:54:01:942
1.1013,3.2753,9.7971,271.15,-18.38,-6.41,-0.0004292785,-0.0006523947,10.3886293408,20489,2018-07-07 14:54:01:966
1.1013,3.2753,9.7971,271.15,-18.38,-6.41,-0.0004292785,-0.0006523947,10.3886293408,20513,2018-07-07 14:54:01:990
1.0726,2.308,9.7779,271.15,-18.38,-6.41,-0.911702898,0.0074370759,10.0624751272,20537,2018-07-07 14:54:02:014
1.0726,2.308,9.7779,271.15,-18.38,-6.41,-0.911702898,0.0074370759,10.0624751272,20562,2018-07-07 14:54:02:039
1.0726,2.308,9.7779,271.15,-18.38,-6.41,-0.911702898,0.0074370759,10.0624751272,20585,2018-07-07 14:54:02:062
1.0726,2.308,9.7779,271.15,-18.38,-6.41,-0.911702898,0.0074370759,10.0624751272,20610,2018-07-07 14:54:02:087
1.0726,2.308,9.7779,271.15,-18.38,-6.41,-0.911702898,0.0074370759,10.0624751272,20634,2018-07-07 14:54:02:111
1.6472,2.3463,8.2935,264.69,-15.51,-11.23,-0.0002455903,-0.0004988659,8.7749947847,20657,2018-07-07 14:54:02:134
1.6472,2.3463,8.2935,264.69,-15.51,-11.23,-0.0002455903,-0.0004988659,8.7749947847,20681,2018-07-07 14:54:02:158
1.6472,2.3463,8.2935,264.69,-15.51,-11.23,-0.0002455903,-0.0004988659,8.7749947847,20706,2018-07-07 14:54:02:183
1.6472,2.3463,8.2935,264.69,-15.51,-11.23,-0.0002455903,-0.0004988659,8.7749947847,20729,2018-07-07 14:54:02:206
1.6472,2.3463,8.2935,264.69,-15.51,-11.23,-0.0002455903,-0.0004988659,8.7749947847,20754,2018-07-07 14:54:02:231
0.6704,2.8443,8.3127,264.69,-15.51,-11.23,0.6122085071,0.908559807,8.743007478,20778,2018-07-07 14:54:02:255
0.6704,2.8443,8.3127,264.69,-15.51,-11.23,0.6122085071,0.908559807,8.743007478,20801,2018-07-07 14:54:02:278
0.6704,2.8443,8.3127,264.69,-15.51,-11.23,0.6122085071,0.908559807,8.743007478,20825,2018-07-07 14:54:02:302
0.6704,2.8443,8.3127,264.69,-15.51,-11.23,0.6122085071,0.908559807,8.743007478,20849,2018-07-07 14:54:02:326
0.6704,2.8443,8.3127,266.16,-18.83,-4.61,0.0003365911,-0.0001382636,8.8113824005,20874,2018-07-07 14:54:02:351
1.2641,3.3806,9.1267,266.16,-18.83,-4.61,0.1948875742,-0.5407368688,9.797585444,20897,2018-07-07 14:54:02:374
1.2641,3.3806,9.1267,266.16,-18.83,-4.61,0.1948875742,-0.5407368688,9.797585444,20922,2018-07-07 14:54:02:399
1.2641,3.3806,9.1267,266.16,-18.83,-4.61,0.1948875742,-0.5407368688,9.797585444,20945,2018-07-07 14:54:02:422
1.2641,3.3806,9.1267,266.16,-18.83,-4.61,0.1948875742,-0.5407368688,9.797585444,20969,2018-07-07 14:54:02:446
1.2641,3.3806,9.1267,266.16,-18.83,-4.61,0.1948875742,-0.5407368688,9.797585444,20993,2018-07-07 14:54:02:470
0.8332,3.5243,10.908,266.16,-18.83,-4.61,-0.191691441,0.0591735549,11.491698291,21017,2018-07-07 14:54:02:494
0.8332,3.5243,10.908,266.16,-18.83,-4.61,-0.191691441,0.0591735549,11.491698291,21041,2018-07-07 14:54:02:518
0.8332,3.5243,10.908,265.53,-17.86,-4.37,-0.0006526722,0.0004309311,11.4934492698,21066,2018-07-07 14:54:02:543
0.8332,3.5243,10.908,265.53,-17.86,-4.37,-0.0006526722,0.0004309311,11.4934492698,21089,2018-07-07 14:54:02:566
0.8332,3.5243,10.908,265.53,-17.86,-4.37,-0.0006526722,0.0004309311,11.4934492698,21113,2018-07-07 14:54:02:590
0.7374,2.6624,12.8617,265.53,-17.86,-4.37,-1.3928678663,0.3544003163,13.0763060125,21138,2018-07-07 14:54:02:615
0.7374,2.6624,12.8617,265.53,-17.86,-4.37,-1.3928678663,0.3544003163,13.0763060125,21162,2018-07-07 14:54:02:639
0.7374,2.6624,12.8617,265.53,-17.86,-4.37,-1.3928678663,0.3544003163,13.0763060125,21186,2018-07-07 14:54:02:663
0.7374,2.6624,12.8617,265.53,-17.86,-4.37,-1.3928678663,0.3544003163,13.0763060125,21210,2018-07-07 14:54:02:687
0.7374,2.6624,12.8617,265.53,-17.86,-4.37,-1.3928678663,0.3544003163,13.0763060125,21233,2018-07-07 14:54:02:710
0.2777,1.9249,9.8067,263.83,-11.1,-1.62,9.0112090925798E-05,-0.0003598077,9.9976858349,21258,2018-07-07 14:54:02:735
0.2777,1.9249,9.8067,263.83,-11.1,-1.62,9.0112090925798E-05,-0.0003598077,9.9976858349,21282,2018-07-07 14:54:02:759
0.2777,1.9249,9.8067,263.83,-11.1,-1.62,9.0112090925798E-05,-0.0003598077,9.9976858349,21306,2018-07-07 14:54:02:783
0.2777,1.9249,9.8067,263.83,-11.1,-1.62,9.0112090925798E-05,-0.0003598077,9.9976858349,21330,2018-07-07 14:54:02:807
0.2777,1.9249,9.8067,263.83,-11.1,-1.62,9.0112090925798E-05,-0.0003598077,9.9976858349,21353,2018-07-07 14:54:02:830
0.0096,2.4612,7.9296,263.83,-11.1,-1.62,0.9070056654,0.1177764734,8.2522495833,21377,2018-07-07 14:54:02:854
0.0096,2.4612,7.9296,263.83,-11.1,-1.62,0.9070056654,0.1177764734,8.2522495833,21401,2018-07-07 14:54:02:878
0.0096,2.4612,7.9296,263.83,-11.1,-1.62,0.9070056654,0.1177764734,8.2522495833,21425,2018-07-07 14:54:02:902
0.0096,2.4612,7.9296,263.83,-11.1,-1.62,0.9070056654,0.1177764734,8.2522495833,21450,2018-07-07 14:54:02:927
0.0096,2.4612,7.9296,268.4,-17.24,-0.07,0.0004886627,7.42234156369537E-05,8.3027798667,21474,2018-07-07 14:54:02:951
0.6512,3.2465,9.3087,268.4,-17.24,-0.07,0.3235434003,-0.649113736,9.8534100902,21498,2018-07-07 14:54:02:975
0.6512,3.2465,9.3087,268.4,-17.24,-0.07,0.3235434003,-0.649113736,9.8534100902,21521,2018-07-07 14:54:02:998
0.6512,3.2465,9.3087,268.4,-17.24,-0.07,0.3235434003,-0.649113736,9.8534100902,21545,2018-07-07 14:54:03:022
0.6512,3.2465,9.3087,268.4,-17.24,-0.07,0.3235434003,-0.649113736,9.8534100902,21569,2018-07-07 14:54:03:046
0.8619,3.5626,8.7532,268.4,-17.24,-0.07,0.7839174959,-0.8734341081,9.4167981198,21597,2018-07-07 14:54:03:074
0.8619,3.5626,8.7532,266.91,-22.05,-5.62,9.77089414000432E-06,-0.0005549717,9.4896522751,21660,2018-07-07 14:54:03:137
0.8619,3.5626,8.7532,266.91,-22.05,-5.62,9.77089414000432E-06,-0.0005549717,9.4896522751,21661,2018-07-07 14:54:03:138
0.8619,3.5626,8.7532,266.91,-22.05,-5.62,9.77089414000432E-06,-0.0005549717,9.4896522751,21665,2018-07-07 14:54:03:142
0.8619,3.5626,8.7532,266.91,-22.05,-5.62,9.77089414000432E-06,-0.0005549717,9.4896522751,21690,2018-07-07 14:54:03:167
0.7278,3.2657,10.8793,266.91,-22.05,-5.62,-1.0446131787,0.3979994188,11.3271372195,21714,2018-07-07 14:54:03:191
0.7278,3.2657,10.8793,266.91,-22.05,-5.62,-1.0446131787,0.3979994188,11.3271372195,21737,2018-07-07 14:54:03:214
0.7278,3.2657,10.8793,266.91,-22.05,-5.62,-1.0446131787,0.3979994188,11.3271372195,21762,2018-07-07 14:54:03:239
0.7278,3.2657,10.8793,266.91,-22.05,-5.62,-1.0446131787,0.3979994188,11.3271372195,21786,2018-07-07 14:54:03:263
0.7278,3.2657,10.8793,266.91,-22.05,-5.62,-1.0446131787,0.3979994188,11.3271372195,21810,2018-07-07 14:54:03:287
1.0534,2.1261,9.2703,266.91,-22.05,-5.62,-1.5369709078,-0.0577276247,9.4447235433,21833,2018-07-07 14:54:03:310
1.0534,2.1261,9.2703,261.88,-12.84,-6.48,-0.0005137086,-0.0003889496,9.569138647,21857,2018-07-07 14:54:03:334
1.0534,2.1261,9.2703,261.88,-12.84,-6.48,-0.0005137086,-0.0003889496,9.569138647,21882,2018-07-07 14:54:03:359
1.0534,2.1261,9.2703,261.88,-12.84,-6.48,-0.0005137086,-0.0003889496,9.569138647,21906,2018-07-07 14:54:03:383
1.0534,2.1261,9.2703,261.88,-12.84,-6.48,-0.0005137086,-0.0003889496,9.569138647,21930,2018-07-07 14:54:03:407
1.992,2.1835,9.9599,261.88,-12.84,-6.48,-0.2398924297,-0.8296693045,10.3532335397,21953,2018-07-07 14:54:03:430
1.992,2.1835,9.9599,261.88,-12.84,-6.48,-0.2398924297,-0.8296693045,10.3532335397,21977,2018-07-07 14:54:03:454
1.992,2.1835,9.9599,261.88,-12.84,-6.48,-0.2398924297,-0.8296693045,10.3532335397,22001,2018-07-07 14:54:03:478
1.992,2.1835,9.9599,261.88,-12.84,-6.48,-0.2398924297,-0.8296693045,10.3532335397,22025,2018-07-07 14:54:03:502
1.992,2.1835,9.9599,261.88,-12.84,-6.48,-0.2398924297,-0.8296693045,10.3532335397,22049,2018-07-07 14:54:03:526
0.6991,2.6528,7.7955,260.84,-12.13,-11.31,1.0805249447,0.6799688327,8.1649260334,22074,2018-07-07 14:54:03:551
0.6991,2.6528,7.7955,260.84,-12.13,-11.31,1.0805249447,0.6799688327,8.1649260334,22097,2018-07-07 14:54:03:574
0.6991,2.6528,7.7955,260.84,-12.13,-11.31,1.0805249447,0.6799688327,8.1649260334,22121,2018-07-07 14:54:03:598
0.6991,2.6528,7.7955,260.84,-12.13,-11.31,1.0805249447,0.6799688327,8.1649260334,22145,2018-07-07 14:54:03:622
0.6991,2.6528,7.7955,260.84,-12.13,-11.31,1.0805249447,0.6799688327,8.1649260334,22169,2018-07-07 14:54:03:646
1.0534,3.2465,8.9064,260.84,-12.13,-11.31,1.3925474272,0.4984293408,9.4226193081,22194,2018-07-07 14:54:03:671
1.0534,3.2465,8.9064,260.84,-12.13,-11.31,1.3925474272,0.4984293408,9.4226193081,22217,2018-07-07 14:54:03:694
1.0534,3.2465,8.9064,260.84,-12.13,-11.31,1.3925474272,0.4984293408,9.4226193081,22241,2018-07-07 14:54:03:718
1.0534,3.2465,8.9064,265.43,-19.9,-6.75,1.74591712163163E-05,0.0007377185,9.5379963423,22265,2018-07-07 14:54:03:742
1.0534,3.2465,8.9064,265.43,-19.9,-6.75,1.74591712163163E-05,0.0007377185,9.5379963423,22289,2018-07-07 14:54:03:766
1.0247,3.8978,9.8258,265.43,-19.9,-6.75,0.3127180202,0.1127437203,10.6150222262,22313,2018-07-07 14:54:03:790
1.0247,3.8978,9.8258,265.43,-19.9,-6.75,0.3127180202,0.1127437203,10.6150222262,22337,2018-07-07 14:54:03:814
1.0247,3.8978,9.8258,265.43,-19.9,-6.75,0.3127180202,0.1127437203,10.6150222262,22361,2018-07-07 14:54:03:838
1.0247,3.8978,9.8258,265.43,-19.9,-6.75,0.3127180202,0.1127437203,10.6150222262,22385,2018-07-07 14:54:03:862
1.0247,3.8978,9.8258,265.43,-19.9,-6.75,0.3127180202,0.1127437203,10.6150222262,22409,2018-07-07 14:54:03:886
0.9002,3.6296,10.4483,265.43,-19.9,-6.75,-0.1277682559,0.3453840241,11.0912449364,22434,2018-07-07 14:54:03:911
0.9002,3.6296,10.4483,269.49,-19.09,-4.92,0.0001797522,-0.0007893727,11.097356822,22458,2018-07-07 14:54:03:935
0.9002,3.6296,10.4483,269.49,-19.09,-4.92,0.0001797522,-0.0007893727,11.097356822,22481,2018-07-07 14:54:03:958
0.9002,3.6296,10.4483,269.49,-19.09,-4.92,0.0001797522,-0.0007893727,11.097356822,22505,2018-07-07 14:54:03:982
0.9002,3.6296,10.4483,269.49,-19.09,-4.92,0.0001797522,-0.0007893727,11.097356822,22529,2018-07-07 14:54:04:006
-0.431,2.1261,7.5753,269.49,-19.09,-4.92,-0.4375061714,1.083042513,7.7927427498,22553,2018-07-07 14:54:04:030
-0.431,2.1261,7.5753,269.49,-19.09,-4.92,-0.4375061714,1.083042513,7.7927427498,22577,2018-07-07 14:54:04:054
-0.431,2.1261,7.5753,269.49,-19.09,-4.92,-0.4375061714,1.083042513,7.7927427498,22601,2018-07-07 14:54:04:078
-0.431,2.1261,7.5753,269.49,-19.09,-4.92,-0.4375061714,1.083042513,7.7927427498,22626,2018-07-07 14:54:04:103
-0.431,2.1261,7.5753,269.49,-19.09,-4.92,-0.4375061714,1.083042513,7.7927427498,22649,2018-07-07 14:54:04:126
0.4693,2.0877,9.2703,269.49,-19.09,-4.92,-1.0580255004,0.3369246442,9.4490348552,22674,2018-07-07 14:54:04:151
0.4693,2.0877,9.2703,269.49,-19.09,-4.92,-1.0580255004,0.3369246442,9.4490348552,22697,2018-07-07 14:54:04:174
0.4693,2.0877,9.2703,269.49,-19.09,-4.92,-1.0580255004,0.3369246442,9.4490348552,22721,2018-07-07 14:54:04:198
0.4693,2.0877,9.2703,269.49,-19.09,-4.92,-1.0580255004,0.3369246442,9.4490348552,22746,2018-07-07 14:54:04:223
0.4693,2.0877,9.2703,272.71,-12.68,-2.9,-0.0007196329,0.0002790253,9.5140525158,22769,2018-07-07 14:54:04:246
1.1013,2.8347,7.604,272.71,-12.68,-2.9,1.1189505768,-0.663017539,8.0856390675,22794,2018-07-07 14:54:04:271
1.1013,2.8347,7.604,272.71,-12.68,-2.9,1.1189505768,-0.663017539,8.0856390675,22817,2018-07-07 14:54:04:294
1.1013,2.8347,7.604,272.71,-12.68,-2.9,1.1189505768,-0.663017539,8.0856390675,22841,2018-07-07 14:54:04:318
1.1013,2.8347,7.604,272.71,-12.68,-2.9,1.1189505768,-0.663017539,8.0856390675,22865,2018-07-07 14:54:04:342
0.9385,3.2944,8.5042,272.71,-12.68,-2.9,1.3617773858,-0.4431553343,9.0556306766,22890,2018-07-07 14:54:04:367
0.9385,3.2944,8.5042,272.71,-12.68,-2.9,1.3617773858,-0.4431553343,9.0556306766,22913,2018-07-07 14:54:04:390
0.9385,3.2944,8.5042,272.71,-12.68,-2.9,1.3617773858,-0.4431553343,9.0556306766,22937,2018-07-07 14:54:04:414
0.9385,3.2944,8.5042,276.14,-21.06,-6.3,-0.0001869485,0.0003521964,9.1681661793,22962,2018-07-07 14:54:04:439
0.9385,3.2944,8.5042,276.14,-21.06,-6.3,-0.0001869485,0.0003521964,9.1681661793,22986,2018-07-07 14:54:04:463
1.4557,3.4285,11.0804,276.14,-21.06,-6.3,-0.7861682336,-0.3169140329,11.6589212153,23009,2018-07-07 14:54:04:486
1.4557,3.4285,11.0804,276.14,-21.06,-6.3,-0.7861682336,-0.3169140329,11.6589212153,23033,2018-07-07 14:54:04:510
1.4557,3.4285,11.0804,276.14,-21.06,-6.3,-0.7861682336,-0.3169140329,11.6589212153,23058,2018-07-07 14:54:04:535
1.4557,3.4285,11.0804,276.14,-21.06,-6.3,-0.7861682336,-0.3169140329,11.6589212153,23082,2018-07-07 14:54:04:559
1.4557,3.4285,11.0804,276.14,-21.06,-6.3,-0.7861682336,-0.3169140329,11.6589212153,23106,2018-07-07 14:54:04:583
2.2601,2.3367,11.789,276.14,-21.06,-6.3,-2.0051756199,-1.1739980069,12.0062375169,23129,2018-07-07 14:54:04:606
2.2601,2.3367,11.789,276.14,-21.06,-6.3,-2.0051756199,-1.1739980069,12.0062375169,23153,2018-07-07 14:54:04:630
2.2601,2.3367,11.789,268.26,-11.02,-10.85,-0.0009289114,-0.0005259406,12.2290121744,23178,2018-07-07 14:54:04:655
2.2601,2.3367,11.789,268.26,-11.02,-10.85,-0.0009289114,-0.0005259406,12.2290121744,23201,2018-07-07 14:54:04:678
2.2601,2.3367,11.789,268.26,-11.02,-10.85,-0.0009289114,-0.0005259406,12.2290121744,23225,2018-07-07 14:54:04:702
1.5323,1.8962,9.4715,268.26,-11.02,-10.85,0.0364006084,0.2770153256,9.7762348317,23249,2018-07-07 14:54:04:726
1.5323,1.8962,9.4715,268.26,-11.02,-10.85,0.0364006084,0.2770153256,9.7762348317,23273,2018-07-07 14:54:04:750
1.5323,1.8962,9.4715,268.26,-11.02,-10.85,0.0364006084,0.2770153256,9.7762348317,23298,2018-07-07 14:54:04:775
1.5323,1.8962,9.4715,268.26,-11.02,-10.85,0.0364006084,0.2770153256,9.7762348317,23321,2018-07-07 14:54:04:798
1.5323,1.8962,9.4715,268.26,-11.02,-10.85,0.0364006084,0.2770153256,9.7762348317,23345,2018-07-07 14:54:04:822
1.1971,2.4421,7.6423,266.5,-11.18,-9.19,0.8966241258,-0.015958261,8.0621002612,23369,2018-07-07 14:54:04:846
1.1971,2.4421,7.6423,266.5,-11.18,-9.19,0.8966241258,-0.015958261,8.0621002612,23393,2018-07-07 14:54:04:870
1.1971,2.4421,7.6423,266.5,-11.18,-9.19,0.8966241258,-0.015958261,8.0621002612,23418,2018-07-07 14:54:04:895
1.1971,2.4421,7.6423,266.5,-11.18,-9.19,0.8966241258,-0.015958261,8.0621002612,23441,2018-07-07 14:54:04:918
1.1971,2.4421,7.6423,266.5,-11.18,-9.19,0.8966241258,-0.015958261,8.0621002612,23465,2018-07-07 14:54:04:942
1.4844,2.988,8.9064,266.5,-11.18,-9.19,1.175795037,-0.1149100468,9.4371526443,23490,2018-07-07 14:54:04:967
1.4844,2.988,8.9064,266.5,-11.18,-9.19,1.175795037,-0.1149100468,9.4371526443,23513,2018-07-07 14:54:04:990
1.4844,2.988,8.9064,266.5,-11.18,-9.19,1.175795037,-0.1149100468,9.4371526443,23537,2018-07-07 14:54:05:014
1.4844,2.988,8.9064,268.56,-18.31,-9.46,9.69187855384135E-05,-0.0003685092,9.5108121722,23561,2018-07-07 14:54:05:038
1.4844,2.988,8.9064,268.56,-18.31,-9.46,9.69187855384135E-05,-0.0003685092,9.5108121722,23586,2018-07-07 14:54:05:063
1.0439,3.8499,9.2033,268.56,-18.31,-9.46,0.7610085203,0.4639639987,9.9908854237,23610,2018-07-07 14:54:05:087
1.0439,3.8499,9.2033,268.56,-18.31,-9.46,0.7610085203,0.4639639987,9.9908854237,23634,2018-07-07 14:54:05:111
1.0439,3.8499,9.2033,268.56,-18.31,-9.46,0.7610085203,0.4639639987,9.9908854237,23657,2018-07-07 14:54:05:134
1.0439,3.8499,9.2033,268.56,-18.31,-9.46,0.7610085203,0.4639639987,9.9908854237,23681,2018-07-07 14:54:05:158
1.0439,3.8499,9.2033,268.56,-18.31,-9.46,0.7610085203,0.4639639987,9.9908854237,23705,2018-07-07 14:54:05:182
0.6321,3.9648,10.1706,268.56,-18.31,-9.46,0.6058584973,1.0332269431,10.8685634458,23729,2018-07-07 14:54:05:206
0.6321,3.9648,10.1706,268.56,-18.31,-9.46,0.6058584973,1.0332269431,10.8685634458,23754,2018-07-07 14:54:05:231
0.6321,3.9648,10.1706,274.54,-21.26,-3.56,-5.96702619608536E-05,0.0006477548,10.9343629621,23778,2018-07-07 14:54:05:255
0.6321,3.9648,10.1706,274.54,-21.26,-3.56,-5.96702619608536E-05,0.0006477548,10.9343629621,23802,2018-07-07 14:54:05:279
0.6321,3.9648,10.1706,274.54,-21.26,-3.56,-5.96702619608536E-05,0.0006477548,10.9343629621,23825,2018-07-07 14:54:05:302
-0.814,1.6759,8.0541,274.54,-21.26,-3.56,-1.4343199218,1.2027787807,8.0520688762,23850,2018-07-07 14:54:05:327
-0.814,1.6759,8.0541,274.54,-21.26,-3.56,-1.4343199218,1.2027787807,8.0520688762,23873,2018-07-07 14:54:05:350
-0.814,1.6759,8.0541,274.54,-21.26,-3.56,-1.4343199218,1.2027787807,8.0520688762,23898,2018-07-07 14:54:05:375
-0.814,1.6759,8.0541,274.54,-21.26,-3.56,-1.4343199218,1.2027787807,8.0520688762,23921,2018-07-07 14:54:05:398
-0.814,1.6759,8.0541,274.54,-21.26,-3.56,-1.4343199218,1.2027787807,8.0520688762,23945,2018-07-07 14:54:05:422
1.0247,2.0016,8.9926,269.92,-12.47,-6.5,5.71328748215638E-05,-0.0001219403,9.2694804273,23969,2018-07-07 14:54:05:446
1.0247,2.0016,8.9926,269.92,-12.47,-6.5,5.71328748215638E-05,-0.0001219403,9.2694804273,23994,2018-07-07 14:54:05:471
1.0247,2.0016,8.9926,269.92,-12.47,-6.5,5.71328748215638E-05,-0.0001219403,9.2694804273,24051,2018-07-07 14:54:05:528
1.0247,2.0016,8.9926,269.92,-12.47,-6.5,5.71328748215638E-05,-0.0001219403,9.2694804273,24052,2018-07-07 14:54:05:529
1.0247,2.0016,8.9926,269.92,-12.47,-6.5,5.71328748215638E-05,-0.0001219403,9.2694804273,24065,2018-07-07 14:54:05:542
0.4788,2.7102,8.2648,269.92,-12.47,-6.5,0.8620684873,0.4586764895,8.6560849303,24089,2018-07-07 14:54:05:566
0.4788,2.7102,8.2648,269.92,-12.47,-6.5,0.8620684873,0.4586764895,8.6560849303,24113,2018-07-07 14:54:05:590
0.4788,2.7102,8.2648,269.92,-12.47,-6.5,0.8620684873,0.4586764895,8.6560849303,24137,2018-07-07 14:54:05:614
0.4788,2.7102,8.2648,271.81,-18.13,-3.32,-0.0004769978,0.0006241501,8.710990294,24162,2018-07-07 14:54:05:639
0.4788,2.7102,8.2648,271.81,-18.13,-3.32,-0.0004769978,0.0006241501,8.710990294,24185,2018-07-07 14:54:05:662
0.6416,3.1699,10.3142,271.81,-18.13,-3.32,-0.2016975338,-0.0495973668,10.8073815708,24209,2018-07-07 14:54:05:686
0.6416,3.1699,10.3142,271.81,-18.13,-3.32,-0.2016975338,-0.0495973668,10.8073815708,24234,2018-07-07 14:54:05:711
0.6416,3.1699,10.3142,271.81,-18.13,-3.32,-0.2016975338,-0.0495973668,10.8073815708,24258,2018-07-07 14:54:05:735
0.6416,3.1699,10.3142,271.81,-18.13,-3.32,-0.2016975338,-0.0495973668,10.8073815708,24281,2018-07-07 14:54:05:758
1.6376,3.4668,9.912,271.81,-18.13,-3.32,0.219405223,-1.0544188797,10.572995894,24306,2018-07-07 14:54:05:783
1.6376,3.4668,9.912,271.81,-18.13,-3.32,0.219405223,-1.0544188797,10.572995894,24329,2018-07-07 14:54:05:806
1.6376,3.4668,9.912,271.81,-18.13,-3.32,0.219405223,-1.0544188797,10.572995894,24353,2018-07-07 14:54:05:830
1.6376,3.4668,9.912,267.47,-19.04,-9.38,-0.0002826152,-0.0002182148,10.6277081195,24378,2018-07-07 14:54:05:855
1.9824,2.9592,10.5536,267.47,-19.04,-9.38,-0.7146684522,-0.2045033194,11.113625635,24402,2018-07-07 14:54:05:879
1.9824,2.9592,10.5536,267.47,-19.04,-9.38,-0.7146684522,-0.2045033194,11.113625635,24425,2018-07-07 14:54:05:902
1.9824,2.9592,10.5536,267.47,-19.04,-9.38,-0.7146684522,-0.2045033194,11.113625635,24449,2018-07-07 14:54:05:926
1.9824,2.9592,10.5536,267.47,-19.04,-9.38,-0.7146684522,-0.2045033194,11.113625635,24473,2018-07-07 14:54:05:950
1.9824,2.9592,10.5536,267.47,-19.04,-9.38,-0.7146684522,-0.2045033194,11.113625635,24498,2018-07-07 14:54:05:975
1.3695,1.8483,8.6191,267.47,-19.04,-9.38,-1.0963942014,0.1020629585,8.8525776392,24521,2018-07-07 14:54:05:998
1.3695,1.8483,8.6191,267.47,-19.04,-9.38,-1.0963942014,0.1020629585,8.8525776392,24545,2018-07-07 14:54:06:022
1.3695,1.8483,8.6191,261.16,-11.96,-9.03,-0.0003101766,0.0003059793,8.9207974845,24570,2018-07-07 14:54:06:047
1.7142,1.8675,9.4523,261.16,-11.96,-9.03,-0.193544726,-0.181817771,9.7827141386,24593,2018-07-07 14:54:06:070
1.7142,1.8675,9.4523,261.16,-11.96,-9.03,-0.193544726,-0.181817771,9.7827141386,24617,2018-07-07 14:54:06:094
1.7142,1.8675,9.4523,261.16,-11.96,-9.03,-0.193544726,-0.181817771,9.7827141386,24641,2018-07-07 14:54:06:118
1.7142,1.8675,9.4523,261.16,-11.96,-9.03,-0.193544726,-0.181817771,9.7827141386,24665,2018-07-07 14:54:06:142
1.7142,1.8675,9.4523,261.16,-11.96,-9.03,-0.193544726,-0.181817771,9.7827141386,24689,2018-07-07 14:54:06:166
1.1109,2.5283,7.6327,261.16,-11.96,-9.03,0.8802730137,-0.0348580374,8.0689784563,24714,2018-07-07 14:54:06:191
1.1109,2.5283,7.6327,261.16,-11.96,-9.03,0.8802730137,-0.0348580374,8.0689784563,24737,2018-07-07 14:54:06:214
1.1109,2.5283,7.6327,261.82,-18.15,-8.28,-0.0001953076,-0.0001022615,8.1169273091,24762,2018-07-07 14:54:06:239
1.0343,2.806,8.916,261.82,-18.15,-8.28,-0.0900789868,0.2761074336,9.3996871731,24785,2018-07-07 14:54:06:262
1.0343,2.806,8.916,261.82,-18.15,-8.28,-0.0900789868,0.2761074336,9.3996871731,24809,2018-07-07 14:54:06:286
1.0343,2.806,8.916,261.82,-18.15,-8.28,-0.0900789868,0.2761074336,9.3996871731,24833,2018-07-07 14:54:06:310
1.0343,2.806,8.916,261.82,-18.15,-8.28,-0.0900789868,0.2761074336,9.3996871731,24857,2018-07-07 14:54:06:334
1.0343,2.806,8.916,261.82,-18.15,-8.28,-0.0900789868,0.2761074336,9.3996871731,24882,2018-07-07 14:54:06:359
1.1301,3.6296,8.7819,261.82,-18.15,-8.28,0.7050063755,0.0465310043,9.5432536724,24905,2018-07-07 14:54:06:382
1.1301,3.6296,8.7819,261.82,-18.15,-8.28,0.7050063755,0.0465310043,9.5432536724,24930,2018-07-07 14:54:06:407
1.1301,3.6296,8.7819,261.82,-18.15,-8.28,0.7050063755,0.0465310043,9.5432536724,24953,2018-07-07 14:54:06:430
1.1301,3.6296,8.7819,263.22,-22.29,-7.33,-6.42637123489109E-05,-0.0004305391,9.5693724763,24977,2018-07-07 14:54:06:454
1.1301,3.6296,8.7819,263.22,-22.29,-7.33,-6.42637123489109E-05,-0.0004305391,9.5693724763,25002,2018-07-07 14:54:06:479
1.0918,3.6966,11.3485,263.22,-22.29,-7.33,-0.8523103354,0.4689095327,11.9456695916,25026,2018-07-07 14:54:06:503
1.0918,3.6966,11.3485,263.22,-22.29,-7.33,-0.8523103354,0.4689095327,11.9456695916,25050,2018-07-07 14:54:06:527
1.0918,3.6966,11.3485,263.22,-22.29,-7.33,-0.8523103354,0.4689095327,11.9456695916,25074,2018-07-07 14:54:06:551
1.0918,3.6966,11.3485,263.22,-22.29,-7.33,-0.8523103354,0.4689095327,11.9456695916,25098,2018-07-07 14:54:06:575
1.0918,3.6966,11.3485,263.22,-22.29,-7.33,-0.8523103354,0.4689095327,11.9456695916,25122,2018-07-07 14:54:06:599
-0.1053,2.0494,10.3238,263.22,-22.29,-7.33,-1.8007130832,1.6456866729,10.2391954106,25146,2018-07-07 14:54:06:623
-0.1053,2.0494,10.3238,260.53,-11.23,0.58,-0.0003462071,0.0008581518,10.5257766475,25169,2018-07-07 14:54:06:646
-0.1053,2.0494,10.3238,260.53,-11.23,0.58,-0.0003462071,0.0008581518,10.5257766475,25193,2018-07-07 14:54:06:670
-0.1053,2.0494,10.3238,260.53,-11.23,0.58,-0.0003462071,0.0008581518,10.5257766475,25218,2018-07-07 14:54:06:695
-0.1053,2.0494,10.3238,260.53,-11.23,0.58,-0.0003462071,0.0008581518,10.5257766475,25242,2018-07-07 14:54:06:719
0.2011,1.9632,10.6973,260.53,-11.23,0.58,-0.2059229421,-0.2793012565,10.8722770977,25266,2018-07-07 14:54:06:743
0.2011,1.9632,10.6973,260.53,-11.23,0.58,-0.2059229421,-0.2793012565,10.8722770977,25289,2018-07-07 14:54:06:766
0.2011,1.9632,10.6973,260.53,-11.23,0.58,-0.2059229421,-0.2793012565,10.8722770977,25313,2018-07-07 14:54:06:790
0.2011,1.9632,10.6973,260.53,-11.23,0.58,-0.2059229421,-0.2793012565,10.8722770977,25337,2018-07-07 14:54:06:814
0.2011,1.9632,10.6973,262.06,-10.4,-1.08,-0.0003789245,0.0006214398,10.8778133009,25362,2018-07-07 14:54:06:839
0.747,2.4421,7.6614,262.06,-10.4,-1.08,0.9236864528,-0.7371228296,7.9888900757,25385,2018-07-07 14:54:06:862
0.747,2.4421,7.6614,262.06,-10.4,-1.08,0.9236864528,-0.7371228296,7.9888900757,25409,2018-07-07 14:54:06:886
0.747,2.4421,7.6614,262.06,-10.4,-1.08,0.9236864528,-0.7371228296,7.9888900757,25433,2018-07-07 14:54:06:910
0.747,2.4421,7.6614,262.06,-10.4,-1.08,0.9236864528,-0.7371228296,7.9888900757,25457,2018-07-07 14:54:06:934
0.9577,3.1508,9.1075,262.06,-10.4,-1.08,1.3295158652,-0.9789062427,9.5428201446,25483,2018-07-07 14:54:06:960
0.9577,3.1508,9.1075,262.06,-10.4,-1.08,1.3295158652,-0.9789062427,9.5428201446,25505,2018-07-07 14:54:06:982
0.9577,3.1508,9.1075,262.06,-10.4,-1.08,1.3295158652,-0.9789062427,9.5428201446,25529,2018-07-07 14:54:07:006
0.9577,3.1508,9.1075,262.06,-10.4,-1.08,1.3295158652,-0.9789062427,9.5428201446,25553,2018-07-07 14:54:07:030
0.8236,3.2848,8.6479,265.87,-18.99,-6,0.2847605385,0.0645226496,9.2827340085,25577,2018-07-07 14:54:07:054
0.8236,3.2848,8.6479,265.87,-18.99,-6,0.2847605385,0.0645226496,9.2827340085,25602,2018-07-07 14:54:07:079
0.8236,3.2848,8.6479,265.87,-18.99,-6,0.2847605385,0.0645226496,9.2827340085,25626,2018-07-07 14:54:07:103
0.8236,3.2848,8.6479,265.87,-18.99,-6,0.2847605385,0.0645226496,9.2827340085,25649,2018-07-07 14:54:07:126
0.8236,3.2848,8.6479,265.87,-18.99,-6,0.2847605385,0.0645226496,9.2827340085,25673,2018-07-07 14:54:07:150
1.2258,3.2178,10.3717,265.87,-18.99,-6,-0.3643124823,-0.1089924341,10.9217388924,25698,2018-07-07 14:54:07:175
1.2258,3.2178,10.3717,265.87,-18.99,-6,-0.3643124823,-0.1089924341,10.9217388924,25722,2018-07-07 14:54:07:199
1.2258,3.2178,10.3717,265.87,-18.99,-6,-0.3643124823,-0.1089924341,10.9217388924,25746,2018-07-07 14:54:07:223
1.2258,3.2178,10.3717,261.05,-17.12,-6.74,0.0007927566,-0.000189125,10.9283568164,25769,2018-07-07 14:54:07:246
1.2258,3.2178,10.3717,261.05,-17.12,-6.74,0.0007927566,-0.000189125,10.9283568164,25793,2018-07-07 14:54:07:270
0.5555,1.8771,10.4004,261.05,-17.12,-6.74,-1.146229064,0.8577374891,10.4857450929,25817,2018-07-07 14:54:07:294
0.5555,1.8771,10.4004,261.05,-17.12,-6.74,-1.146229064,0.8577374891,10.4857450929,25841,2018-07-07 14:54:07:318
0.5555,1.8771,10.4004,261.05,-17.12,-6.74,-1.146229064,0.8577374891,10.4857450929,25865,2018-07-07 14:54:07:342
0.5555,1.8771,10.4004,261.05,-17.12,-6.74,-1.146229064,0.8577374891,10.4857450929,25890,2018-07-07 14:54:07:367
1.6759,2.1356,9.8162,261.05,-17.12,-6.74,-0.9554884782,-0.3680824512,10.1330532263,25914,2018-07-07 14:54:07:391
