ACCELEROMETER X (m/s²),ACCELEROMETER Y (m/s²),ACCELEROMETER Z (m/s²),GRAVITY X (m/s²),GRAVITY Y (m/s²),GRAVITY Z (m/s²),LINEAR ACCELERATION X (m/s²),LINEAR ACCELERATION Y (m/s²),LINEAR ACCELERATION Z (m/s²),GYROSCOPE X (rad/s),GYROSCOPE Y (rad/s),GYROSCOPE Z (rad/s),LIGHT (lux),MAGNETIC FIELD X (μT),MAGNETIC FIELD Y (μT),MAGNETIC FIELD Z (μT),ORIENTATION Z (azimuth °),ORIENTATION X (pitch °),ORIENTATION Y (roll °),PROXIMITY (i),OUT
0.764,7.52,0.857,1.016,9.615,1.637,-0.466,-1.913,-1.022,0.029,-0.231,-0.533,8,29.4,-26.5,-20,262.3,-78.3,-33.8,3,0
-0.273,7.456,1.178,0.694,9.645,1.632,-0.941,-2.208,-0.317,-0.054,0.364,-0.095,8,29.9,-25,-20.6,272.6,-79.6,-25.9,3,0
1.432,8.521,0.517,0.84,9.625,1.683,0.642,-1.154,-1.068,-0.143,-0.578,0.185,12,30.2,-25.2,-20.2,271.7,-79.4,-24.5,3,0
1.767,11.835,0.836,0.855,9.668,1.403,1.527,1.575,-1.185,0.232,0.16,-0.531,12,29,-25.2,-21.7,269.3,-79.8,-30.8,3,0
0.453,14.488,0.979,0.521,9.734,1.075,-0.154,4.816,-0.198,0.058,-0.158,0.078,17,30.1,-24.3,-21.8,275.8,-83,-25.9,3,0
0.22,10.623,1.772,0.743,9.715,1.116,-0.438,0.844,0.395,0.011,-0.511,0.337,17,29.2,-25.4,-21.2,266.8,-82.1,-33.6,3,0
1.063,6.299,2.617,0.943,9.64,1.535,0.276,-3.139,0.795,-0.189,0.126,-0.229,16,28.4,-25.7,-23,268.4,-79.8,-33.6,3,0
0.546,6.589,-0.273,0.697,9.708,1.201,-0.311,-3.011,-1.347,0.364,-0.453,0.019,16,28.1,-24.9,-23.3,274.4,-80.9,-28,3,0
0.263,9.694,-0.678,0.752,9.719,1.066,-0.539,-0.897,-1.95,-0.021,-0.125,0.061,22,27.6,-24.9,-23.6,269.5,-82.3,-34.6,3,0
0.362,13.655,2.852,0.801,9.716,1.063,-0.425,3.984,1.906,-0.118,-0.585,0.099,23,26.1,-25,-25,271.4,-82.2,-37,3,0
1.295,11.777,2.327,1.065,9.702,0.952,0.137,2.976,0.315,0.115,-0.104,0.28,23,24.5,-25.3,-26.5,265.7,-81.9,-45.9,3,0
2.088,9.237,-0.366,1.269,9.698,0.716,0.774,-0.549,-1.13,-0.375,-0.555,-0.076,31,23.7,-25.8,-27,256.6,-81.5,-57,3,0
0.323,6.884,2.349,1.131,9.688,1.014,-0.808,-2.805,1.335,0.216,0.343,-0.32,31,22.7,-25.7,-28.1,264.5,-80.8,-49.5,3,0
-0.34,8.421,0.06,0.943,9.713,0.973,-1.28,-1.27,-0.958,-0.451,-0.147,0.287,32,24.5,-25.1,-28,267.7,-82.5,-45.5,3,0
1.475,9.591,-0.069,1.27,9.639,1.287,0.205,-0.047,-1.356,-0.554,-0.361,0.178,32,22.9,-24.4,-29.2,269.7,-80.4,-45.6,3,0
1.274,12.022,2.89,1.277,9.626,1.373,0.322,1.587,1.543,0.309,0.346,-0.266,32,22,-24.1,-30.7,273.9,-78.8,-43.5,3,0
1.846,11.871,1.226,1.066,9.694,1.026,0.78,2.176,0.2,0.149,-0.198,-0.026,32,23.5,-24.8,-28.5,269.3,-81.2,-45.1,3,0
0.553,10.36,1.908,1.009,9.709,0.945,-0.394,0.592,1.267,0.092,0.08,-0.074,32,23.6,-25,-28,269.6,-81.5,-46.4,3,0
0.448,7.748,2.67,1.022,9.658,1.359,-0.567,-1.92,1.272,-0.068,-0.045,-0.023,29,23.6,-24.8,-27.1,272.9,-80.3,-38.7,3,0
0.601,7.745,0.065,0.828,9.671,1.396,0.115,-2.67,-1.636,-0.201,-0.207,-0.405,29,23.2,-23.2,-28.5,283.8,-80.5,-30.7,3,0
0.053,9.232,0.579,0.67,9.704,1.246,-0.644,-0.366,-0.604,0.157,0.114,-0.009,31,23.8,-23,-29.5,289.2,-81.1,-26.9,3,0
0.68,11.533,0.761,0.694,9.726,1.041,-0.055,1.759,-0.115,0.095,0.417,0.079,31,24.1,-23.3,-28.1,284.1,-82.3,-30.5,3,0
0.453,13.267,0.089,0.527,9.766,0.715,-0.096,3.572,-0.67,-0.093,-0.023,0.2,31,24.4,-23.9,-27.1,279.9,-83.7,-33.2,3,0
1.14,10.398,0.254,0.67,9.757,0.723,0.525,0.543,0.151,0.343,-0.373,0.034,31,24.8,-24.3,-26.6,273.9,-83.8,-37.9,3,0
-0.498,7.822,2.847,0.771,9.725,0.995,-1.252,-1.87,1.885,0.01,0.294,0.063,28,24.8,-25.4,-27.2,271.5,-83.6,-43.5,3,0
1.051,7.508,-0.306,0.818,9.712,1.081,0.233,-2.204,-1.388,-0.228,0.149,0.067,28,23.8,-24.4,-26.1,274.3,-82.3,-37.7,3,0
0.505,9.077,1.099,0.676,9.711,1.191,-0.059,-0.725,0.184,0.066,0.204,-0.101,28,25.3,-24.8,-25.9,279.8,-81.9,-30.6,3,0
0.737,10.848,1.123,0.547,9.713,1.238,0.274,1.03,-0.194,-0.078,0.255,-0.156,27,25.1,-24.1,-25.3,282.7,-82.1,-27.2,3,0
0.771,12.56,0.096,0.372,9.744,1.042,0.401,2.587,-0.659,0.201,-0.117,-0.172,27,26.7,-24.1,-25.4,287.4,-82.5,-21.8,3,0
0.496,10.772,2.033,0.41,9.725,1.194,0.658,1.066,0.42,-0.592,0.115,-0.055,25,27,-24.1,-25.1,288.1,-83.2,-20.3,3,0
-0.85,9.089,2.265,0.263,9.701,1.413,-1.154,-0.557,0.284,0.047,-0.632,-0.034,25,27.7,-23.5,-24.8,295.6,-81.5,-13.4,3,0
0.412,8.495,-0.002,0.331,9.693,1.449,-0.128,-1.206,-1.42,0.053,-0.007,0.169,25,26.5,-23.5,-25.8,297.2,-81.2,-12.4,3,0
0.158,8.84,1.214,0.467,9.702,1.349,-0.326,-0.91,-0.283,0.035,0.006,0.047,25,26.2,-23.3,-26,293.1,-81.5,-16.5,3,0
0.658,10.48,0.371,0.42,9.742,1.045,0.251,0.764,-0.698,0.557,-0.075,-0.118,26,25.6,-24,-25.7,289.6,-82.7,-20.7,3,0
0.642,11.217,1.252,0.351,9.781,0.612,0.276,1.448,0.669,0.35,-0.119,-0.033,26,25.6,-24.9,-25.6,285.5,-85.3,-26.3,3,0
1.01,11.263,2.006,0.327,9.784,0.588,0.602,1.81,0.866,-0.139,0.078,0.035,26,25,-25,-25.8,279.5,-86.4,-33,3,0
1.59,10.338,-0.175,0.307,9.784,0.588,1.287,0.693,-0.667,-0.31,-0.551,0.109,27,25.6,-25.2,-25.1,284.1,-86.3,-27.3,3,0
0.146,8.322,2.389,0.488,9.753,0.905,0.041,-1.236,1.511,0.077,0.147,-0.167,27,24.4,-24,-27.7,284.4,-84.6,-30.5,3,0
0.527,7.767,-0.419,0.433,9.749,0.965,0.015,-1.975,-1.242,-0.016,-0.509,-0.052,27,24,-24.5,-27.7,291.2,-83.8,-24.2,3,0
0.771,8.193,-0.204,0.387,9.754,0.941,0.51,-1.505,-1.295,-0.2,-0.029,-0.065,27,23.8,-23.2,-28.2,293.3,-84.1,-22.6,3,0
0.529,11.643,-0.187,0.24,9.757,0.953,0.227,2.027,-1.088,-0.33,-0.214,-0.177,28,24.3,-22.7,-28.1,298.4,-84.4,-16.7,3,0
0.46,12.757,0.951,0.097,9.739,1.147,0.391,3.044,-0.235,-0.291,-0.121,-0.119,28,24.4,-22,-28.7,309,-83.6,-8.3,3,0
-1.944,10.453,3.864,-0.158,9.719,1.297,-1.626,0.99,2.889,0.769,0.864,-0.335,27,24.2,-20.8,-28.6,319.7,-82,2.3,3,0
0.86,7.966,-0.393,-0.154,9.745,1.087,0.101,-0.977,-1.305,-0.71,-0.492,0.561,27,26.3,-21.3,-27.3,323,-83.8,11.4,3,0
0.072,8.263,1.216,0.092,9.694,1.482,0.107,-1.654,-0.172,-0.03,0.14,-0.062,26,24.6,-19.7,-29.3,310.5,-81.5,-4.8,3,0
0.575,9.122,0.704,0.234,9.677,1.571,0.34,-0.555,-0.867,-0.064,-0.143,0.178,26,26.1,-21.2,-29.5,307.9,-80.7,-6.9,3,0
0.151,11.282,1.293,0.263,9.694,1.46,-0.134,1.358,-0.172,0.292,-0.269,-0.081,26,24.5,-20.6,-29.6,306.6,-81,-10.4,3,0
0.639,12.879,1.159,0.391,9.729,1.167,0.617,2.85,0.093,0.077,-0.279,0.082,26,24.2,-22,-30.1,304.8,-82.2,-13.6,3,0
0.872,9.299,3.249,0.714,9.694,1.298,0.241,-0.447,1.659,0.175,-0.746,0.144,26,23,-21.7,-30.3,290.9,-81.4,-26.7,3,0
0.828,9.86,-0.46,0.641,9.734,1,0.187,0.125,-1.459,0.07,0.158,-0.247,25,21.1,-22.7,-32.5,289.3,-82.2,-33,3,0
-0.165,7.099,1.858,0.641,9.726,1.079,-0.818,-2.634,0.875,0.014,-0.318,0.009,25,20.9,-21.9,-32.1,291.8,-82.7,-30.9,3,0
0.108,8.251,0.089,0.602,9.751,0.848,-0.509,-1.553,-0.771,0.398,0.156,-0.034,14,20.9,-22.1,-31.6,289.8,-83.3,-33.2,3,0
1.379,10.547,-0.939,0.651,9.777,0.393,0.728,0.77,-1.332,0.278,0.24,0.105,14,21.8,-23.8,-30.2,280,-84.7,-42.6,3,0
-0.479,13.331,1.97,0.502,9.773,0.641,-0.651,3.243,1.396,-0.189,0.342,-0.712,12,22,-24.3,-29.9,263.7,-85.2,-56.9,3,0
-1.19,11.263,3.534,0.313,9.763,0.866,-1.786,2.103,2.773,-0.432,0.089,0.444,22,23.4,-21.8,-29.9,302.6,-85.2,-17.5,3,0
-1.281,7.133,0.455,0.509,9.727,1.139,-1.847,-2.247,-0.572,-0.165,0.495,0.343,22,24.1,-22.2,-29.9,289.2,-83.2,-27.3,3,0
-0.132,6.769,-1.015,0.438,9.729,1.155,-0.52,-2.831,-2.192,0.212,1.022,-0.059,22,24.8,-23.1,-27.8,292.1,-82.5,-21.7,3,0
-0.364,9.939,2.354,0.266,9.723,1.248,-0.72,0.342,1.206,0.092,1.024,-0.071,22,27.7,-22,-25.6,295,-82.4,-14.6,3,0
-0.419,13.353,1.013,0.064,9.759,0.967,-0.519,3.644,0.166,0.191,0.503,0.116,20,30.5,-22.9,-22,299.4,-84.1,-3.5,3,0
0.208,12.189,1.592,0.184,9.755,0.99,0.153,2.501,0.406,-0.073,0.454,-0.019,20,30.6,-22.9,-21.5,291.1,-84.3,-10.9,3,0
1.178,9.84,0.742,0.195,9.769,0.836,1.179,0.05,0.496,0.048,-0.632,-0.024,17,30.7,-23.6,-20,287.8,-84.9,-11.8,3,0
-1.398,7.686,1.614,0.034,9.776,0.778,-1.523,-2.167,0.855,0.301,0.803,-0.226,17,31.2,-23,-20.2,289.1,-84.9,-11.8,3,0
-0.426,7.197,-0.529,-0.025,9.771,0.832,-0.399,-2.505,-1.224,-0.103,0.296,0.007,16,32.2,-23.2,-18.2,298.8,-85.3,2.1,3,0
0.158,10.142,-0.117,-0.05,9.775,0.786,0.304,0.518,-0.867,-0.195,0.13,0.139,14,32.7,-22.8,-17.2,299.5,-85.4,4.8,3,0
0.01,11.902,2.193,0.053,9.783,0.675,-0.048,2.25,1.446,0.182,0.432,0.064,14,33.3,-24.2,-16.2,289.7,-85.9,-3.6,3,0
-0.338,11.186,1.235,0.085,9.786,0.625,-0.286,1.563,0.144,0.003,0.503,-0.027,14,33.2,-24.3,-15.4,287,-86.4,-6.5,3,0
-1.008,9.51,0.395,-0.006,9.79,0.565,-1.057,-0.034,-0.229,-0.322,0.191,0.137,14,33.3,-23.9,-13.1,290.2,-86.9,0.7,3,0
-0.56,7.635,1.41,-0.09,9.759,0.959,-0.458,-2.133,0.425,-0.124,0.307,-0.013,13,34.4,-23,-13.5,290.8,-85.2,1.4,3,0
0.419,8.143,-0.62,-0.037,9.758,0.973,0.611,-1.876,-1.51,0.011,0.005,0.054,13,34.1,-24.1,-13.1,289.4,-84.3,2.2,3,0
-0.153,10.796,1.065,0.024,9.782,0.697,-0.17,1.158,0.373,0.219,-0.253,0.132,11,34,-24.2,-13.6,288.9,-85.5,-0.6,3,0
0.23,13.061,0.924,0.086,9.799,0.385,0.144,3.262,0.54,0.369,-0.043,-0.048,11,33.8,-25.1,-12.6,277.7,-87.3,-11.4,3,0
1.013,10.688,1.707,0.122,9.803,0.24,0.877,0.923,1.463,0.228,-0.21,0.014,8,33.2,-24.7,-13,268.5,-88.3,-21.8,3,0
0.271,9.453,0.304,0.006,9.806,0.068,0.585,0.101,-0.592,-0.237,0.156,-0.044,9,34.4,-25.4,-12.7,276,-89.6,-14.7,3,0
-0.333,6.864,0.192,0.088,9.8,0.363,-0.569,-2.679,0.607,0.045,-0.355,0.181,9,32.8,-24.7,-13.2,281.2,-88.3,-9.7,3,0
0.974,7.116,-0.644,0.221,9.798,0.345,0.341,-3.788,-1.453,0,-0.078,-0.144,11,31.7,-24.8,-14.9,260.7,-87.6,-32.7,3,0
0.541,10.834,0.503,0.082,9.805,0.167,0.471,1.115,0.377,0.123,0.1,-0.082,11,32.6,-25.7,-14.3,270.7,-88.4,-21.2,3,0
0.273,13.458,0.158,-0.011,9.806,0.095,0.226,3.714,0.197,0.16,-0.147,-0.031,9,32.8,-25.4,-14,281.5,-89,-10.8,3,0
-1.324,10.662,2.629,-0.022,9.806,0.053,-1.656,1.463,2.847,0.558,0.856,0.184,9,33.5,-24.8,-13.1,310.9,-89.2,19.8,3,0
-0.163,7.841,0.704,0.165,9.8,0.31,-0.471,-1.696,0.124,-0.625,0.185,0.235,8,33.5,-26,-11.1,190.2,-89.5,-98.2,3,0
0.752,7.159,-0.498,0.16,9.788,0.575,0.592,-2.63,-1.073,-0.174,-0.036,0.019,8,32.9,-25.8,-11.8,271.5,-86.7,-17.5,3,0
0.036,9.86,0.936,0.169,9.773,0.796,-0.1,-0.023,0.03,0.068,0.338,-0.063,10,33.4,-25.8,-13.3,274.4,-85.4,-13.6,3,0
-0.089,10.992,0.951,0.217,9.777,0.726,-0.315,1.272,0.349,0.12,-0.162,0.006,8,33.2,-24.8,-11.5,269.4,-85.5,-15.8,3,0
-0.134,13.152,0.668,0.106,9.788,0.597,-0.316,3.268,0.257,-0.255,0.14,0.07,8,32.8,-25.5,-12,275.1,-86.7,-12.4,3,0
1.281,10.022,1.872,0.255,9.784,0.614,1.026,0.238,1.259,-0.238,-0.621,0.048,7,33.6,-25.5,-12.1,267.9,-86.2,-19.4,3,0
-0.019,7.578,1.973,0.289,9.759,0.926,-0.32,-2.241,0.954,-0.207,-0.19,-0.075,7,32.6,-25.3,-12.7,268.6,-84.7,-19.2,3,0
-0.029,8.552,-0.512,0.104,9.771,0.825,-0.108,-1.209,-1.367,0.288,0.037,-0.082,9,33.2,-25.4,-13.7,277.5,-84.4,-10,3,0
1.238,9.158,0.156,0.275,9.778,0.7,0.977,-0.605,-0.482,-0.018,0.105,0.153,9,32.9,-25.5,-13.2,271.2,-85.6,-17.1,3,0
-0.022,11.157,1.815,0.32,9.788,0.514,-0.342,1.369,1.301,0.175,-0.229,-0.008,3,33.2,-25.4,-12.2,259.3,-86.1,-29.5,3,0
0.998,12.572,-0.359,0.283,9.796,0.36,0.771,2.848,-0.843,-0.007,0.004,-0.012,3,33,-25.9,-13.1,251.4,-86.9,-36.4,3,0
-0.275,10.633,0.903,0.195,9.798,0.368,-0.597,0.909,-0.052,0.16,-0.291,-0.195,3,33.1,-25.6,-12.7,257.7,-87.4,-32,3,0
-0.079,8.306,0.713,0.247,9.78,0.682,-0.273,-1.476,-0.026,-0.341,-0.068,0.09,5,32.6,-26.2,-13.6,269.1,-86.5,-22,3,0
1.065,8.624,-0.297,0.331,9.764,0.853,0.708,-1.07,-1.159,-0.112,-0.17,0.005,5,32.9,-25.9,-13.9,268.6,-84.7,-20.5,3,0
-0.551,9.8,0.165,0.275,9.777,0.707,-0.914,0.193,-0.49,0.263,0.028,-0.121,3,32.8,-24.8,-15.8,269.6,-84.8,-21.9,3,0
0.141,10.69,0.769,0.309,9.787,0.53,-0.172,0.853,0.277,0.306,-0.217,0.043,3,32.8,-25.9,-15.4,267.6,-86.2,-24.3,3,0
0.572,11.756,-0.694,0.323,9.793,0.401,0.294,1.92,-1.22,-0.293,-0.256,-0.144,4,31.6,-25.8,-15,248.2,-87.2,-45,3,0
0.704,10.793,0.721,0.219,9.795,0.413,0.604,1.024,0.032,-0.146,-0.727,-0.005,4,31.7,-25,-15.2,264,-87.3,-29.2,3,0
0.371,9.024,1.152,0.312,9.784,0.581,0.361,-0.701,0.602,-0.062,0.064,-0.018,4,31.1,-23.8,-16.4,266.7,-86.3,-28,3,0
0.486,7.257,0.491,0.484,9.771,0.687,0.05,-2.523,-0.263,0.028,-0.357,0.195,4,30.7,-24.7,-18.2,266.8,-85.6,-28.8,3,0
1.171,8.361,-0.474,0.59,9.772,0.577,0.595,-1.423,-1.01,0.099,0.062,0.088,4,29.5,-25.2,-18.5,254.2,-85.1,-43.4,3,0
0.728,10.827,1.18,0.592,9.778,0.461,0.171,1.147,0.885,0.135,0.367,-0.086,3,29.9,-25.5,-18.2,246.6,-85.5,-51.4,3,0
0.912,13.427,-0.148,0.488,9.791,0.248,0.424,3.636,-0.396,0.136,-0.286,-0.133,3,29.8,-25.6,-17.5,234.6,-86.8,-63.1,3,0
-0.376,10.54,1.69,0.441,9.79,0.357,-0.745,0.69,1.417,0.378,0.158,-0.348,5,30.1,-24.7,-18,247.8,-86.7,-51,3,0
-0.455,8.928,-0.103,0.342,9.796,0.297,-0.809,-0.784,-0.41,-0.381,0.254,0.193,5,30.7,-25.3,-16.3,241.1,-87.7,-54.8,3,0
0.8,8.052,0.704,0.488,9.771,0.676,0.335,-1.755,0.044,-0.179,0.33,0.158,4,30.4,-25.7,-16.4,258.6,-85.1,-35.8,3,0
-0.007,9.309,-0.089,0.499,9.773,0.637,-0.504,-0.488,-0.76,0.111,0.155,0.068,4,30.3,-24.9,-15.2,258.3,-85,-35.6,3,0
0.575,10.86,0.29,0.483,9.784,0.465,0.048,1.228,-0.039,0.278,0.111,-0.103,3,31.6,-25.9,-15.2,250.3,-85.6,-43.3,3,0
0.979,11.665,0.271,0.411,9.796,0.187,0.732,1.986,-0.156,0.125,-0.513,-0.063,3,30.8,-26.3,-13.8,231.5,-87.1,-58.9,3,0
1.52,9.994,2.655,0.353,9.798,0.199,1.249,-0.042,2.705,0.026,0.044,-0.015,3,32.8,-26,-15.2,232.4,-87.7,-62.1,3,0
1.164,9.469,-0.814,0.314,9.799,0.219,0.727,-0.588,-0.77,-0.152,-0.34,-0.063,3,30.7,-24.7,-15.5,239.5,-87.9,-56.6,3,0
-0.304,7.575,-0.778,0.216,9.803,0.179,-0.47,-2.191,-1.017,0.061,-0.27,-0.178,3,31.1,-24.2,-16.3,245.4,-88.1,-52.2,3,0
0.455,8.768,-0.848,0.142,9.803,0.205,0.282,-0.949,-1.069,-0.001,-0.183,-0.076,3,30.8,-23.8,-17.9,259.3,-88.4,-39.8,3,0
0.804,11.129,-0.005,0.191,9.805,0.003,0.458,1.736,-0.032,0.21,-0.078,-0.051,3,30.6,-23.6,-16.9,222.3,-88.8,-75.9,3,0
0.656,12.455,0.464,0.351,9.8,-0.045,0.327,2.533,1.098,0.064,-0.933,0.009,3,30.2,-24.7,-17.4,196.9,-88.4,-101.5,3,0
-1.451,10.54,2.184,0.315,9.797,-0.31,-1.809,0.808,2.491,0.563,0.403,0.052,3,29.1,-24.8,-19.5,179.2,-87.8,-124,3,0
-0.017,8.033,-0.678,0.445,9.793,-0.249,-0.481,-1.495,-0.744,-0.322,0.241,0.25,3,28.5,-25.9,-18.8,183.8,-87,-119.3,3,0
-0.445,8.641,-0.115,0.4,9.798,-0.048,-0.879,-1.107,-0.11,-0.014,0.239,-0.079,3,29.8,-24.9,-18.8,199.9,-87.1,-100.4,3,0
-1.659,9.153,0.227,0.213,9.803,-0.132,-1.872,-0.65,0.359,0.185,0.472,-0.04,3,29.8,-24.7,-16.3,185.8,-88.3,-112.1,3,0
-1.987,10.303,-0.239,-0.16,9.801,-0.282,-1.834,0.453,0.047,0.379,1.104,-0.191,3,29.8,-25.2,-14.9,101.9,-88.7,164.4,3,0
0.699,10.47,-0.565,-0.322,9.796,-0.322,1.071,1.045,-0.499,-0.252,0.981,-0.185,3,32.6,-25,-9,72.6,-87.1,142.1,3,0
-0.424,11.916,1.501,-0.544,9.782,-0.429,0.003,1.95,2.758,0.4,1.369,-0.325,2,33.8,-24.8,-6.8,48.3,-86.6,124.8,3,0
-0.407,9.802,1.223,-0.539,9.789,-0.252,0.089,-0.075,1.605,-0.324,1.792,0.017,2,34.3,-23.7,-0.2,30.1,-86.3,118.8,3,0
1.98,7.846,-0.757,-0.457,9.795,0.125,2.471,-1.954,-0.97,-0.203,0.83,-0.115,4,33.2,-24.1,4.4,337,-87.2,74.7,3,0
1.535,8.689,-1.48,-0.448,9.795,0.158,1.993,-0.838,-1.693,-0.244,0.426,-0.145,4,33.4,-23,7.4,329.4,-87.2,72,3,0
2.366,10.456,-0.117,-0.088,9.804,0.22,2.444,0.745,-0.325,-0.205,-0.134,-0.128,6,33.4,-22.4,7.9,303.4,-88.2,47.6,3,0
3.177,11.117,0.69,0.236,9.801,0.253,2.925,1.242,0.645,-0.077,-1.032,0.045,6,34.3,-22.1,7.3,214.7,-88,-43,3,0
0.623,12.283,0.8,0.288,9.801,-0.167,0.433,2.779,0.986,0.238,-2.028,0.236,6,35.2,-21.7,2.3,178.3,-88.3,-86.8,3,0
-0.206,9.855,1.106,0.413,9.792,-0.334,-0.549,0.041,1.172,0.311,-2.142,0.097,4,34.9,-22.2,-6,152.7,-86.8,-127.9,3,0
-1.034,9.603,1.137,0.297,9.801,-0.156,-1.37,-0.006,1.528,-0.066,-1.649,0.178,4,34.1,-22.3,-11.9,164.4,-87.8,-121.9,3,0
0.074,7.987,-0.338,0.405,9.798,0.121,-0.405,-1.607,-0.53,0.021,-1.564,0.064,2,31.4,-23.4,-19.3,229.2,-87.6,-71.2,3,0
-0.474,9.137,-0.175,0.429,9.797,0.055,-0.898,-0.653,-0.24,-0.082,-1.114,0.196,2,28.9,-23.3,-22.7,225.3,-87.6,-82.1,3,0
-0.634,10.123,-0.929,0.405,9.797,-0.133,-1.111,0.62,-0.971,0.328,-0.522,-0.114,3,26.2,-24.4,-25.9,216.3,-87.4,-97.7,3,0
-2.313,12.587,-0.242,0.091,9.801,-0.325,-2.39,2.381,-0.068,-0.106,0.458,-0.329,3,25.3,-25,-27.3,161.3,-88,-156.3,3,0
-0.206,10.535,0.405,-0.29,9.802,-0.074,0.017,1.08,-0.218,0.248,1.064,-0.53,3,27.1,-23.2,-25.4,55.4,-89,102,3,0
0.316,8.933,2.181,-0.308,9.799,0.216,0.531,-0.455,1.711,-0.702,1.154,0.332,3,30.5,-22,-22.6,51.8,-87.6,99.9,3,0
0.441,7.573,-0.371,-0.219,9.786,0.594,0.64,-2.268,-0.598,-0.013,0.924,-0.091,3,32.3,-21.5,-20.3,320.9,-86.3,20.2,3,0
1.147,8.928,-1.166,-0.321,9.778,0.679,1.472,-0.677,-1.663,-0.226,0.985,-0.06,2,34.6,-20.4,-17,319.8,-85.7,25.5,3,0
0.915,10.978,1.082,-0.187,9.787,0.596,1.351,1.033,0.455,0.059,0.538,-0.087,2,36.1,-20.2,-13.6,309,-86.2,19.4,3,0
-0.73,12.132,0.56,-0.246,9.797,0.353,-0.597,2.43,0.124,0.346,0.446,-0.141,2,37.3,-20.6,-11.2,312.6,-87.2,27.2,3,0
-1.52,11.16,2.559,-0.15,9.797,0.405,-1.38,1.626,1.97,-0.185,0.817,0.422,2,37.7,-20.5,-10.6,317.5,-87.6,31.8,3,0
-0.611,8.579,1.152,0.069,9.779,0.737,-0.998,-0.985,0.867,-0.518,0.21,0.368,2,37.6,-21.4,-8,275.4,-86.4,-4.6,3,0
0.824,7.707,0.215,0.179,9.735,1.169,0.769,-2.04,-0.857,-0.027,0.58,0.108,2,37,-22,-7.9,269.8,-83.1,-8.4,3,0
1.765,8.828,0.417,0.357,9.717,1.276,1.427,-0.855,-1.037,-0.2,0.1,0.106,4,36.7,-22.7,-7.3,263.1,-82.4,-13.1,3,0
0.35,10.971,1.472,0.452,9.724,1.189,0.048,0.73,0.666,0.337,-0.304,-0.239,4,36.4,-23.7,-7.4,255.5,-82.5,-20.8,3,0
0.5,12.687,0.311,0.453,9.757,0.875,-0.108,2.722,-0.374,-0.088,-0.691,0.067,4,36.7,-22.8,-7.9,253.4,-84.2,-25.4,3,0
0.505,10.492,4.365,0.56,9.74,0.992,-0.098,0.775,3.454,0.299,-0.611,-0.048,4,36.2,-23.5,-8.8,253.1,-83.5,-27.2,3,0
-0.929,9.613,2.622,0.465,9.752,0.925,-1.351,-0.05,1.627,0.079,0.158,-0.01,4,36,-23.6,-10.6,255.5,-83.9,-27.8,3,0
-0.524,6.998,0.481,0.451,9.737,1.08,-0.923,-2.709,-0.082,0.259,-0.112,0.052,3,35.4,-23.6,-10.8,259,-83.4,-23.9,3,0
-0.23,7.88,-0.093,0.455,9.751,0.942,-0.795,-2.065,-1.253,-0.08,0.6,0.108,3,35.6,-24.2,-10.3,257.5,-84,-25.8,3,0
0.68,9.975,-0.158,0.457,9.746,0.987,0.192,-0.001,-0.995,-0.078,0.749,-0.018,3,35.4,-25.1,-8.2,255,-83.5,-25.2,3,0
-0.175,13.032,0.879,0.24,9.749,1.037,-0.226,3.475,-0.675,0.147,0.607,-0.059,3,36.3,-24.4,-5.3,258.7,-83.3,-16.5,3,0
-1.188,10.973,2.847,0.344,9.701,1.391,-1.532,1.272,1.455,-0.321,1.414,0.134,4,35.8,-25,-3.1,257.6,-82.9,-13.9,3,0
-1.441,7.844,0.259,0.209,9.688,1.506,-1.667,-1.832,-1.224,-0.512,0.656,0.322,4,35.4,-26.4,0.5,254.5,-81.5,-9.6,3,0
-0.781,7.923,2.452,-0.031,9.599,2.007,-0.803,-1.506,0.309,-0.175,0.758,-0.031,5,34,-26.6,2.5,255.6,-78.4,-0.6,3,0
-1.243,9.16,1.666,-0.164,9.567,2.148,-1.098,-0.411,-0.515,-0.127,0.445,0.277,2,33.9,-27.3,5,256.6,-77.4,4.5,3,0
-1.044,9.958,0.637,-0.112,9.584,2.075,-1.219,0.307,-1.531,-0.029,0.423,0.461,2,32.9,-28.6,6.5,255.9,-77.3,3.8,3,0
-0.68,12.584,1.061,-0.158,9.659,1.687,-0.584,2.726,-0.394,0.568,0.543,0.063,2,31.2,-29.7,7.8,250.3,-79.3,4,3,0
0.464,12.433,1.635,-0.214,9.706,1.382,1.068,2.531,0.002,0.423,0.734,-0.333,2,30.9,-29.6,10.5,249.2,-81.6,5.8,3,0
2.998,9.144,1.281,-0.296,9.718,1.28,3.261,-0.601,0.085,-0.324,-0.728,-0.04,4,30.5,-28.1,13.6,260.5,-83,19.8,3,0
1.183,9.453,3.129,0.065,9.676,1.594,1.564,0.018,1.032,-0.242,0.665,0.061,4,31,-27.2,11.3,247.4,-81.3,5.1,3,0
1.07,6.723,0.374,0.489,9.617,1.855,0.61,-2.988,-1.62,-0.254,-0.424,0.271,4,30.2,-28.5,12.4,228.6,-79.1,-13,3,0
1.178,8.811,0.036,0.452,9.611,1.894,0.884,-1.231,-1.987,0.001,0.258,-0.189,4,30.4,-29,11.3,225.2,-78.3,-15.8,3,0
0.958,10.995,2.478,0.44,9.616,1.876,0.616,1.101,0.595,0.212,0.141,-0.062,4,30.4,-29.5,12.4,227.9,-78.6,-12.9,3,0
1.286,12.347,0.35,0.34,9.715,1.292,0.934,2.678,-0.882,0.618,0.044,-0.012,4,29.9,-28.1,14.1,226,-80.2,-13.4,3,0
0.955,11.378,0.498,0.399,9.754,0.935,0.556,1.624,-0.437,0.07,-0.034,0.323,5,29.8,-27.3,15.6,216.2,-84,-23.1,3,0
0.28,7.872,3.407,0.61,9.709,1.236,0.381,-0.855,1.149,-0.446,-0.049,-0.088,2,30.1,-27.8,15.6,211.9,-82.3,-26.9,3,0
0.927,6.378,0.108,0.546,9.665,1.567,0.381,-3.287,-1.459,-0.128,-0.24,0.005,2,29.9,-28.8,13.1,220.5,-80.4,-19.4,3,0
1.42,8.38,0.869,0.669,9.631,1.724,0.775,-1.507,-1.09,-0.174,-0.308,0.048,2,30,-29,12.8,220.1,-79.4,-20.9,3,0
0.948,13.389,3.137,0.718,9.645,1.622,0.261,3.552,1.359,0.241,-0.404,0.006,2,30.6,-29.3,12.2,219.6,-79.6,-23.9,3,0
2.021,13.525,1.573,0.862,9.649,1.522,1.082,3.78,0.2,-0.176,-0.406,0.007,3,30.8,-29,10.4,217.9,-79.9,-29.1,3,0
3.271,9.704,0.639,0.892,9.631,1.619,2.678,-0.214,-0.472,-0.238,-1.299,-0.743,3,32.1,-29.5,7.4,218.7,-79.4,-31,3,0
0.108,8.291,3.043,0.739,9.604,1.838,-0.23,-0.961,1.102,-0.141,-0.854,-0.424,3,33.5,-27.4,4.4,232.8,-78.6,-23.4,3,0
1.599,6.548,0.682,0.712,9.641,1.649,0.761,-3.114,-0.899,0.336,-1.005,-0.105,3,35.3,-26,0.1,239.7,-79.1,-22.1,3,0
1.286,10.142,1.693,0.699,9.695,1.3,0.671,0.335,0.354,0.27,-0.503,-0.131,6,35.3,-25.9,-2.7,242.2,-81,-27,3,0
1.839,12.941,1.209,0.882,9.678,1.315,0.815,3.005,0.298,-0.276,-1.182,0.054,5,35.3,-25.8,-4.3,236.9,-81,-32.7,3,0
-0.129,11.212,5.888,0.829,9.667,1.423,-0.958,1.545,4.465,0.517,-0.214,-0.297,5,35.5,-24.7,-8.1,246.5,-80,-30.1,3,0
1.444,7.439,1.166,0.833,9.68,1.334,0.29,-1.427,-0.096,-0.454,-0.688,0.231,5,34.9,-26,-9.4,247.4,-81.4,-31.5,3,0
1.063,6.85,1.082,0.935,9.628,1.613,0.094,-2.792,-0.517,-0.143,-0.34,-0.064,5,35.3,-25.3,-12,250.8,-79.3,-31.5,3,0
1.154,8.835,0.723,0.984,9.584,1.831,0.17,-0.749,-1.108,-0.022,-0.245,-0.097,4,34.1,-25,-15.1,257.5,-77.9,-28.5,3,0
1.338,12.046,1.712,0.897,9.624,1.655,0.436,2.338,0.076,0.207,-0.69,-0.187,4,33.5,-23.5,-16.4,259.9,-78.7,-28.2,3,0
1.81,13.683,0.503,0.854,9.688,1.259,0.956,3.995,-0.756,0.019,-0.861,-0.082,3,32.9,-24.6,-17.3,260.7,-80.4,-31.9,3,0
3.046,9.919,2.866,1.017,9.68,1.193,2.016,0.11,2.152,0.269,-1.425,-0.269,3,31.7,-24,-20.1,258.5,-80.3,-37.5,3,0
1.604,7.942,2.064,1.137,9.666,1.203,0.467,-1.724,0.861,-0.07,-0.959,-0.073,2,29.3,-23.9,-23.8,259,-81,-41.6,3,0
0.651,6.053,1.219,1.22,9.673,1.054,-0.569,-3.62,0.164,0.075,-1.134,-0.104,2,27.9,-24.3,-26.5,261.4,-80.2,-45.5,3,0
0.79,8.579,-0.814,1.146,9.719,0.635,-0.356,-1.14,-1.449,0.138,-0.761,0.009,2,24.2,-24.4,-27.7,257.1,-81.5,-53.8,3,0
0.374,11.653,1.717,1.176,9.722,0.519,-0.807,1.835,1.09,-0.059,-0.251,0.03,2,22,-24.5,-30.4,251.5,-82.4,-65.6,3,0
0.819,12.781,0.007,1.256,9.674,0.999,-0.437,3.106,-0.991,-0.609,-0.553,-0.155,2,20.9,-23.8,-32.2,269.2,-80.6,-51.5,3,0
-0.479,9.793,3.524,1.184,9.672,1.101,-1.663,0.12,2.423,-0.194,-0.046,0.297,2,20.8,-23.2,-33.2,276.7,-80.8,-46.5,3,0
0.4,6.299,0.544,1.258,9.605,1.526,-0.858,-3.306,-0.982,0.02,0.317,0.185,2,20,-22.9,-33.4,280.8,-78.9,-41.4,3,0
0.713,8.222,-0.144,1.302,9.6,1.521,-0.61,-1.404,-1.672,-0.117,0.244,0.219,2,21.3,-22.6,-32.5,280.2,-78.4,-40.3,3,0
0.802,10.892,4.089,1.414,9.558,1.676,-0.717,1.3,2.344,0.085,0.198,0.232,2,21.5,-22.3,-32,277.6,-77.3,-40.1,3,0
2.315,11.912,0.709,1.431,9.605,1.362,0.956,2.414,-0.278,0.659,-0.121,-0.288,2,21.4,-24.1,-31.7,276.5,-77.2,-42.1,3,0
1.405,11.464,3.302,1.105,9.688,1.041,0.339,1.687,2.356,-0.053,0.348,0.051,1,22.1,-24.2,-31.1,271.2,-81.1,-47.7,3,0
2.002,9.721,1.475,1.012,9.683,1.18,0.99,0.038,0.294,-0.004,0.238,-0.402,1,22,-24.1,-31.3,276.1,-80.9,-42.7,3,0
-0.302,7.659,0.438,0.819,9.697,1.209,-1.121,-2.038,-0.771,-0.107,-0.304,-0.042,2,23.2,-22.8,-31.5,282.3,-81.3,-35.9,3,0
0.907,7.772,0.419,0.905,9.697,1.149,-0.007,-2.37,-0.627,0.384,-0.175,-0.088,2,22.3,-22.7,-31.7,283.3,-81.2,-36.9,3,0
1.628,10.25,0.457,0.948,9.73,0.778,0.68,0.52,-0.321,0.049,0.01,0.091,1,21.4,-24,-32,275.1,-82.8,-47.2,3,0
1.408,12.398,0.718,0.945,9.731,0.767,0.403,2.748,-0.056,-0.155,-0.263,-0.217,1,22.7,-24.4,-31,266.6,-82.8,-52.3,3,0
-1.195,11.83,2.337,0.802,9.721,1.013,-1.997,2.109,1.324,-0.09,-0.268,0.183,2,21.5,-23.5,-31.7,283.6,-82.5,-38.5,3,0
0.448,8.691,3.127,1.02,9.663,1.328,-0.573,-0.971,1.799,0.009,1.054,0.211,2,20.9,-22.8,-32.6,283.3,-80.4,-38.5,3,0
0.706,7.101,-0.615,1.038,9.613,1.64,-0.331,-2.511,-2.255,0.169,0.373,0.047,1,22.7,-22.3,-32.3,286,-78.6,-31.9,3,0
0.802,8.694,1.044,1.061,9.646,1.415,-0.259,-0.952,-0.372,0.32,0.542,0.23,2,24,-23.2,-30.1,280.2,-79.3,-34.6,3,0
2.054,10.511,0.955,1.321,9.652,1.12,0.733,0.796,-0.148,0.161,-0.093,0.254,2,24.1,-25.1,-29.5,269.3,-80,-44.7,3,0
0.587,12.848,0.836,1.224,9.688,0.907,-0.539,2.997,-0.064,0.025,-0.078,-0.523,2,24.5,-25.9,-28.2,258.6,-80.3,-54.5,3,0
0.443,11.394,2.306,0.809,9.742,0.781,-0.395,1.707,1.596,0.493,0.18,-0.118,2,25.9,-25.6,-26.9,267.9,-82.3,-43.8,3,0
0.773,7.025,1.334,1.014,9.706,0.965,-0.346,-1.92,0.064,-0.284,0.297,0.406,2,25.4,-24.9,-27.1,262.3,-83.4,-48.3,3,0
0.024,7.93,-0.079,0.991,9.708,0.968,-0.85,-1.948,-1.102,0.124,0.385,-0.126,2,25,-25.3,-27.1,265.3,-81.7,-46.2,3,0
0.544,9.414,0.122,0.984,9.714,0.915,-0.58,-0.393,-0.8,-0.013,0.199,0.201,3,27.4,-25.8,-25.3,261,-82.2,-46.3,3,0
0.062,11.253,1.087,0.965,9.74,0.614,-0.812,1.312,0.645,0.744,0.548,-0.138,3,27.5,-25.9,-23.6,253.2,-82.7,-53.6,3,0
1.882,11.495,-1.425,0.852,9.769,0.119,0.965,1.697,-1.536,-0.109,0.37,0.02,3,28.1,-27,-20.7,222.5,-85,-81.9,3,0
-1.132,9.852,3.479,0.75,9.766,0.49,-1.861,0.192,2.883,-0.057,1.973,-0.042,2,30.5,-26.7,-18.8,230.1,-84.8,-69.5,3,0
0.029,8.279,-0.8,0.452,9.736,1.087,-0.378,-1.435,-2.109,-0.643,0.081,0.028,2,31.9,-26.6,-14.9,262,-84.1,-28.7,3,0
1.437,8.16,-0.053,0.466,9.693,1.411,0.752,-1.694,-1.47,-0.332,0.804,0.188,2,32.8,-25.4,-14.5,269.7,-81.8,-18.8,3,0
1.429,9.79,1.844,0.671,9.64,1.67,0.758,0.15,0.173,-0.14,0.816,0.067,2,32.8,-26.2,-13.8,266,-80,-19.7,3,0
1.645,12.611,1.183,0.669,9.648,1.626,1.026,2.757,-0.812,-0.352,-0.038,0.055,2,33.5,-26.5,-11.7,260,-79.9,-22.3,3,0
0.431,11.516,3.204,0.573,9.624,1.795,0.069,1.641,1.677,0.104,0.533,-0.06,2,33.8,-26.6,-12,262.5,-78.8,-18.7,3,0
1.64,10.082,3.747,0.555,9.598,1.935,1.358,0.832,1.671,-0.269,-0.515,-0.225,2,34.3,-25,-11.9,263.5,-78.4,-16.4,3,0
-0.836,7.044,2.356,0.243,9.637,1.799,-1.081,-2.584,0.592,0.565,0.128,-0.45,2,34.9,-24,-13,272.8,-78.9,-10.3,3,0
0.656,6.795,-0.129,0.088,9.678,1.581,0.568,-2.883,-1.71,-0.072,-0.775,-0.133,2,35.2,-24.3,-11.5,278.5,-80.7,-2.7,3,0
0.594,10.286,0.273,-0.076,9.68,1.567,0.626,0.395,-1.689,0.004,0.347,-0.101,2,35,-23.2,-13.3,287.7,-80.6,1.6,3,0
-0.089,13.607,2.351,-0.147,9.669,1.633,-0.1,3.744,0.944,-0.342,0.037,0.111,2,35.6,-22.1,-13.4,289.5,-80.4,5.1,3,0
-2.097,10.762,7.2,-0.048,9.538,2.28,-1.821,1.692,4.875,0.3,0.477,-0.071,2,35.3,-22.4,-14.8,285.2,-78.2,0.9,3,0
-0.967,7.573,2.014,0.12,9.54,2.267,-0.877,-2.269,-0.39,-0.372,-0.631,0.644,2,35.7,-22.4,-13.3,281.3,-77.3,-1,3,0
0.742,6.278,0.747,0.429,9.425,2.676,0.421,-3.358,-2.022,-0.061,0.139,-0.186,2,34.2,-23.8,-16.6,277,-74.3,-9.2,3,0
-1.279,9.57,1.314,0.087,9.466,2.559,-1.442,-0.021,-1.372,-0.083,0.345,0.084,2,34.7,-22.7,-16.7,284.4,-74.7,-2.9,3,0
0.266,11.421,2.691,0.019,9.441,2.654,0.285,2.181,0.03,0.052,-0.096,-0.205,2,34.5,-22.8,-16.5,285.5,-74.3,-1.1,3,0
1.221,12.893,3.555,-0.05,9.453,2.608,1.28,3.49,0.895,-0.423,-0.24,0.125,2,35.6,-22.7,-15.7,286.2,-74.8,1.5,3,0
2.521,9.606,3.165,0.07,9.459,2.587,2.018,-0.346,1.634,-0.073,-1.272,-0.061,0,35.5,-22.9,-15.9,284.2,-74.5,-0.6,3,0
0.754,7.178,4.006,0.456,9.379,2.829,0.837,-1.633,1.143,0.196,0.042,-0.32,0,33.7,-22.7,-19.1,280.5,-73.3,-8.2,3,0
-1.528,6.912,1.228,0.113,9.547,2.24,-1.602,-2.68,-1.026,0.795,0.588,0.018,0,35.2,-21.4,-18.4,286.5,-76.3,-3.1,3,0
-0.496,8.583,0.041,0.168,9.527,2.319,-0.663,-0.943,-2.279,-0.313,-0.202,0.07,2,34.9,-22.7,-18.2,285.7,-76.9,-3.6,3,0
-1.238,13.034,4.796,-0.077,9.544,2.252,-1.166,3.493,2.62,0.109,0.673,-0.076,2,34.3,-22,-17.8,290.6,-76.7,-0.6,3,0
0.292,12.939,1.472,-0.103,9.611,1.948,0.395,3.328,-0.476,0.152,0.234,0.061,2,35.9,-21.9,-16,291,-77.8,3.2,3,0
0.481,9.283,1.353,-0.094,9.669,1.636,0.616,-0.307,-0.168,0.402,-0.186,-0.016,2,37.1,-22.7,-14.9,289.8,-80,3.5,3,0
-0.721,6.318,0.74,-0.042,9.674,1.607,-0.679,-3.355,-0.867,-0.07,-0.127,0.102,0,35.7,-23.3,-13.7,288,-80.6,2.3,3,0
0.378,7.518,-0.546,0.183,9.607,1.96,0.228,-2.269,-2.552,-0.469,-0.226,0.062,0,36.2,-22.6,-14.7,281.1,-79,-4.8,3,0
-0.864,9.948,2.471,0.194,9.564,2.161,-1.058,0.385,0.31,-0.116,0.593,0.112,2,35.9,-23,-16.7,282.5,-77.2,-5.1,3,0
-0.558,12.108,3.125,0.321,9.583,2.057,-0.742,2.589,0.874,0.573,0.011,0.139,2,35.3,-23.4,-14.9,277.1,-76.9,-6.4,3,0
0.831,10.822,4.073,0.493,9.581,2.034,0.108,1.366,1.708,-0.038,0.175,0.164,2,34.6,-24.7,-15.8,273.8,-78.1,-12.9,3,0
1.3,10.353,2.392,0.52,9.581,2.025,1.19,0.997,-0.062,-0.057,0.129,-0.216,2,34.7,-25.4,-15.8,270.5,-77.7,-14.9,3,0
-0.919,6.716,1.097,0.165,9.682,1.55,-1.134,-2.822,-0.293,0.913,0.568,-0.382,2,35.4,-24.8,-13.9,276.2,-79.9,-8.8,3,0
-0.804,7.504,-1.013,-0.249,9.787,0.565,-0.556,-2.284,-1.577,0.304,-0.147,-0.15,1,37.4,-23.6,-8.4,297.7,-85.6,14.1,3,0
0.656,10.868,0.601,0.174,9.772,0.806,0.482,1.108,-0.083,-0.273,-0.239,0.524,1,37,-24.8,-10.7,279,-85.4,-4.6,3,0
1.82,14.133,0.098,0.238,9.795,0.406,1.708,4.269,-0.43,0.383,0.388,-0.358,2,36,-25,-9.8,251.9,-86.4,-31.4,3,0
-2.454,11.595,2.734,-0.021,9.796,-0.46,-2.433,1.8,3.194,0.909,-0.498,0.137,2,36.9,-24.6,-4.6,89.6,-89.2,169.9,3,0
-1.633,7.015,-0.596,0.127,9.801,-0.308,-1.736,-2.666,-0.257,-0.253,0.364,0.255,2,36.7,-26,-5.6,119.2,-87.7,-161.4,3,0
1.013,6.189,-2.492,0.386,9.796,0.259,0.682,-3.503,-2.706,-0.881,-0.373,0.316,2,35.6,-26.7,-6.9,195,-88.4,-85.7,3,0
1.384,9.256,0.836,0.704,9.738,0.917,0.709,-0.688,-0.249,-0.474,0.048,0.238,2,35.3,-27.9,-10.1,243.9,-84,-38,3,0
0.417,13.051,2.061,0.805,9.725,0.968,-0.173,3.295,1.009,0.21,0.086,0.086,2,33.9,-27.9,-10.4,245.7,-82.4,-36.9,3,0
1.556,11.081,-0.544,0.914,9.738,0.717,0.451,1.599,-1.11,-0.101,-0.553,0.114,2,34.1,-28.1,-9.8,231.9,-83.2,-50.4,3,0
3.797,11.074,1.37,0.996,9.711,0.936,2.828,1.305,0.312,-0.506,-0.6,-0.24,2,33.7,-29.6,-11.5,234.3,-82.2,-48.8,3,0
-0.043,8.454,3.905,0.783,9.714,1.093,-0.546,-0.484,3.923,0.582,-0.256,-0.263,2,34.1,-27.2,-13.5,249.5,-81.7,-35.8,3,0
0.364,5.629,-1.693,0.712,9.741,0.881,-0.382,-4.033,-2.435,0.246,-0.389,-0.191,2,34,-26.4,-13.9,250,-82.7,-36,3,0
0.213,9.388,-0.572,0.409,9.768,0.773,-0.191,-0.25,-1.206,0.012,0.229,-0.211,2,33.5,-25.7,-14.2,257.3,-84.6,-31.9,3,0
0.721,11.392,1.757,0.306,9.769,0.805,0.408,1.652,1.128,-0.007,-0.043,-0.095,3,35.2,-25,-14.2,266.8,-85,-21.7,3,0
0.582,13.379,-0.35,0.149,9.768,0.86,0.581,3.645,-1.351,-0.368,-0.048,-0.139,3,35.4,-24.4,-13.4,273.5,-85.2,-15.1,3,0
-1.724,10.93,3.438,0.109,9.769,0.855,-1.859,1.511,3.084,0.524,0.236,0.261,3,36.2,-23.9,-14.3,283.8,-83.9,-5.1,3,0
0.802,5.619,-1.31,0.556,9.73,1.089,0.318,-4.128,-2.492,-0.503,-0.503,0.469,3,34.7,-25.6,-13.7,264.8,-84,-22.9,3,0
1.501,8.308,-0.553,0.554,9.691,1.397,0.947,-1.383,-1.95,-0.281,0.119,-0.344,3,33.6,-27.1,-15.4,265.8,-81.2,-21.6,3,0
0.101,11.205,3.443,0.486,9.679,1.504,-0.558,1.5,1.659,-0.107,-0.234,0.16,3,35,-25.4,-16.6,272.6,-80.9,-17.3,3,0
0.855,11.351,1.123,0.553,9.712,1.24,0.294,1.61,0.036,0.924,-0.6,-0.279,3,33.5,-25.4,-16.9,267.9,-81.1,-22.6,3,0
2.016,10.856,-0.151,0.528,9.753,0.878,1.564,1.356,-1.438,-0.65,-1.055,0.029,3,32.9,-26.3,-18.2,262.7,-84.6,-32.2,3,0
1.872,10.535,0.357,0.416,9.754,0.926,1.456,0.781,-0.569,-0.035,-0.822,-0.429,3,31.3,-25.9,-22.3,273.9,-84,-26,3,0
-0.041,7.801,1.872,0.466,9.738,1.059,-0.507,-1.612,1.069,-0.087,-0.484,0.153,3,32,-23.9,-23.8,279,-83.5,-22.7,3,0
0.18,7.923,0.297,0.611,9.733,1.032,-0.534,-2.126,-0.567,0.389,-0.132,0.055,3,30.3,-23.8,-26.5,277.1,-83,-30.6,3,0
0.285,10.061,-0.627,0.621,9.772,0.544,-0.475,0.078,-1.006,0.53,0.13,0.043,3,31.6,-25.9,-29,265.5,-84.7,-43.5,3,0
1.35,11.751,-0.498,0.679,9.779,0.287,0.714,2.147,-0.874,-0.206,-0.392,0.15,2,31.4,-27.4,-29.2,242,-85.9,-68,3,0
-0.084,10.844,2.988,0.678,9.761,0.66,-0.808,1.073,2.411,-0.005,1.012,-0.166,2,30.3,-26.9,-29.3,261.6,-84.4,-48.9,3,0
-0.333,9.125,0.395,0.553,9.774,0.576,-0.881,-0.52,-0.174,0.044,0.497,0.116,2,32.5,-26.4,-26.5,262,-85.4,-45.4,3,0
0.776,6.893,-1.185,0.712,9.744,0.843,0.064,-2.851,-2.028,-0.556,0.221,0.283,2,33,-26.5,-26.7,261.3,-84.6,-42.9,3,0
0.728,8.404,0.646,0.686,9.697,1.294,-0.028,-1.173,-0.654,-0.127,0.641,-0.285,3,33.5,-26.3,-26.3,269,-81.7,-34.1,3,0
0.709,11.54,1.463,0.636,9.685,1.405,-0.262,1.784,0.268,-0.204,-0.275,0.343,3,34.4,-25.5,-25.1,278.3,-81.2,-23,3,0
1.839,12.989,1.688,0.86,9.664,1.429,1.08,3.158,0.206,0.328,0.114,-0.065,3,33.4,-25.9,-26.4,271.1,-80.2,-31,3,0
1.489,9.481,3.17,0.848,9.696,1.199,0.105,0.389,2.443,0.309,-0.324,0.236,3,33.4,-26.6,-25.5,268.3,-81.2,-32.6,3,0
3.328,8.593,-0.666,1.151,9.659,1.247,2.177,-1.066,-1.912,-0.445,-0.873,-0.099,3,31.5,-27.3,-27.5,262.4,-80.7,-41.8,3,0
0.625,7.147,0.62,1.202,9.633,1.389,-0.225,-2.853,-0.477,-0.044,-0.347,-0.382,3,31.7,-25.9,-29.8,264.6,-79.1,-42.7,3,0
-0.141,9.321,0.266,0.79,9.691,1.275,-1.013,-0.018,-1.088,0.288,0.029,-0.308,3,30.4,-24.1,-29,277.1,-81.2,-31.8,3,0
0.172,11.538,0.862,0.64,9.754,0.784,-0.467,1.784,0.078,0.408,0.335,0.199,3,31.9,-25,-27.8,271.7,-83.5,-34.6,3,0
1.686,12.884,0.354,0.757,9.752,0.7,1.013,3.067,-0.336,-0.091,0.16,-0.062,3,30.8,-25.6,-24.8,258.8,-84.1,-46.7,3,0
-1.271,11.248,3.857,0.623,9.775,0.484,-1.88,1.416,3.175,0.954,0.304,-0.002,4,32.3,-25.8,-23.2,258.4,-84.7,-43.9,3,0
-0.757,6.017,0.062,0.747,9.765,0.513,-1.504,-3.748,-0.451,-0.295,0.465,0.463,4,30.6,-26.5,-19.3,235.6,-85.4,-63.9,3,0
0.845,6.022,-1.398,0.949,9.718,0.908,-0.252,-4.152,-2.574,-0.692,0.456,0.096,3,31.3,-26.5,-18.7,248.5,-82.6,-48.1,3,0
0.302,11.028,2.172,0.816,9.636,1.63,-0.526,1.536,0.754,-0.222,1.004,-0.014,3,32,-26.5,-18.9,266.3,-79.3,-26.6,3,0
1.14,13.046,3.204,0.824,9.653,1.519,0.414,3.396,1.577,0.358,-0.173,0.156,3,32.5,-25.6,-16.9,263.6,-79.6,-26.4,3,0
2.531,12.362,-1.092,0.955,9.703,1.052,1.622,2.697,-2.148,-0.004,-0.136,0.136,2,32.6,-27.3,-16.5,248.1,-81.7,-42.2,3,0
3.156,9.311,0.838,1.37,9.634,1.216,1.786,-0.323,-0.378,-0.088,-1.008,-0.027,2,31.8,-27.2,-17.8,246.8,-80.1,-44.6,3,0
0.453,7.422,0.639,1.368,9.654,1.045,-0.949,-2.335,-0.552,0.114,-0.446,-0.155,2,30.2,-27.4,-18.6,245.8,-79.2,-49.1,3,0
1.393,7.805,0.251,1.375,9.636,1.194,0.055,-1.821,-0.902,-0.329,-0.688,0.061,2,30.3,-26.9,-20.3,247.2,-79.6,-49.5,3,0
2.138,9.596,0.225,1.48,9.63,1.117,0.67,0.048,-0.844,0.1,-0.163,-0.003,3,28.9,-27.1,-23.3,252.3,-78.9,-50,3,0
2.727,11.37,1.571,1.586,9.628,0.978,1.215,1.915,0.633,-0.035,-0.441,0.02,3,28.7,-27.2,-24,247.4,-79.2,-54.9,3,0
-1.516,11.823,3.558,1.351,9.684,0.747,-2.045,2.371,2.162,0.676,0.558,-0.46,3,27.4,-26.2,-24.4,245.3,-80.6,-60.4,3,0
-0.093,9.477,-1.786,1.197,9.727,0.343,-1.23,-0.385,-2.11,-0.539,-0.493,0.44,3,28.3,-27.3,-21.8,224.2,-83,-78.3,3,0
2.301,6.951,0.711,1.446,9.67,0.76,0.654,-2.791,-0.252,-0.217,0.109,0.221,3,26.6,-27.7,-24.7,241.7,-81,-64.3,3,0
2.387,8.653,0.582,1.633,9.617,1.009,0.77,-0.78,-0.463,-0.205,-0.247,0.084,3,26.1,-26,-26,248.1,-78.9,-58.6,3,0
1.738,10.576,3.077,1.779,9.585,1.064,-0.112,0.761,2.094,-0.141,-0.431,0.177,3,26,-27.1,-26.8,248,-78.3,-59.3,3,0
0.055,12.003,0.601,1.759,9.603,0.922,-1.543,2.169,-0.282,0.633,0.531,-0.36,3,24.4,-27.2,-28.1,250.3,-77.7,-60.9,3,0
2.246,9.182,1.482,1.653,9.625,0.89,0.593,-0.443,0.592,-0.194,0.149,0.205,3,26.1,-27.2,-25.9,245.6,-79.2,-62.5,3,0
4.006,9.67,3.347,1.755,9.568,1.246,3.074,0.101,0.71,-0.186,0.679,-0.423,3,26,-25.9,-26.6,253.3,-77.3,-54.6,3,0
0.012,8.425,1.729,1.473,9.588,1.44,-1.511,-0.83,0.676,-0.083,-0.28,-0.125,3,27.9,-24.8,-24.9,256.2,-77.7,-48.7,3,0
1.532,8.299,-0.175,1.37,9.635,1.21,0.102,-1.149,-1.318,0.684,0.412,-0.203,3,27.8,-25,-24.8,256.4,-79.3,-48.5,3,0
2.548,9.187,0.644,1.489,9.654,0.873,0.728,-0.414,0.214,0.302,-0.279,0.244,3,28.2,-25.7,-24.3,247.5,-80.1,-56.9,3,0
2.466,11.071,-0.019,1.646,9.652,0.543,0.806,1.287,-0.448,0.063,-0.23,-0.085,3,28.2,-26.6,-22.6,235.2,-79.7,-68.4,3,0
0.376,10.714,1.501,1.556,9.666,0.569,-0.876,1.075,0.498,0.234,1.164,-0.514,3,27.9,-26.9,-23.3,233,-80,-70.9,3,0
-1.707,10.525,0.093,1.142,9.73,0.438,-2.399,0.343,-0.369,-0.682,-0.357,0.426,3,30.8,-26.3,-21,228,-82.9,-73.4,3,0
0.733,8.119,0.67,1.178,9.693,0.914,-0.446,-1.574,-0.243,0.083,0.67,-0.133,3,29,-26.1,-21.7,248.1,-81.1,-53.4,3,0
0.158,8.708,-0.048,1.038,9.706,0.941,-0.88,-1.039,-0.936,0.147,0.316,-0.057,3,31.3,-25.4,-21.2,251,-81.6,-47.9,3,0
1.082,10.288,-0.603,0.965,9.734,0.701,-0.347,0.164,-0.804,0.13,0.09,0.213,3,30.7,-25.9,-20,245.6,-82.9,-52.8,3,0
2.765,11.234,0.019,1.207,9.721,0.467,0.888,1.48,0.402,0.112,-0.049,0.44,3,30.3,-26.9,-18.7,232.9,-82.7,-65.2,3,0
1.81,10.542,4.669,1.422,9.679,0.682,0.261,1.462,3.552,0.338,0.351,0.025,3,28.3,-27.8,-17.5,226,-81.3,-70.3,3,0
1.13,9.793,0.644,1.393,9.686,0.645,0.077,0.631,-0.219,0.093,0.303,-0.09,3,29.3,-27.5,-18.6,228.6,-81,-67.3,3,0
-0.093,7.492,0.713,1.299,9.695,0.695,-1.419,-2.103,-0.006,-0.206,-0.247,0.061,3,28.9,-27.1,-17.4,232.6,-81.4,-62.6,3,0
0.773,8.847,-0.752,1.268,9.704,0.636,-0.523,-1.139,-1.158,0.197,-0.072,-0.056,3,27.5,-26.9,-17.6,236.1,-81.2,-61,3,0
2.38,10.094,0.577,1.359,9.698,0.518,1.002,0.238,-0.003,0.048,-0.07,-0.052,3,27.5,-27.3,-18.8,231.7,-81.6,-67.5,3,0
1.468,13.348,-0.146,1.226,9.727,0.238,0.352,3.099,-0.056,0.293,0.097,-0.265,3,27.5,-27.1,-17.4,224.4,-82,-74.9,3,0
0.431,10.245,2.686,1.296,9.711,0.425,-0.896,0.548,2.517,0.048,0.214,0.07,3,27.1,-26.4,-16.1,221.1,-82.6,-75.7,3,0
-0.539,8.289,0.611,1.273,9.705,0.599,-1.812,-1.416,0.012,-0.398,0.4,0.207,3,27.7,-27.4,-15.1,224.8,-82,-69.6,3,0
1.832,6.809,-1.01,1.377,9.649,1.081,0.453,-2.727,-2.067,-0.299,0.197,0.01,3,26.6,-26.2,-15.3,238.9,-80.1,-54.3,3,0
1.276,10.056,1.523,1.338,9.626,1.314,-0.148,0.588,0.379,-0.018,0.431,-0.029,3,27.5,-24.9,-14.8,245.1,-79,-45.9,3,0
2.301,11.983,1.367,1.428,9.641,1.084,0.638,2.411,0.484,0.23,-0.36,0.383,2,28.1,-24.6,-13,241.2,-79.5,-46.6,3,0
3.34,10.666,0.316,1.66,9.625,0.88,1.68,1.041,-0.564,-0.108,-0.036,0.079,2,26.5,-25.3,-12.7,228.1,-79.1,-61.9,3,0
3.627,10.149,0.46,1.646,9.631,0.835,1.651,0.578,-0.378,-0.152,-0.532,-0.071,2,26.6,-24.4,-12.8,227.4,-79.1,-62.4,3,0
1.805,8.093,3.05,1.82,9.566,1.16,0.048,-1.392,1.919,-0.027,-0.12,-0.147,2,27.4,-24.8,-14.5,231.4,-77.6,-58.6,3,0
1.523,6.963,0.345,1.806,9.566,1.185,-0.283,-2.603,-0.84,-0.046,-0.652,-0.045,2,27.1,-23.5,-14.3,233.2,-77.3,-56.1,3,0
2.049,9.788,0.951,1.714,9.594,1.094,0.379,-0.388,-0.641,0.217,0.035,-0.206,2,27.8,-21.9,-17.3,237.7,-77.9,-57.2,3,0
1.999,11.212,0.994,1.623,9.632,0.87,0.297,1.434,0.076,0.009,-0.219,-0.046,3,28.9,-22.1,-17,234,-79.1,-61.1,3,0
1.022,12.161,1.116,1.527,9.654,0.797,-0.401,2.566,0.065,-0.223,0.297,-0.027,3,29.4,-22.1,-18.5,233.4,-79.7,-63.3,3,0
0.723,9.261,0.685,1.59,9.649,0.736,-0.855,-0.266,-0.027,0.114,0.163,0.259,3,30,-23.1,-18.4,233.1,-79.8,-64.6,3,0
0.737,7.077,0.232,1.651,9.614,1.003,-0.945,-2.41,-0.825,-0.331,0.304,0.086,3,29.2,-24,-18.7,233.6,-79.2,-62.6,3,0
1.501,8.248,-0.067,1.609,9.572,1.397,-0.098,-1.575,-1.553,-0.41,0.232,-0.092,3,29.9,-24.1,-18.5,242.6,-77.7,-51.3,3,0
1.911,11.052,2.617,1.493,9.564,1.574,0.374,1.27,0.837,-0.113,0.202,-0.135,2,30.5,-22.9,-18.4,249,-77.2,-44.5,3,0
2.471,12.438,1.049,1.405,9.626,1.24,1.002,3.104,0.299,0.695,0.296,-0.016,2,30.3,-23.3,-18.7,248.9,-78.1,-45,3,0
2.03,10.71,3.177,1.38,9.657,0.999,0.332,1.581,2.175,0.383,-0.142,0.251,2,30.6,-24.2,-17.4,241,-80,-52.2,3,0
2.741,9.553,0.637,1.542,9.646,0.863,1.628,-0.062,-0.147,-0.187,-0.922,-0.285,2,30.7,-24.8,-18.6,233.5,-80,-61.5,3,0
-0.424,7.695,0.249,1.379,9.685,0.679,-1.7,-1.952,-0.461,0.263,-0.005,-0.286,3,29.6,-25.9,-19.7,235.1,-80.8,-63.4,3,0
1.123,7.71,-1.099,1.26,9.713,0.493,-0.493,-2.19,-1.317,-0.15,-0.647,0.03,3,29.2,-25.1,-20,232,-82.1,-68.5,3,0
1.959,10.303,0.414,1.353,9.698,0.534,0.517,0.451,-0.015,0.202,0.001,0.096,3,28.1,-25.1,-21.2,235.5,-81.5,-66.6,3,0
1.262,12.881,2.65,1.441,9.689,0.463,-0.231,3.141,2.116,0.138,-0.005,0.106,4,27.5,-25.7,-21.8,232.7,-81.3,-71.6,3,0
-0.45,11.43,2.811,1.529,9.68,0.349,-2.216,2.104,2.673,0.462,0.109,0.222,4,27.4,-27.2,-20.8,227.8,-81,-75.1,3,0
0.797,7.3,-0.244,1.674,9.658,0.295,-0.675,-2.102,-0.29,-0.174,0.733,-0.055,4,26,-29,-20.3,219.7,-80.2,-83.4,3,0
0.527,7.662,-0.388,1.48,9.675,0.615,-0.905,-2.073,-1.077,-0.332,0.046,0.13,4,28.5,-27.8,-19.1,228.9,-80.8,-69.1,3,0
1.295,8.629,-0.18,1.651,9.635,0.781,-0.378,-1.042,-0.991,0.059,0.164,0.246,3,27.7,-27,-19.7,235.6,-79.6,-63.6,3,0
1.82,12.24,1.247,1.759,9.625,0.661,-0.016,2.864,0.675,0.111,-0.079,-0.007,3,27,-28.6,-19.4,230.2,-78.9,-68.1,3,0
1.88,11.878,-0.273,1.885,9.621,0.238,0.143,2.293,-0.871,0.543,-0.144,0.046,3,27.4,-29.3,-18.4,218.6,-78.9,-79.4,3,0
2.212,9.51,2.423,1.904,9.619,0.163,0.205,0.081,2.15,0.094,-0.085,-0.14,3,26.7,-30.2,-17.2,211.1,-78.8,-86.2,3,0
3.093,8.933,0.539,1.767,9.644,0.226,1.166,-0.864,0.444,-0.226,-0.092,-0.305,3,26.9,-30.1,-17.4,211.7,-79.1,-85.6,3,0
0.213,7.781,-0.567,1.436,9.694,0.371,-1.223,-1.92,-0.919,-0.253,0.053,-0.129,3,28.4,-27.8,-17.3,218.1,-80.4,-78.5,3,0
0.757,9.362,0.536,1.235,9.713,0.558,-0.603,0.006,-0.072,0.051,0.289,-0.29,3,29.5,-26.4,-17.4,228.5,-81.7,-66.6,3,0
1.231,10.554,0.412,1.149,9.726,0.498,0.08,0.801,-0.065,0.303,0.111,-0.068,3,29.5,-27,-16.4,229.3,-82.4,-64.4,3,0
0.785,12.314,-0.031,1.029,9.751,0.185,-0.318,2.187,-0.214,0.168,0.164,-0.079,3,30.8,-26.9,-14.9,218.3,-83.6,-76.8,3,0
-1.185,11.239,3.587,1.035,9.75,0.202,-2.225,1.436,3.289,0.372,0.552,0.095,3,31.5,-27.1,-14,213.3,-83.9,-77.8,3,0
0.369,7.779,-0.35,1.195,9.728,0.322,-0.781,-1.92,-0.653,-0.314,0.338,0.236,3,30.8,-27.7,-12.9,212,-83,-77.8,3,0
1.563,7.212,-0.855,1.206,9.714,0.588,0.314,-2.503,-1.46,-0.311,0.274,0.009,3,31.4,-28.6,-12.5,219.8,-82.4,-67.5,3,0
0.845,9.864,1.046,1.078,9.717,0.769,-0.02,-0.111,0.174,0.277,0.312,-0.181,3,31.6,-28,-12.5,230.8,-81.9,-56.5,3,0
0.474,11.43,-0.144,1.104,9.736,0.396,-0.675,1.718,-0.533,0.312,-0.211,0.431,3,31.7,-28,-11,225.7,-83.1,-59.3,3,0
1.69,11.895,-0.242,1.345,9.713,0.127,0.345,2.182,-0.369,0.291,0.021,0.019,3,30.9,-29.6,-10.4,206,-82.4,-79,3,0
3.503,9.333,2.172,1.519,9.688,0.11,1.805,-0.087,2.167,-0.129,-0.688,0.148,3,30.1,-29.9,-10.6,199.5,-81.9,-88.2,3,0
1.686,8.971,1.365,1.578,9.675,0.277,0.175,-0.665,1.05,0.03,0.09,-0.261,3,29.9,-29.3,-13,203.3,-80.7,-83.7,3,0
-0.192,8.16,-0.498,1.432,9.698,0.243,-1.624,-1.539,-0.741,-0.071,-0.295,0.135,3,30.9,-28.9,-13.4,209.1,-81.4,-80.3,3,0
1.609,8.938,-1.08,1.499,9.689,0.208,0.045,-1.051,-1.367,-0.041,-0.451,0.084,3,29.8,-29.3,-14.6,210.3,-81.2,-80.9,3,0
2.413,10.437,-0.517,1.675,9.662,0.055,0.738,0.774,-0.572,-0.07,-0.357,0.089,3,27.8,-29.5,-15.8,209.2,-80.6,-85.9,3,0
1.781,12.029,-0.045,1.702,9.657,-0.074,0.086,2.338,0.064,0.065,-0.499,-0.085,3,28,-30.7,-16.7,206.5,-79.9,-91,3,0
-0.632,10.971,1.417,1.546,9.683,-0.13,-2.108,1.149,2.304,0.429,0.274,-0.194,3,27.8,-29.7,-17.5,206.5,-80.3,-93.5,3,0
0.651,7.971,-0.84,1.41,9.705,-0.031,-0.883,-1.502,-0.775,-0.57,0.161,0.237,4,28.1,-29.9,-15.9,199.2,-81.6,-98.2,3,0
1.954,7.564,0.002,1.466,9.688,0.414,0.409,-2.153,-0.548,-0.297,0.282,0.029,4,28,-29.5,-17,213.9,-81.5,-81.7,3,0
0.627,9.919,0.563,1.399,9.691,0.551,-0.671,0.049,-0.223,0.119,0.389,-0.065,4,28.9,-29.2,-16.9,226,-80.9,-69.6,3,0
1.37,11.763,-0.103,1.367,9.703,0.391,0.002,2.06,-0.494,-0.049,-0.321,0.192,5,29.2,-28.7,-14.8,219,-81.7,-74,3,0
2.294,12.232,-0.211,1.429,9.699,0.231,0.864,2.533,-0.442,0.073,-0.352,-0.035,5,29,-29.6,-15.1,217.9,-81.3,-76.4,3,0
3.682,9.62,-0.271,1.399,9.706,0.114,2.171,-0.191,-0.202,0.063,-0.644,-0.201,4,28.3,-29.7,-15.7,211.7,-81.7,-84.2,3,0
1.453,8.667,1.575,1.516,9.684,0.292,-0.226,-1.134,1.391,-0.117,0.383,-0.133,4,29,-29.1,-17.5,213.9,-81.2,-82.6,3,0
0.019,7.791,-0.024,1.478,9.689,0.318,-1.538,-1.894,-0.425,-0.131,-0.248,0.172,4,29.4,-28.5,-17.4,218.5,-81.1,-78.3,3,0
1.499,8.959,-0.826,1.539,9.682,0.226,-0.047,-0.706,-1.009,0.24,0.338,-0.014,4,28.3,-29.6,-17.8,216.5,-80.9,-81.7,3,0
1.664,11.148,-0.187,1.531,9.686,-0.002,0.133,1.461,-0.185,0.102,0.514,-0.049,4,29.8,-29.8,-16.3,206.1,-81,-88.9,3,0
1.207,12.659,0.108,1.45,9.698,-0.077,-0.237,3.12,0.14,0.177,0.781,-0.062,4,29.6,-29.4,-13.7,200.3,-81.3,-92.2,3,0
0.879,10.389,-0.728,1.283,9.721,-0.136,-0.426,0.713,-0.03,0.106,0.62,-0.142,4,30.9,-29.6,-10.9,193.5,-82.1,-94.5,3,0
1.379,7.185,-0.464,1.255,9.72,0.336,0.124,-2.535,-0.801,-0.685,0.569,-0.147,4,32.1,-29.3,-9.5,196.7,-82.6,-87.3,3,0
1.518,8.2,0.297,1.033,9.703,0.975,0.53,-1.651,-0.695,-0.462,0.361,-0.197,4,32.9,-28.9,-8.7,229.2,-81.9,-51.1,3,0
0.584,10.298,1.683,1.017,9.673,1.251,-0.517,0.751,0.54,-0.056,0.264,0.057,3,32.9,-27.3,-9.5,239.3,-80.9,-40,3,0
0.541,11.95,2.196,1.159,9.682,1.043,-0.653,2.376,1.049,0.342,-0.218,0.359,3,33.1,-28.2,-8.6,237.9,-80.7,-41.2,3,0
0.919,12.352,-0.747,1.344,9.687,0.721,-0.516,2.495,-1.009,-0.011,0.478,0.161,3,32.3,-29.1,-8.5,217.9,-81.2,-61.7,3,0
2.897,10.983,-0.862,1.522,9.65,0.86,1.284,1.4,-1.671,-0.527,-0.768,-0.082,3,31.7,-29.8,-8.3,216.1,-80.1,-63.1,3,0
-0.369,8.248,1.702,1.44,9.658,0.908,-1.914,-1.388,0.559,0.69,0.244,-0.265,3,31.4,-29.5,-8.8,223.1,-79.4,-57,3,0
0.958,6.876,-0.941,1.482,9.665,0.754,-0.525,-2.788,-1.695,-0.003,-0.318,0.177,4,31.1,-29.9,-7.6,215.7,-80.4,-62.1,3,0
2.665,9.745,0.397,1.687,9.634,0.712,0.918,-0.04,-0.415,-0.115,-0.06,0.241,4,31.4,-30.2,-7.9,213.3,-79.8,-64.5,3,0
2.665,11.399,0.711,1.824,9.618,0.577,0.869,1.3,0.099,0.394,-0.152,-0.122,4,30.1,-29.9,-8.1,210.7,-78.8,-69.2,3,0
-1.42,11.713,3.766,1.659,9.66,0.313,-3.079,2.27,2.676,0.259,0.839,0.021,4,31.3,-30.7,-7.6,201.9,-80,-79.3,3,0
-0.4,8.157,-0.843,1.614,9.671,0.193,-2.064,-1.339,-1.029,-0.275,0.722,0.356,4,30.5,-30.8,-4.7,190.8,-80.2,-87,3,0
1.358,6.024,-0.412,1.581,9.579,1.382,-0.425,-3.129,-1.758,-1.235,0.627,-0.316,4,30.6,-31.2,-4.4,204.2,-79.5,-67.4,3,0
2.959,10.346,2.038,1.409,9.428,2.301,1.122,0.834,-0.661,-1.41,-0.125,0.407,3,30.5,-30.6,-5,234.7,-76,-35.7,3,0
4.192,10.784,4.729,1.828,9.265,2.644,2.438,1.435,2.238,0.913,0.291,-0.103,3,31.1,-30.9,-8.3,235.6,-70.9,-34.7,3,0
3.457,10.561,0.239,1.971,9.468,1.626,1.391,0.923,-1.102,0.526,-1.383,0.076,2,30.7,-32,-5.7,226,-73.9,-42.8,3,0
4.736,10.042,3.105,2.258,9.423,1.511,2.308,0.542,1.604,-0.099,-0.75,-0.106,3,29.6,-32.5,-8.2,218.9,-74.8,-55.3,3,0
1.793,10.245,6.01,2.057,9.461,1.558,-0.11,1.035,4.401,-0.111,-0.727,-0.227,3,29.4,-30.8,-10.8,226.9,-74.6,-53.5,3,0
0.22,5.866,-0.043,1.97,9.48,1.556,-1.989,-3.159,-1.352,0.238,-1.06,-0.1,3,28.9,-30.8,-14.3,231.9,-74.8,-51.8,3,0
0.922,7.085,-1.484,1.779,9.578,1.125,-0.858,-2.493,-2.609,0.343,-0.106,-0.321,3,28.5,-30.3,-16,233,-77.3,-57.3,3,0
1.494,11.445,-0.345,1.598,9.64,0.824,-0.104,1.804,-1.169,-0.074,0.116,0.219,4,28.9,-30.7,-16,231.7,-78.9,-59.5,3,0
1.954,13.123,2.133,1.693,9.613,0.943,0.261,3.51,1.19,0.06,0.483,-0.071,4,29.9,-29.6,-15.7,230,-78.6,-60.9,3,0
0.634,10.499,1.202,1.373,9.7,0.432,-0.674,1.117,1.747,0.835,0.649,-0.131,4,30.5,-30.5,-12.1,224.1,-80.5,-63.7,3,0
2.078,6.579,-0.271,1.598,9.643,0.791,0.279,-2.886,-0.923,-0.711,-0.205,0.238,4,30.1,-30.8,-9.7,210.7,-81.2,-71.7,3,0
1.506,7.394,-0.33,1.509,9.652,0.851,-0.017,-2.242,-1.179,0.321,0.403,-0.117,4,30.7,-30.8,-10.8,222.9,-79.8,-60.6,3,0
0.924,9.704,0.017,1.444,9.667,0.802,-0.52,0.037,-0.785,-0.05,0.265,-0.106,4,31,-30.2,-9.2,219.4,-80.2,-61.2,3,0
1.065,12.599,1.037,1.21,9.705,0.718,-0.163,2.807,0.379,0.362,0.005,-0.325,4,31.6,-30.1,-8.8,219.7,-81.1,-59.5,3,0
3.522,10.41,1.113,1.309,9.696,0.666,2.071,1.449,-0.342,-0.601,-0.523,0.368,3,32,-30.8,-8.4,215.4,-82.6,-65,3,0
3.491,11.15,1.089,1.395,9.665,0.901,1.699,1.54,0.584,-0.405,-0.95,-0.184,3,31.1,-30.8,-11.3,224.6,-80.4,-58.9,3,0
-0.057,7.547,1.489,1.288,9.684,0.857,-1.343,-2.039,0.773,0.534,-0.351,-0.146,3,30.8,-29.6,-14.6,233.2,-80.4,-54.6,3,0
1.07,5.765,-1.525,1.197,9.718,0.537,-0.115,-3.927,-2.089,0.105,-0.56,-0.194,3,31.6,-29.3,-15.1,225.2,-82.1,-64.6,3,0
1.132,10.07,0.393,0.977,9.745,0.506,0.153,0.034,-0.037,0.119,0.385,-0.185,4,31,-28.9,-15.2,229.3,-83.6,-62.6,3,0
0.699,13.87,0.069,0.898,9.754,0.472,0.098,4.212,-0.058,-0.226,0.059,0.221,4,31.4,-28.1,-13.8,228.5,-84.1,-62.3,3,0
-0.828,11.775,4.688,0.945,9.741,0.618,-1.388,2.429,3.177,0.273,1.028,-0.033,3,32.1,-28.5,-14,231.9,-83.3,-57.6,3,0
0.28,7.499,-1.717,1.019,9.75,0.265,-0.744,-1.631,-1.955,-0.5,-0.171,0.471,4,31.7,-29.9,-10.4,209.3,-83.8,-75.4,3,0
1.027,6.91,-1.374,1.279,9.681,0.897,-0.211,-2.764,-2.243,-0.528,0.542,0.153,4,30.8,-30.1,-12.1,222.8,-81.8,-62,3,0
2.09,8.555,0.266,1.379,9.611,1.38,0.766,-0.898,-0.908,-0.261,0.42,0.078,3,31.4,-30.1,-11.5,235.8,-78.8,-45.8,3,0
1.132,11.722,1.729,1.27,9.635,1.31,-0.142,2.233,0.311,0.026,-0.246,-0.067,3,32.1,-30,-10.4,237.1,-78.8,-44,3,0
2.643,12.709,0.589,1.459,9.6,1.368,1.57,3.096,-0.672,-0.327,-0.484,0.315,3,31.7,-29.9,-11.9,237.2,-79.2,-44.1,3,0
5.162,9.824,3.266,1.862,9.47,1.736,3.3,0.353,1.53,-0.132,-0.939,-0.039,3,28.9,-30.5,-15.5,238.7,-75,-47,3,0
1.482,7.295,3.572,1.732,9.48,1.818,0.197,-1.703,1.689,0.028,-0.206,-0.58,3,29.2,-29,-18.4,247.1,-75.2,-44.7,3,0
-0.848,6.457,-0.05,1.225,9.625,1.428,-1.945,-3.15,-1.588,0.536,-0.424,-0.429,3,30.4,-27.4,-19.1,251.2,-77.2,-40.3,3,0
0.91,10.76,-1.008,0.944,9.687,1.203,-0.044,1.133,-2.156,-0.277,-0.244,-0.225,6,31,-26.7,-19.1,257,-81,-38.1,3,0
1.499,12.316,3.517,0.968,9.701,1.058,0.269,2.857,2.478,0.499,0.043,0.234,6,30.5,-26.6,-19.9,256.8,-81.4,-40,3,0
1.894,11.957,-0.577,1.187,9.715,0.617,0.707,2.242,-1.194,0.078,-0.537,0.184,6,30.2,-27.3,-20.2,239,-82.3,-59.2,3,0
-0.271,9.972,1.281,1.025,9.744,0.419,-1.221,0.245,0.211,0.353,0.083,-0.172,8,29.6,-28.6,-19.5,230.8,-83.1,-67.4,3,0
0.728,7.726,0.034,1.066,9.724,0.692,-0.288,-2.057,-0.594,-0.54,-0.022,0.302,8,30.4,-28.9,-19.5,239.1,-82.8,-58.3,3,0
1.348,8.495,-0.723,1.104,9.716,0.748,0.368,-1.348,-1.603,0.248,0.31,-0.174,7,28.6,-28.6,-19.8,243.9,-81.6,-53.9,3,0
0.215,9.73,0.335,1.068,9.738,0.454,-0.659,0.06,0.217,0.119,0.198,0.133,7,30.7,-29.1,-17.6,232.3,-83.1,-63.1,3,0
1.106,11.308,-0.199,1.021,9.75,0.243,0.219,1.328,-0.085,0.526,0.278,-0.372,6,30.4,-29,-18.8,225.1,-83.3,-72.1,3,0
0.723,11.945,0.024,0.688,9.782,-0.054,0.154,1.832,1.138,-0.322,0.13,-0.009,6,31.7,-29.9,-15.3,195.1,-85.9,-99.1,3,0
2.229,12.065,0.326,0.626,9.78,0.355,1.564,2.285,0.036,-0.602,-0.556,-0.213,6,32.2,-28.3,-17.3,217.6,-85.9,-78.4,3,0
-1.149,8.885,2.157,0.546,9.782,0.42,-1.719,-1.086,0.624,0.452,0.053,0.018,6,31.2,-28,-18.4,246.9,-85.8,-50.3,3,0
1.868,5.054,-2.373,0.923,9.75,0.513,0.945,-4.695,-2.886,-0.173,-0.045,0.043,6,31.4,-28.9,-18.8,236.6,-83.8,-60.9,3,0
1.853,9.354,0.934,0.783,9.763,0.498,1.015,-0.952,0.132,0.001,0.47,-0.133,6,30.7,-28.1,-18.2,238.4,-84.3,-58.8,3,0
1.121,12.936,0.577,0.791,9.755,0.619,0.342,3.088,0.013,-0.248,-0.17,0.106,6,32,-28.8,-16.7,240.2,-84.4,-53.4,3,0
-0.484,12.984,4.061,0.968,9.712,0.956,-0.872,3.315,2.373,0.187,0.594,0.008,5,31.9,-28.2,-18.4,247.1,-82.4,-46.9,3,0
-0.067,9.038,-0.723,1.002,9.739,0.565,-1.251,-0.277,-0.941,-0.088,-0.102,0.236,5,32.3,-29.5,-16,231.9,-83.3,-60.6,3,0
0.548,7.219,-0.098,0.919,9.73,0.808,-0.404,-2.471,-0.993,0.446,0.733,-0.283,5,32.2,-29.4,-15.8,241.8,-82.2,-49.2,3,0
0.903,7.461,-1.077,0.801,9.75,0.688,0.033,-2.438,-1.713,-0.328,0.028,0.053,5,33.4,-30.7,-14.3,237.9,-84,-50.8,3,0
0.567,10.008,0.177,0.778,9.735,0.897,-0.21,0.274,-0.72,-0.168,0.128,0.006,5,33.4,-29.9,-14,246.5,-83,-41.3,3,0
0.948,11.969,1.288,0.85,9.718,1.004,0.113,2.196,0.401,-0.061,0.002,0.044,4,33,-30.1,-13.6,247.4,-82.5,-39.9,3,0
1.061,12.077,3.934,0.917,9.672,1.334,0.143,2.405,2.6,-0.065,0.458,0.1,4,32.7,-29.9,-15.2,250.6,-81.7,-38,3,0
1.918,10.587,1.427,0.917,9.688,1.209,1,0.899,0.218,-0.061,-0.075,-0.008,4,32.9,-30.5,-15,250.2,-81.2,-37.5,3,0
0.797,8.255,0.833,0.897,9.675,1.324,-0.107,-1.564,-0.579,-0.148,-0.298,-0.129,4,32.9,-29.7,-15.1,252.2,-80.7,-35,3,0
0.776,8.476,0.041,0.686,9.71,1.188,0.09,-1.234,-1.147,0.062,-0.217,-0.294,4,33.1,-29.6,-15.8,258,-81.6,-31.3,3,0
0.682,9.283,0.977,0.542,9.738,1.026,0.105,-0.474,0.01,0.271,-0.265,-0.042,4,34.7,-29.4,-15.4,260.7,-82.9,-27.2,3,0
0.05,10.461,0.28,0.53,9.763,0.753,-0.315,0.563,0.004,0.373,0.009,0.013,5,33.9,-29.9,-15.5,257.6,-84.2,-33.1,3,0
0.577,11.77,-1.678,0.531,9.78,0.48,0.003,2.081,-2.005,-0.132,0.091,-0.04,5,33.9,-30.9,-14.2,246.8,-85.2,-43.7,3,0
0.249,11.174,1.389,0.538,9.771,0.631,-0.5,1.68,1.203,0.179,0.302,0.159,5,33.3,-30.3,-13.9,250.4,-85.1,-38.2,3,0
-0.065,9.529,1.18,0.611,9.755,0.797,-0.755,-0.18,0.51,-0.256,0.114,0.113,5,34,-30.5,-13.9,244.4,-84.9,-42.8,3,0
0.256,8.339,0.242,0.54,9.761,0.781,-0.355,-1.395,-0.851,0.334,0.174,-0.118,5,33.9,-29.9,-13.1,252.3,-84,-34,3,0
0.615,8.334,-0.424,0.556,9.772,0.603,0.078,-1.395,-1.232,0,-0.009,0.118,4,34.3,-31,-12.1,243.1,-85.2,-42.7,3,0
0.848,9.905,0.328,0.592,9.779,0.429,0.256,0.126,-0.101,0.116,-0.308,-0.006,4,34,-30.8,-11.8,232.5,-85.7,-54,3,0
0.438,11.56,-0.074,0.56,9.787,0.269,-0.15,1.756,-0.352,-0.113,-0.229,0.001,4,34,-31.4,-11.2,223.8,-86.3,-63.5,3,0
0.668,10.341,2.322,0.638,9.773,0.509,0.03,0.568,1.814,-0.154,0.136,0.051,4,34.6,-31.6,-12.4,234.2,-85.6,-53.7,3,0
1.789,9.687,0.397,0.628,9.765,0.648,1.146,-0.152,-0.169,-0.339,-0.05,-0.034,5,34.1,-31.6,-12.1,236.2,-85.2,-49.9,3,0
0.443,8.588,1.566,0.615,9.736,1.002,-0.177,-1.065,0.387,-0.34,-0.029,-0.055,5,34.7,-30.8,-14.6,249.8,-84,-37.9,3,0
0.512,8.672,0.151,0.496,9.74,1.03,0.011,-1.049,-0.891,0.141,-0.01,-0.106,5,34.6,-29.6,-14.8,260.2,-82.8,-27.9,3,0
1.154,9.694,0.809,0.497,9.75,0.932,0.645,0.019,-0.068,0.205,0.149,-0.097,5,34.1,-29,-13.9,261,-83.5,-26.3,3,0
1.022,11.193,1.185,0.488,9.767,0.736,0.278,1.347,0.331,0.055,-0.195,0.127,5,35.3,-29.8,-14,256.2,-84.9,-31.7,3,0
0.781,11.277,2.143,0.585,9.752,0.857,0.196,1.525,1.285,-0.187,0.233,-0.045,5,34.8,-30.1,-14.6,254.4,-83.9,-34.3,3,0
0.577,9.56,-0.031,0.566,9.76,0.771,-0.042,-0.159,-0.733,-0.05,-0.36,0.156,5,34.9,-30.2,-14.3,253.1,-84.6,-34.7,3,0
0.426,8.981,0.872,0.659,9.735,0.983,-0.245,-0.804,-0.07,-0.205,-0.03,0.004,5,34.2,-30.5,-14.5,251.5,-83.5,-35.9,3,0
-0.45,9.192,0.852,0.656,9.728,1.055,-0.891,-0.723,-0.111,0.16,0.051,0.044,5,34.7,-30.1,-15.2,255.8,-82.7,-31.9,3,0
0.955,8.825,-0.515,0.52,9.761,0.786,0.435,-0.936,-1.301,0.078,0.09,-0.007,5,34,-30.5,-14.4,257,-83.9,-30.6,3,0
0.725,10.571,0.565,0.548,9.78,0.477,0.366,0.525,0.04,0.194,-0.031,-0.272,5,34.1,-30.5,-14.5,247.8,-85.4,-43.1,3,0
0.498,12.661,0.01,0.448,9.788,0.413,0.168,2.847,-0.354,-0.198,-0.129,-0.001,5,34.3,-30.4,-13.7,239.6,-86.6,-50.5,3,0
1.434,9.352,2.188,0.578,9.777,0.502,0.387,-0.164,2.611,0.063,-0.361,0.198,5,34.3,-30.2,-14.1,243.1,-85.7,-46.2,3,0
1.051,8.708,1.022,0.674,9.757,0.719,0.291,-1.056,0.241,-0.073,0.116,-0.238,6,33.2,-30.1,-15.4,243.7,-84.3,-46.1,3,0
0.385,8.485,0.761,0.533,9.755,0.852,-0.147,-1.27,-0.091,0.012,-0.112,-0.171,5,33.8,-29.2,-14.6,255.8,-84,-33.6,3,0
0.759,9.041,0.668,0.502,9.758,0.841,0.298,-0.916,-0.406,-0.05,-0.002,0,5,35.2,-28.3,-15.7,260.6,-84.2,-29.9,3,0
0.318,10.743,1.176,0.516,9.769,0.679,-0.569,1.026,0.449,0.54,0.182,0.084,5,34.8,-28.9,-14,255.2,-84.6,-34.6,3,0
1.123,12.062,-0.893,0.583,9.783,0.355,0.626,2.509,-1.454,0.191,-0.2,0.007,5,34.3,-30.1,-13,229.8,-86,-58.7,3,0
-0.757,11.081,2.09,0.62,9.772,0.54,-1.302,1.268,1.464,0.064,0.313,0.045,4,34.1,-30.2,-12.8,238.6,-85.2,-49,3,0
0.129,8.83,1.547,0.699,9.751,0.773,-0.57,-0.921,0.774,-0.335,0.203,0.169,4,33.4,-30.7,-11.9,239.5,-84.5,-46.1,3,0
0.85,8.085,0.122,0.745,9.733,0.937,0.144,-1.564,-0.43,-0.004,0.057,0.042,4,33.8,-30.9,-12.2,246.3,-83.1,-38.3,3,0
0.623,8.603,0.175,0.798,9.726,0.974,-0.175,-1.123,-0.856,-0.184,0.003,0.098,4,33.4,-30.1,-11.6,245.6,-82.8,-38.9,3,0
0.673,10.564,1.302,0.784,9.74,0.834,-0.085,0.762,0.351,0.127,-0.021,-0.032,4,33.8,-30.1,-11.6,241.5,-82.9,-41.7,3,0
0.73,11.888,-0.402,0.748,9.756,0.65,-0.114,2.153,-1.071,-0.091,-0.25,0.216,4,33.3,-30.3,-12.1,238.3,-84.3,-47.6,3,0
1.166,11.184,2.373,0.91,9.733,0.785,0.256,1.451,1.588,-0.168,0.017,0.194,4,32,-31.2,-10.7,234.6,-83.3,-49.5,3,0
2.272,9.39,-0.283,0.964,9.738,0.648,1.102,-0.663,-0.392,0.314,-0.603,-0.231,3,32.8,-30.2,-11.3,229.5,-83,-54.6,3,0
0.393,8.811,0.991,0.861,9.748,0.634,-0.585,-0.961,0.525,-0.314,0.013,-0.156,3,32.6,-30.3,-12.5,228,-83.8,-58.5,3,0
1.176,8.028,0.249,0.957,9.714,0.941,0.254,-1.682,-0.735,-0.241,-0.327,0.126,4,33.2,-30.1,-13.1,240.2,-82.5,-46,3,0
1.496,9.204,-0.019,0.996,9.712,0.93,0.501,-0.508,-0.949,-0.077,-0.03,-0.102,4,32.4,-29.3,-14.3,241.3,-81.9,-46.1,3,0
0.838,10.662,1.559,0.941,9.729,0.797,-0.218,0.89,0.189,0.04,0.035,-0.073,4,32.9,-30.3,-14.2,239,-82.6,-48.9,3,0
2.227,11.404,0.548,0.973,9.714,0.924,1.182,1.797,-0.28,-0.415,-0.401,0.007,4,31.7,-29.5,-14.9,239.4,-82.8,-48.9,3,0
-1.061,11.131,3.263,0.738,9.737,0.902,-1.748,1.339,2.266,0.475,0.197,0.102,4,32.6,-27.7,-15.2,252.3,-82,-38.3,3,0
0.814,8.447,1.654,0.882,9.706,1.092,-0.178,-1.268,0.34,-0.134,0.31,0.152,4,33.1,-28.8,-16.1,249.8,-82.7,-40.9,3,0
0.759,8.811,0.697,0.869,9.692,1.22,-0.136,-0.828,-0.42,0,-0.038,-0.032,4,32.8,-28.7,-15.7,253.9,-81.2,-35.5,3,0
0.74,8.682,0.438,0.858,9.7,1.159,-0.109,-0.925,-0.819,-0.081,-0.13,0.037,4,33.1,-28.6,-17.8,256.5,-81.4,-35.7,3,0
0.795,10.353,1.616,0.815,9.724,0.976,0.035,0.6,0.571,0.23,-0.176,-0.142,4,34.6,-28.8,-21.2,257.4,-82.1,-38.8,3,0
0.848,10.901,-0.371,0.732,9.753,0.714,-0.464,1.04,-0.534,0.152,-0.491,0.036,4,34.6,-28.2,-20.6,252.3,-83.7,-43.4,3,0
0.675,10.571,3.931,0.727,9.757,0.665,-0.028,0.775,3.345,0.251,0.285,-0.106,4,33.2,-29,-22.7,253.2,-84,-47.6,3,0
1.391,9.982,1.235,0.711,9.74,0.889,0.689,0.16,0.485,-0.429,-0.142,0.046,4,33.2,-27.3,-22,257.1,-84,-41.7,3,0
0.397,8.524,1.379,0.724,9.703,1.224,-0.326,-1.179,0.155,-0.175,-0.149,-0.073,4,33.5,-27.8,-22.7,266.1,-82,-32.5,3,0
0.615,8.349,0.371,0.591,9.701,1.305,0.02,-1.341,-0.929,-0.049,0.075,-0.172,4,34.6,-27.5,-24.5,273.2,-81.5,-25.7,3,0
1.104,9.34,1.456,0.615,9.675,1.48,0.489,-0.335,-0.024,-0.211,0.025,0.07,4,34.4,-26.5,-24.4,276.8,-81,-22.4,3,0
0.97,10.276,1.36,0.698,9.659,1.548,0.31,0.524,-0.13,-0.006,0.012,-0.062,4,34.5,-26.8,-24.8,275.4,-80.1,-23.2,3,0
1.118,10.887,1.13,0.709,9.672,1.455,0.392,1.248,-0.306,-0.08,0.083,-0.159,4,34.1,-26.1,-24.8,274.5,-80.3,-25.8,3,0
1.171,10.444,0.855,0.655,9.675,1.464,0.477,0.726,-0.569,-0.275,-0.143,-0.049,4,34.7,-25.8,-24.4,274.4,-80.7,-24.2,3,0
-0.287,10.125,3.687,0.488,9.684,1.468,-0.804,0.53,2.063,0.397,0.089,-0.287,4,34.4,-25.3,-23.9,277.4,-80.4,-22.4,3,0
0.352,8.413,1.736,0.485,9.673,1.539,-0.341,-0.987,0.551,-0.186,-0.208,0.185,4,34.4,-24.5,-22.1,281.1,-81.2,-16.5,3,0
0.194,8.952,1.279,0.497,9.646,1.698,-0.348,-0.658,-0.47,-0.137,-0.09,0.043,4,34.4,-24.1,-23,280.5,-79.8,-16.8,3,0
0.156,9.204,0.28,0.456,9.667,1.587,-0.346,-0.37,-1.35,-0.16,-0.111,0.182,4,32.2,-24.7,-20.4,279.5,-79.9,-15.7,3,0
0.139,9.943,1.551,0.45,9.705,1.334,-0.406,0.056,0.311,0.064,-0.033,0.094,4,32.4,-24.1,-22,280.7,-81.6,-18.5,3,0
0.338,11.05,2.279,0.525,9.715,1.229,-0.113,1.33,0.624,0.168,0.103,0.114,4,32,-23.9,-21.8,277.4,-82,-22.1,3,0
0.771,12.089,0.996,0.537,9.724,1.152,0.205,2.367,-0.192,0.2,-0.037,-0.098,4,30.7,-24.5,-21.1,273.3,-82.2,-25.1,3,0
0.716,8.691,3.716,0.589,9.724,1.13,-0.101,-1.066,2.943,0.251,-0.164,0.026,4,30.9,-25.4,-20.3,271.9,-82.8,-26.6,3,0
1.997,8.873,0.982,0.661,9.719,1.133,1.388,-0.831,-0.271,-0.021,0.001,-0.033,4,30.2,-25.4,-22.5,270.5,-82.6,-28.4,3,0
0.905,8.552,2.136,0.78,9.684,1.337,0.058,-1.014,0.777,-0.216,-0.103,0.178,4,31.1,-25.4,-22.3,269.7,-81.3,-29.9,3,0
0.764,8.727,0.381,0.744,9.686,1.342,0.044,-0.973,-0.94,0.124,0.068,-0.145,4,30.2,-25,-22.8,271.8,-80.8,-29.5,3,0
0.8,9.855,0.565,0.569,9.718,1.186,0.23,0.137,-0.621,0.143,0.011,-0.181,3,30.1,-24.7,-22.4,274.1,-81.9,-26.6,3,0
0.247,11.315,1.556,0.524,9.731,1.101,-0.134,1.405,0.182,0.205,0.206,-0.2,3,31,-24.9,-21.8,274.4,-82.7,-26.1,3,0
1.2,11.133,0.96,0.401,9.758,0.884,0.509,1.677,0.186,-0.355,-0.181,0.082,3,31.7,-24.5,-21.2,275.1,-84.3,-24.4,3,0
-0.098,9.972,3.982,0.411,9.733,1.129,-0.509,0.239,2.852,0.405,0.047,-0.061,3,32,-25.1,-21.7,278.9,-83,-21,3,0
0.426,8.437,1.276,0.435,9.731,1.136,0.003,-1.126,0.033,0,0.064,0.063,3,32.5,-24.4,-20.8,278.8,-83.2,-19.4,3,0
0.314,8.662,-0.261,0.438,9.73,1.141,-0.177,-1.072,-1.275,-0.192,-0.253,0.026,3,31.7,-24.8,-21.4,277.4,-82.8,-21.2,3,0
0,9.637,0.824,0.383,9.754,0.936,-0.441,-0.017,-0.067,-0.021,0.029,-0.105,3,31.4,-24.7,-22,278.4,-83.8,-23.1,3,0
0.687,10.542,1.58,0.326,9.767,0.821,0.323,0.861,0.783,0.285,-0.233,-0.086,3,31.6,-24.4,-23.2,281.9,-84.4,-21.2,3,0
0.431,12,0.029,0.261,9.789,0.524,0.106,2.089,-0.407,0.172,-0.443,-0.074,3,31.4,-25,-22.9,277.9,-85.8,-24.1,3,0
-0.017,10.109,3.747,0.325,9.793,0.405,-0.34,0.091,3.503,0.435,0.134,0.101,3,30.6,-25.3,-22.9,271.5,-86.7,-32.9,3,0
1.422,9.137,0.512,0.432,9.79,0.377,1.405,-0.601,-0.375,-0.109,-0.171,-0.031,3,29.8,-26,-23.2,256,-86.9,-49.4,3,0
-0.532,8.777,1.283,0.484,9.772,0.668,-1.013,-1.045,0.615,-0.325,-0.141,0.201,4,29.1,-26.4,-23.4,263.9,-86.1,-40.9,3,0
-0.177,8.378,-0.922,0.409,9.772,0.715,-0.675,-1.497,-1.482,0.212,0.202,-0.082,3,29.4,-25.4,-25.2,272.4,-84.6,-32.7,3,0
1.082,9.544,0.17,0.429,9.771,0.723,0.67,-0.122,-0.622,-0.117,0.097,0.001,3,30.5,-25.4,-24,275.1,-85.2,-30.4,3,0
0.283,10.868,1.702,0.416,9.774,0.686,-0.227,1.099,1.138,0.175,0.475,-0.093,4,30.1,-25.4,-23.9,273.7,-85.1,-31.7,3,0
1.559,11.663,-0.934,0.368,9.785,0.539,1.249,1.837,-1.533,-0.281,-0.012,0.087,4,31.5,-24.5,-23.2,270,-86.5,-34.3,3,0
-1.405,10.312,4.949,0.365,9.77,0.76,-1.696,0.441,4.141,0.299,0.484,0.188,3,31.7,-24.7,-21.1,276.9,-85.1,-25.2,3,0
0.453,8.27,-0.122,0.547,9.758,0.812,-0.061,-1.497,-1.035,-0.029,0.284,0.331,3,31.8,-25.5,-19.4,267.7,-84.7,-29.5,3,0
1.413,8.112,0.048,0.855,9.714,1.037,0.546,-1.576,-1.006,-0.302,0.059,0.137,3,31.6,-27.3,-19.1,255.6,-82.5,-39.9,3,0
0.79,9.232,-0.007,0.87,9.706,1.097,-0.097,-0.474,-1.097,-0.197,0.136,0.018,3,32.8,-27.1,-19.6,257.3,-81.8,-38.4,3,0
0.749,10.164,1.116,0.867,9.7,1.153,-0.115,0.48,-0.016,0.004,-0.001,-0.054,3,32.8,-26.8,-20.3,258.6,-81.4,-37,3,0
0.804,11.842,1.192,0.732,9.727,1.009,0.152,2.034,0.15,0.318,0.047,-0.241,3,33.5,-26.8,-22,260,-82.3,-36.6,3,0
0.886,11.536,2.327,0.656,9.753,0.79,0.23,1.783,1.537,-0.406,-0.242,0.214,3,32.8,-26.7,-19.9,257.4,-84,-39.7,3,0
1.233,9.668,0.086,0.635,9.753,0.806,0.674,-0.094,-0.825,-0.084,-0.426,-0.027,3,32.8,-27.3,-20.2,258.3,-84.1,-38.9,3,0
0.606,8.406,2.222,0.735,9.713,1.138,-0.13,-1.306,1.084,-0.247,0.18,-0.07,3,32.2,-26.4,-22.3,263.8,-82.7,-35.7,3,0
-0.105,8.572,-0.261,0.589,9.714,1.208,-0.654,-1.152,-1.567,0.023,-0.052,-0.038,4,32.5,-25.7,-21.8,272.7,-82.1,-26.4,3,0
1.358,8.792,0.318,0.596,9.708,1.252,0.776,-0.907,-0.919,-0.201,0.174,-0.003,4,32.4,-26.5,-21.8,273.5,-81.9,-25.5,3,0
0.9,11.109,1.401,0.734,9.725,1.03,0.465,1.057,0.179,0.159,-0.032,-0.148,3,32.6,-25.7,-22.7,266.3,-82.5,-33.7,3,0
0.812,12.903,0.804,0.496,9.766,0.747,0.282,3.171,0.071,0.124,-0.041,-0.32,3,33.2,-25.5,-22.1,263,-83.8,-36.8,3,0
-1.87,11.73,4.178,0.283,9.78,0.659,-2.033,1.885,3.258,0.5,0.353,-0.081,4,34.6,-23.8,-20.9,272,-85.1,-27.4,3,0
-0.639,8.126,0.132,0.317,9.786,0.556,-0.957,-1.66,-0.424,0.066,0.218,0.175,4,35,-25.5,-19.7,265.9,-86.4,-31.6,3,0
1.575,7.382,-0.843,0.53,9.774,0.598,0.993,-2.381,-1.378,-0.208,-0.027,0.302,4,34.7,-26.6,-18.4,258.9,-85.9,-35.7,3,0
1.185,9.06,0.644,0.675,9.743,0.886,0.665,-0.904,-0.44,-0.31,0.127,0.006,3,33.8,-26.5,-19.3,255.3,-84.2,-40.2,3,0
0.618,10.47,1.195,0.736,9.728,0.998,-0.073,0.572,0.317,0.093,-0.243,-0.021,3,34,-26.8,-19.3,258,-82.7,-36.3,3,0
0.797,11.77,0.706,0.731,9.752,0.724,0.119,2.049,-0.037,0.305,-0.04,-0.036,4,32.7,-27.2,-19.6,255.6,-83.4,-41.2,3,0
-0.318,11.713,3.366,0.605,9.761,0.728,-1.021,1.832,2.792,-0.193,0.198,-0.092,4,33,-26.7,-20.5,251.1,-84.5,-46.5,3,0
1.305,9.319,-0.132,0.54,9.771,0.63,0.963,-0.503,-0.912,-0.202,-0.495,0.032,4,33.5,-26.7,-19.5,255.2,-85.3,-41.6,3,0
-0.354,8.26,2.624,0.526,9.751,0.896,-0.883,-1.486,1.762,-0.101,0.386,-0.071,4,33.5,-26.2,-20.6,265.2,-84,-32.6,3,0
0.472,8.028,-0.187,0.492,9.735,1.08,-0.035,-1.695,-1.264,-0.043,0.111,-0.085,4,33.7,-26.2,-21.1,270,-83.3,-26,3,0
0.809,9.424,0.189,0.402,9.74,1.072,0.397,-0.332,-0.914,-0.136,0.01,0.012,4,33.7,-25.3,-21.1,277,-83.3,-20.5,3,0
0.651,10.98,0.972,0.458,9.745,1.001,0.232,1.183,-0.196,0.093,0.067,-0.134,4,34.1,-26.7,-20.6,272.7,-83.6,-24.6,3,0
-0.572,12.671,1.121,0.235,9.775,0.747,-0.781,2.68,0.354,0.204,0.087,-0.092,6,34.6,-24.8,-19.8,280.5,-85.1,-18.2,3,0
-1.238,9.836,2.574,0.281,9.774,0.744,-1.392,-0.08,1.926,0.106,0.244,0.206,6,34.4,-25,-20.2,279.7,-85.4,-17.8,3,0
-0.919,9.038,1.291,0.315,9.763,0.872,-1.234,-0.724,0.419,-0.468,0.498,0.103,5,34.4,-26.6,-18.7,275.6,-84.6,-19.8,3,0
0.63,8.212,-0.453,0.305,9.74,1.103,0.361,-1.546,-1.587,-0.324,0.077,0.204,5,35.5,-26,-18.2,278.2,-83.7,-14.8,3,0
0.433,8.694,1.291,0.418,9.714,1.276,-0.035,-0.903,-0.05,-0.029,0.194,0.075,4,35.5,-26.2,-18.5,274.2,-82.4,-18,3,0
0.819,11.095,1.686,0.526,9.702,1.33,0.368,0.886,0.128,-0.029,-0.09,-0.008,4,34.8,-26.5,-17.7,270.5,-81.9,-19.9,3,0
0.742,13.671,1.058,0.37,9.736,1.117,0.372,3.936,-0.059,0.114,-0.088,-0.131,4,35.8,-26.5,-18.2,272.6,-82.9,-19.2,3,0
1.156,9.465,4.949,0.512,9.705,1.311,0.769,-0.32,3.525,0.219,-0.019,0.035,4,34.7,-26.6,-19,272.2,-81.6,-20.5,3,0
1.279,8.677,1.128,0.559,9.701,1.32,0.76,-0.972,-0.17,-0.115,-0.402,-0.031,4,34.5,-26.6,-18.2,269.1,-81.8,-22.5,3,0
0,7.252,1.109,0.547,9.693,1.386,-0.582,-2.38,-0.005,0.08,-0.267,-0.129,5,33.6,-26.4,-19.7,272.8,-81.2,-21.7,3,0
-0.354,8.811,-0.012,0.348,9.714,1.302,-0.537,-0.74,-1.335,0.148,0.026,-0.095,5,34.4,-25,-20,279.7,-81.9,-15.6,3,0
0.886,11.907,0.8,0.434,9.72,1.229,0.397,2.211,-0.237,-0.057,0.098,0.141,6,34.3,-25.8,-21.3,278.9,-82.3,-18,3,0
0.934,12.053,0.883,0.414,9.745,1.015,0.582,2.286,-0.098,-0.063,-0.225,-0.189,6,34.7,-26.4,-19.4,271.8,-83.5,-23.8,3,0
-2.425,9.917,6.065,0.31,9.712,1.322,-2.68,0.116,4.762,-0.006,0.824,0.305,6,34.9,-25.1,-19.6,281.8,-82.4,-13.2,3,0
0.33,7.772,-0.678,0.511,9.683,1.463,-0.187,-1.895,-2.207,0.212,0.028,0.268,6,34.6,-26.5,-19.4,273.9,-81.3,-17.4,3,0
0.864,8.356,0.321,0.755,9.658,1.524,0.109,-1.302,-1.203,-0.576,0.239,0.298,5,34.6,-27.8,-18.2,264.5,-80.6,-26,3,0
-0.69,9.529,1.437,0.651,9.646,1.644,-1.357,-0.114,-0.352,0.208,0.267,-0.163,5,34,-28,-18.4,267.2,-79.3,-22.8,3,0
0.074,10.274,-0.031,0.482,9.708,1.297,-0.415,0.539,-1.4,0.214,0.31,0.016,5,34.8,-26.8,-16.3,268.3,-81.4,-20.2,3,0
0.615,12.29,1.542,0.369,9.729,1.178,0.239,2.549,0.352,-0.277,0.461,0.034,5,35.8,-27.4,-14.6,269.6,-83.1,-18.4,3,0
2.555,9.347,3.469,0.535,9.638,1.731,2.02,-0.291,1.738,-0.169,-0.018,-0.048,5,35.9,-27.1,-14.2,267.7,-80.7,-17,3,0
1.068,9.419,2.866,0.48,9.592,1.984,0.148,-0.285,1.035,-0.077,-0.063,-0.341,4,36.1,-26,-15.4,270,-78.1,-14.6,3,0
-1.204,7.688,1.623,0.036,9.639,1.803,-1.207,-1.903,-0.601,0.88,-0.256,-0.701,4,36.8,-25,-15.2,279.7,-78.5,-5,3,0
-0.239,10.238,-1.262,-0.397,9.718,1.253,0.167,0.192,-2.85,-0.085,-0.463,-0.225,5,38.3,-23.4,-15.5,299.3,-81.6,10.3,3,0
0.316,11.153,1.947,-0.158,9.753,1.008,0.439,1.402,1.113,0.29,0.426,0.39,5,37.5,-23.6,-16.5,301.6,-83.6,12.1,3,0
0.464,11.524,1.293,0.218,9.759,0.939,0.167,1.805,-0.018,-0.233,-0.346,0.486,5,37.2,-25,-15,291.3,-84.6,2.4,3,0
-1.384,10.813,3.766,0.494,9.721,1.198,-1.636,1.034,2.3,0.022,0.561,0.069,5,35.2,-26.1,-16.7,267.5,-82.7,-23.5,3,0
-0.587,8.394,0.977,0.323,9.706,1.361,-0.759,-1.487,-0.433,-0.211,-0.066,0.044,5,35.5,-26.5,-16,273.8,-82.1,-15.2,3,0
0.764,8.095,0.072,0.297,9.678,1.554,0.586,-1.753,-1.654,-0.294,0.141,-0.087,4,35.9,-26.2,-15.7,276.3,-81.4,-12.4,3,0
-0.532,9.723,1.35,0.257,9.67,1.614,-0.485,-0.011,-0.407,-0.047,0.057,0.092,4,36.5,-25.6,-15.9,278.3,-80.4,-8.8,3,0
0.031,11.038,0.656,0.316,9.699,1.413,-0.582,0.963,-0.369,0.182,-0.342,0.03,4,35.9,-25.9,-15.7,276.5,-81.1,-11.5,3,0
1.422,11.974,0.747,0.274,9.73,1.195,0.521,2.584,0.026,0.042,0.034,0.1,4,35.9,-26.5,-15.2,275.6,-82.3,-13,3,0
1.939,10.281,3.153,0.325,9.695,1.439,1.615,0.586,1.714,0.235,-0.392,-0.07,4,36.2,-25.5,-15.7,275.7,-81.3,-12.7,3,0
0.182,8.155,3.151,0.53,9.66,1.604,-0.499,-1.685,1.533,0.033,0.046,0.039,4,34.1,-25.8,-16.5,273.3,-80.5,-16.7,3,0
0.007,7.499,-0.472,0.452,9.681,1.497,-0.243,-2.189,-2.021,-0.047,-0.103,-0.032,4,35.6,-25.8,-17.1,272.2,-80.8,-17,3,0
1.621,9.828,0.038,0.531,9.716,1.219,1.066,0.27,-1.017,0.036,0.212,-0.077,5,34.8,-25.3,-17.7,274.7,-81.2,-16.9,3,0
1.915,10.779,2.641,0.722,9.722,1.061,1.191,1.064,1.582,0.144,-0.266,0.188,5,35.4,-25.2,-16.7,259.9,-82.6,-31.4,3,0
0.929,11.926,1.836,0.832,9.726,0.938,0.41,2.334,0.934,0.225,-0.067,-0.092,4,34.3,-26.2,-16.9,250.4,-82.7,-41.6,3,0
-0.534,9.192,1.508,0.657,9.753,0.783,-1.102,-0.727,0.316,0.482,-0.139,-0.004,4,34.6,-26.4,-17.4,251.6,-83.7,-40.3,3,0
0.175,8.045,0.769,0.639,9.748,0.865,-0.636,-1.789,0.028,-0.19,-0.151,0.141,5,34.3,-26.7,-17,255.8,-83.7,-36.4,3,0
1.566,9.635,0.766,0.897,9.693,1.191,0.643,-0.151,-0.53,-0.481,-0.296,0.318,5,33.3,-26.1,-18.4,259.7,-83.1,-35.7,3,0
1.109,9.833,0.771,1.119,9.679,1.116,-0.018,0.164,-0.304,0.248,-0.582,-0.008,4,31.4,-26.7,-21.7,253.9,-80.5,-43.2,3,0
0.776,10.81,0.84,0.994,9.734,0.656,-0.168,1.21,0.126,0.526,-0.604,-0.25,4,30.5,-26.6,-23.2,248.7,-81.7,-50.8,3,0
0.383,11.174,0.838,0.81,9.765,0.409,-0.375,1.414,0.417,0.107,-0.401,-0.181,5,29.6,-27.1,-23.9,242.2,-84.7,-63.2,3,0
1.247,9.539,-0.01,0.694,9.776,0.34,0.745,-0.161,-0.543,0.051,-0.869,-0.073,6,28.8,-26.5,-24.3,243.8,-85.2,-62.9,3,0
0.417,9.077,1.923,0.74,9.761,0.591,-0.247,-0.617,1.192,-0.311,0.429,-0.042,6,27.5,-25.8,-25.9,253.7,-84.7,-54.8,3,0
-0.18,7.762,-0.632,0.59,9.761,0.737,-0.655,-2.054,-1.523,-0.21,-0.34,-0.073,7,28.3,-25.7,-26.3,270.4,-84.5,-38.7,3,0
0.91,9.39,-0.283,0.493,9.761,0.808,0.48,-0.117,-0.942,-0.196,0.187,-0.028,7,28.4,-25.6,-26.9,278.3,-84.5,-32,3,0
1.832,12.067,1.98,0.663,9.737,0.956,1.066,2.323,0.995,-0.069,0.164,0.269,5,28.4,-24.5,-27,277,-83.9,-32.3,3,0
0.45,12.242,1.346,0.72,9.748,0.787,-0.375,2.68,1.059,0.296,0.048,0.031,5,28.7,-25.5,-25.9,271.2,-83.1,-37.4,3,0
1.082,9.201,1.238,0.806,9.757,0.571,0.238,-0.261,0.701,0.15,0.059,0.114,6,28.6,-25.3,-25.6,262.4,-84.1,-46.5,3,0
0.242,7.678,0.304,0.768,9.758,0.596,-0.658,-1.946,0.347,-0.055,-0.004,-0.007,6,28.6,-26.5,-22.7,250.9,-84.2,-54.9,3,0
0.651,8.363,-0.215,0.736,9.747,0.79,-0.151,-1.257,-0.893,-0.13,0.316,-0.042,6,29.2,-26.3,-24.5,261.2,-83.7,-44.2,3,0
0.184,10.106,1.48,0.758,9.737,0.89,-0.416,0.391,-0.045,-0.105,-0.008,0.122,6,29.5,-26,-23.6,264.7,-83.5,-40.8,3,0
0.057,11.576,0.041,0.69,9.76,0.654,-0.654,1.742,-0.563,0.492,-0.214,-0.129,6,28.9,-26.2,-24.2,263.3,-83.3,-42.2,3,0
1.461,11.356,0.69,0.745,9.767,0.47,0.55,1.898,0.158,-0.14,-0.206,0.128,6,28.2,-27.5,-24.2,249.3,-84.8,-57.8,3,0
2.296,9.292,1.638,0.841,9.761,0.423,1.278,-0.474,1.461,0.134,-0.539,0.009,6,28.2,-27.1,-24.4,244.9,-84.6,-62.2,3,0
0.591,7.824,0.357,0.911,9.752,0.491,-0.1,-1.755,-0.247,0.122,0.407,-0.26,6,27.2,-26.6,-25.1,246.9,-83.9,-61.9,3,0
-0.424,8.402,-0.086,0.607,9.78,0.387,-1.27,-1.338,-0.217,-0.002,0.125,-0.155,6,29.1,-26.5,-24.5,247.5,-85.5,-59.1,3,0
1.302,9.601,-0.469,0.499,9.788,0.354,0.619,-0.301,-1.23,0.005,0.274,0.076,6,29.1,-26,-23,252.8,-86.4,-53.2,3,0
0.757,11.591,1.111,0.577,9.789,0.103,0.238,1.703,0.914,0.304,0.292,0.125,6,30.4,-26.1,-22.1,231.1,-86.6,-73.4,3,0
0.357,11.595,1.13,0.708,9.781,-0.004,-0.268,1.805,1.15,0.391,0.38,-0.197,6,29.1,-27.1,-21.6,216,-85.7,-87.2,3,0
-0.034,9.398,0.266,0.685,9.781,-0.194,-0.851,-0.122,0.562,-0.003,-0.092,0.364,5,30.4,-27.2,-20.2,196,-86.2,-107.4,3,0
0.472,8.481,-1.504,0.685,9.782,-0.133,-0.213,-1.49,-1.505,-0.231,0.488,-0.15,5,30.7,-28.1,-19.4,198.9,-85.7,-101.6,3,0
0.752,8.545,0.599,0.672,9.781,0.213,0.015,-1.301,0.17,-0.248,0.04,0.095,5,31.4,-26.9,-19.3,223.4,-86.1,-76.1,3,0
-0.366,9.407,-0.395,0.665,9.78,0.272,-0.852,-0.313,-0.909,-0.024,0.169,0.067,5,31.3,-27.3,-19.4,230.1,-85.8,-69.1,3,0
0.273,11.174,-0.941,0.533,9.792,0.072,-0.225,0.901,-1.058,0.161,0.087,-0.092,5,31.6,-27,-18.5,217,-86.9,-82.3,3,0
0.809,12.927,0.644,0.491,9.794,-0.031,0.175,3.108,0.706,-0.356,0.033,0.224,5,31.6,-26.9,-17.8,197.2,-87.3,-101.6,3,0
1.824,9.79,0.986,0.669,9.782,0.182,1.053,-0.224,1.743,0.45,-0.286,-0.209,5,31.1,-26.9,-18.2,225,-85.9,-72.3,3,0
0.266,8.572,1.202,0.634,9.783,0.238,-0.153,-1.09,1.031,-0.12,0.065,-0.183,5,31.9,-27.1,-18.4,223.2,-86.1,-76.4,3,0
-0.069,7.86,-0.254,0.47,9.784,0.469,-0.54,-1.924,-0.722,-0.152,0.031,-0.223,6,31.4,-26,-18.6,249.2,-86.1,-49.7,3,0
0.457,9.441,-0.407,0.265,9.795,0.405,0.192,-0.354,-0.812,0.028,0.136,-0.004,5,32.2,-25.1,-18.5,264.5,-86.8,-34,3,0
0.974,11.119,1.676,0.372,9.795,0.285,0.581,1.039,1.343,0.447,0.058,0.164,5,32.8,-24.8,-18.3,251.8,-87.2,-45.1,3,0
1.348,12.479,-0.309,0.572,9.79,0.002,0.887,2.72,-0.754,0.089,-0.109,0.17,5,31.3,-26.1,-17.1,209.6,-86.9,-88,3,0
0.022,9.903,0.644,0.635,9.784,-0.222,-0.437,0.416,0.586,0.027,0.354,-0.059,5,31,-27.2,-16.8,195.2,-86.2,-102.8,3,0
-0.907,8.208,-0.486,0.398,9.797,-0.171,-1.252,-1.74,0.102,0.017,0.293,-0.258,5,32.3,-27,-14.8,187.1,-86.6,-109.1,3,0
1.109,8.512,-0.697,0.368,9.795,0.305,0.623,-1.173,-1.627,-0.734,-0.03,0.288,5,33.1,-26.1,-15.4,234,-87.8,-59.2,3,0
-0.005,10.384,0.74,0.496,9.781,0.514,-0.106,0.254,-0.121,-0.186,-0.058,-0.014,4,32.5,-26,-16.7,249.7,-85.9,-45.6,3,0
-0.029,11.581,0.125,0.52,9.782,0.454,-0.587,1.667,-0.143,0.21,-0.366,0.022,4,31.9,-25.4,-16.9,250.5,-85.7,-44.1,3,0
0.893,11.909,-0.323,0.563,9.789,0.188,0.33,2.12,-0.512,-0.184,-0.204,0.244,5,31.6,-26.3,-16.9,231.2,-86.6,-65,3,0
1.556,10.214,3.01,0.692,9.775,0.375,1.436,0.269,2.426,0.203,-0.15,-0.002,5,31.3,-26.4,-17.8,237.1,-85.5,-60.3,3,0
1.812,8.979,1.908,0.885,9.746,0.634,1.212,-0.569,0.881,-0.168,0.031,-0.129,5,30.7,-25.6,-19,243.2,-83.6,-54.4,3,0
-0.23,7.674,0.084,0.811,9.743,0.761,-1.115,-1.986,-0.623,-0.197,-0.306,0.065,5,30.9,-25.2,-19,248.8,-83.6,-48.7,3,0
0.886,9.39,-0.555,0.685,9.751,0.788,-0.013,-0.691,-1.48,0.174,0.372,-0.117,5,30.4,-25,-20.2,254.5,-83.2,-44,3,0
1.592,11.279,0.759,0.713,9.76,0.635,0.972,1.381,-0.218,0.082,0.156,0.172,5,31.4,-25,-18.3,250.4,-84.5,-46.2,3,0
2.057,11.646,-0.364,0.897,9.753,0.489,1.236,1.845,-0.779,0.036,-0.093,-0.092,5,31.3,-25.2,-17.3,238.8,-84.2,-57.9,3,0
-0.879,10.221,3.852,0.792,9.763,0.48,-1.601,0.906,2.728,0.15,0.172,0.083,5,30.8,-25.3,-17.1,235.4,-84.6,-60.3,3,0
0.254,7.896,-0.079,0.771,9.767,0.414,-0.338,-1.833,-0.455,0.056,0.117,-0.067,5,31.4,-25.9,-16.4,233.5,-84.8,-61.5,3,0
0.273,8.789,-0.242,0.68,9.76,0.675,-0.453,-1.04,-1.022,-0.522,0.002,-0.038,5,31.7,-25.1,-16.7,244.6,-84.7,-50.2,3,0
-0.479,9.941,0.177,0.552,9.753,0.864,-0.983,0.138,-0.677,-0.083,0.067,0.072,5,31.1,-24.1,-17.9,262,-83.9,-34.2,3,0
0.084,10.039,0.481,0.583,9.758,0.786,-0.499,0.282,-0.305,0.179,-0.06,0.102,5,31.3,-24.2,-17,262.3,-84,-33.2,3,0
0.907,11.598,0.141,0.49,9.781,0.516,0.394,1.803,-0.417,0.052,0.145,-0.035,6,32,-24.1,-17,252.4,-85.7,-42.9,3,0
1.331,11.631,1.642,0.566,9.769,0.647,0.859,2.152,0.661,-0.257,-0.01,0.212,6,31.1,-24,-16.3,252.9,-85,-41.2,3,0
2.775,8.842,-0.745,0.76,9.762,0.541,1.981,-0.867,-1.209,0.07,-0.683,0.061,5,31,-23.5,-17.5,248.5,-84.6,-47,3,0
0.412,8.66,1.298,0.872,9.745,0.662,-0.334,-1.15,0.645,-0.283,-0.211,-0.131,5,29.6,-23.3,-17,241.4,-84,-56.9,3,0
0.623,9.046,-0.347,0.878,9.726,0.898,-0.459,-1.047,-1.08,-0.187,-0.62,0.046,5,29.9,-22.9,-19.1,249.4,-83.1,-47.5,3,0
2.093,10.681,0.704,1.21,9.695,0.844,0.626,0.931,-0.581,-0.159,-0.461,0.537,5,28.4,-21.8,-20.9,247,-81.3,-55.1,3,0
2.09,10.587,-0.005,1.617,9.655,0.576,0.473,0.932,-0.581,0.136,-0.927,0.15,5,25.4,-23.8,-21.8,240.7,-80.2,-63.8,3,0
0.769,11.035,0.936,1.747,9.643,0.364,-0.674,2.012,0.726,0.144,-0.256,0.355,5,25,-23.7,-23.2,231.9,-79.8,-75.5,3,0
1.614,8.373,0.577,2.132,9.564,0.391,-0.681,-0.971,0.736,-0.114,-0.054,0.589,5,23.8,-24.1,-24.1,230.8,-78.2,-79.9,3,0
2.279,7.968,1.204,2.444,9.444,1.008,-0.148,-1.542,0.249,-0.527,0.137,0.03,5,23.6,-23.9,-24.9,240,-74.4,-67.6,3,0
2.318,8.624,0.816,2.426,9.408,1.334,-0.197,-0.736,-0.702,-0.412,0.002,0.071,5,24,-22.9,-25.4,245.2,-73.9,-63,3,0
1.348,9.939,1.477,2.274,9.418,1.516,-0.936,0.576,0.033,0.001,0.259,-0.255,5,24.4,-22.6,-26.6,251.3,-73.4,-57.5,3,0
2.229,11.308,2.124,2.055,9.46,1.564,0.229,1.867,0.507,0.073,0.161,-0.283,5,25.9,-20.7,-27.1,252.5,-74.3,-54.6,3,0
1.913,10.034,3.917,1.63,9.496,1.826,0.276,0.703,1.306,-0.334,0.749,-0.353,4,28.2,-19.3,-26,258,-75.6,-49.8,3,0
1.891,10.154,2.624,1.276,9.559,1.781,0.616,0.595,0.843,-0.305,0.05,0.023,4,30.7,-19.1,-24.5,265.9,-77.4,-36.5,3,0
-0.139,8.54,2.117,1.455,9.489,2.003,-1.586,-0.968,0.025,0.427,-0.159,0.395,5,30.8,-19.9,-24.5,266.1,-75.4,-35.5,3,0
0.476,8.605,0.139,1.533,9.524,1.765,-1.033,-1.091,-1.521,0.45,0.175,0.059,6,30.1,-21.6,-25.1,261.2,-76.2,-41,3,0
2.27,9.802,0.539,1.578,9.595,1.27,0.665,0.188,-0.861,0.084,0.122,0.292,6,29.8,-22.4,-23.9,256.3,-77.7,-46.1,3,0
3.958,9.678,0.68,1.854,9.553,1.215,1.946,-0.096,-0.406,-0.009,-0.077,0.06,5,29.3,-24.4,-24.8,247.9,-77.2,-55.8,3,0
1.504,10.576,3.278,1.677,9.578,1.272,-0.173,0.997,2.006,0.164,1.497,-0.406,5,29.2,-23.5,-23.9,245.8,-76.9,-56.6,3,0
-0.376,8.806,2.054,1.103,9.586,1.751,-1.599,-0.54,0.255,-0.162,1.009,0.029,4,32.9,-23,-20.2,260.6,-77.9,-33.6,3,0
1.41,7.92,0.445,0.907,9.547,2.052,0.371,-1.665,-1.429,-0.35,0.376,0.058,4,35.2,-22.6,-17.9,264.8,-77.1,-24.9,3,0
1.544,8.888,2.186,1.156,9.401,2.539,0.306,-0.519,-0.274,-0.815,-0.318,0.562,3,34,-22.7,-17.9,266.3,-75.3,-22.7,3,0
1.688,10.458,3.876,1.423,9.301,2.763,0.256,1.296,1.034,0.322,0.252,-0.015,3,33.6,-23.3,-19.4,261.2,-71.4,-27.1,3,0
2.255,11.952,3.304,1.47,9.353,2.557,1.121,2.561,0.989,0.15,0.194,0.039,3,33,-24.1,-19.1,259.4,-72.3,-29.6,3,0
2.672,7.999,6.338,1.402,9.288,2.817,1.167,-1.143,3.528,-0.071,-0.008,-0.067,3,33.6,-24,-18.5,261.2,-71.9,-28,3,0
1.963,8.785,3.673,1.441,9.23,2.983,0.659,-0.336,0.281,-0.104,-0.395,-0.239,3,32.9,-23.9,-20.8,263.2,-70.8,-26.1,3,0
1.053,7.927,2.825,1.659,9.215,2.916,-0.605,-1.288,-0.091,0.177,-0.59,0.12,3,32.4,-22.4,-22.6,265.8,-69.9,-28.5,3,0
1.937,8.945,1.391,1.855,9.259,2.646,0.042,-0.381,-1.14,0.347,-0.464,0.002,3,30.4,-23.9,-24.2,262.6,-70.5,-33.8,3,0
2.155,9.852,1.037,1.833,9.391,2.148,0.329,0.265,-1.099,0.607,-0.081,-0.266,3,30,-23.9,-24.1,259.6,-71.9,-38,3,0
1.92,11.612,1.317,1.583,9.526,1.708,0.337,2.086,-0.391,0.086,0.011,-0.53,3,29.5,-24.7,-23.7,255.6,-75.4,-44.1,3,0
0.259,9.867,3.895,1.181,9.606,1.581,-0.889,0.148,2.116,0.232,-0.241,-0.186,3,30.9,-24.5,-22.1,260.4,-78.1,-37.6,3,0
1.178,8.457,0.297,1.078,9.602,1.676,0.08,-1.153,-1.289,-0.032,-0.219,-0.112,3,31.3,-24.1,-23.3,267.1,-78.2,-33.4,3,0
1.042,8.612,1.137,1.143,9.584,1.733,0.038,-1.006,-0.807,-0.192,-0.067,0.119,3,31.6,-24.1,-23.9,266.1,-77.8,-33.4,3,0
0.476,9.728,0.984,1.276,9.579,1.67,-0.747,0.142,-0.724,0.159,-0.173,0.006,3,29.6,-23.9,-24.9,266.7,-77.4,-35.3,3,0
0.946,10.892,-0.261,1.101,9.662,1.27,-0.203,1.096,-1.615,0.147,-0.294,-0.256,3,29.6,-24.8,-24.8,263.2,-79.1,-40,3,0
0.824,11.686,2.445,0.864,9.697,1.179,-0.029,1.975,1.225,-0.007,0.067,-0.261,3,30.4,-23.9,-24.7,266.5,-81.3,-38,3,0
1.707,9.536,0.994,0.704,9.728,1.016,0.307,-0.108,1.043,0.433,-0.325,0.005,3,30.7,-23.2,-24.5,270.9,-82.4,-33.6,3,0
1.863,8.773,1.48,1.069,9.671,1.225,1.267,-0.735,-0.296,-0.967,-0.654,0.475,3,29.8,-25,-24.9,264.6,-82.1,-40.2,3,0
1.599,6.541,1.542,1.671,9.473,1.906,-0.093,-2.882,-0.343,-0.363,-0.3,0.181,3,27.3,-23.8,-28.9,266.6,-75,-41.2,3,0
0.881,8.991,0.996,1.324,9.525,1.919,-0.457,-0.576,-0.95,0.077,0.153,-0.346,3,27.2,-22.9,-29.6,273.8,-75.9,-35.8,3,0
0.893,11.567,1.86,1.094,9.569,1.848,-0.203,1.957,-0.035,-0.145,0.058,0.087,3,26.6,-22,-30.2,279.7,-77.3,-31.1,3,0
2.136,12.63,1.947,1.529,9.458,2.093,0.642,3.141,-0.329,-0.595,-0.412,0.475,3,27.1,-21.9,-30.2,275.1,-75.9,-34.9,3,0
1.525,8.974,4.774,1.931,9.362,2.188,-0.416,-0.379,2.852,0.223,-0.12,0.328,3,24.8,-22.6,-31.5,270.8,-72.9,-40,3,0
2.533,7.401,2.085,2.218,9.309,2.143,0.315,-1.908,-0.057,0.007,-0.125,0.211,3,24.1,-25,-30.7,265.7,-72.2,-45,3,0
2.258,8.279,0.302,2.257,9.311,2.093,0.42,-1.281,-2.12,0.004,0.125,-0.315,3,23.4,-24.5,-30.6,263.2,-71.5,-47.2,3,0
1.226,9.357,1.121,1.95,9.43,1.853,-0.607,-0.351,-0.529,0.326,-0.005,-0.466,3,24.4,-24.1,-29.9,264.3,-73.4,-46.6,3,0
0.998,11.72,2.385,1.577,9.56,1.514,-0.593,2.148,0.859,0.376,0.089,-0.082,3,26.5,-24.6,-29,264.2,-75.9,-45.2,3,0
1.401,12.046,1.7,1.501,9.611,1.246,-0.098,2.437,0.524,0.335,-0.19,-0.069,3,26.6,-24.8,-28.3,260.8,-78.1,-48.6,3,0
2.586,9.074,0.872,1.464,9.639,1.057,1.122,-0.565,-0.186,0.59,-0.157,-0.471,2,25.9,-25.9,-28.5,256.8,-78.8,-53.1,3,0
1.901,8.306,1.362,1.5,9.628,1.105,0.461,-1.255,0.202,-0.362,0.067,0.137,2,26.5,-25.9,-29.7,257.1,-79.5,-54.4,3,0
0.136,8.073,1.262,1.574,9.585,1.348,-1.419,-1.435,0.22,0.015,0.142,0.051,3,28.8,-25.1,-33.5,262.2,-78.1,-50.7,3,0
0.335,9.01,-0.132,1.368,9.623,1.307,-0.929,-0.579,-1.417,0.185,0.41,-0.112,1,28.6,-25.6,-33.4,266.8,-78.2,-46.8,3,0
1.518,11.356,0.733,1.149,9.666,1.188,0.369,1.69,-0.455,-0.189,0.335,0.086,1,30.3,-25,-31.4,267,-80.2,-45.2,3,0
1.264,12.053,1.405,1.095,9.635,1.462,0.169,2.418,-0.057,-0.33,0.816,-0.004,2,30.7,-24.8,-30.4,269,-79.6,-39,3,0
-0.091,9.06,3.728,0.862,9.612,1.745,-0.97,-0.496,2.22,0.472,0.925,-0.108,2,33.1,-24.5,-29,276.2,-78.3,-28.3,3,0
0.378,7.185,0.764,0.624,9.632,1.736,-0.311,-2.454,-0.85,-0.057,0.348,0.071,2,35.6,-24.7,-24.4,278.7,-79.1,-21.6,3,0
1.247,8.852,-0.338,0.623,9.567,2.061,0.531,-0.584,-2.168,-0.428,0.627,-0.047,2,35.9,-24.4,-23.5,277.4,-78.4,-19.3,3,0
0.603,11.315,3.036,0.568,9.561,2.104,0.036,1.754,0.932,0.034,0.245,0.042,2,36,-24.1,-23,280.1,-77.2,-15.6,3,0
1.666,11.708,1.717,0.647,9.618,1.801,1.019,2.09,-0.084,0.401,-0.42,-0.062,2,36.4,-24.5,-22.6,275.8,-78,-18.1,3,0
1.14,12.019,0.989,0.587,9.647,1.664,0.553,2.373,-0.675,-0.128,-0.308,-0.182,2,35.4,-23.6,-23.3,276.2,-79.6,-20.4,3,0
2.512,9.079,1.518,0.72,9.651,1.584,1.928,-0.886,1.301,0.051,-1.136,-0.134,2,35.8,-25.3,-22.9,274,-79.9,-22.6,3,0
0.637,6.821,2.552,0.85,9.652,1.514,-0.213,-2.83,1.038,0.489,-0.186,0.078,2,35.2,-24.8,-23.1,271.7,-79.3,-26,3,0
1.07,8.394,0.144,0.914,9.661,1.417,0.14,-1.281,-1.755,0.067,-0.423,0.007,0,34.3,-25.4,-24.4,266.2,-80.1,-32.3,3,0
0.742,10.786,0.17,0.947,9.695,1.133,-0.205,1.091,-0.963,0.298,-0.43,0.169,0,30.8,-25.1,-22.8,263.7,-80.9,-36.5,3,0
1.961,9.998,-0.278,1.123,9.704,0.86,0.838,0.294,-1.138,0.129,-0.685,0.034,0,30.1,-25.9,-23.9,252,-81.7,-51.4,3,0
-0.96,9.862,2.526,0.707,9.761,0.623,-2.278,-0.285,2.705,0.442,0.627,-0.196,0,29.1,-26.2,-23.5,255.1,-82.9,-51.1,3,0
1.547,10.343,2.119,1.081,9.584,1.773,0.456,0.723,0.523,-1.769,0.059,0.614,2,30.3,-25.2,-23.9,268.6,-79.9,-33.5,3,0
0.735,8.516,1.147,0.917,9.53,2.122,-0.256,-0.997,-1.337,0.373,-0.58,-0.435,2,29.8,-23.4,-25.1,277.3,-75.6,-24.9,3,0
2.112,8.325,0.175,0.968,9.559,1.963,1.062,-1.134,-2.075,-0.437,-0.223,0.058,0,29.7,-23,-26.7,278.1,-77.1,-26.3,3,0
0.553,10.731,2.033,0.774,9.633,1.669,-0.297,1.134,0.479,0.383,0.714,-0.329,0,29.5,-21.1,-27.2,279.8,-78,-27.4,3,0
-0.062,11.962,1.47,0.479,9.696,1.386,-0.579,2.409,-0.407,0.045,-0.553,-0.046,0,31.4,-21.9,-25.1,284.5,-81.2,-19.5,3,0
1.185,8.94,4.59,0.871,9.521,2.183,0.314,-0.581,2.407,-0.547,-0.103,0.034,0,29.8,-20.3,-28,282.4,-78.3,-22.2,3,0
1.947,10.714,2.674,0.906,9.42,2.57,0.921,1.019,0.696,-0.992,-0.564,0.006,0,28.9,-19.5,-29.9,289.1,-74.9,-19.6,3,0
-0.663,7.939,3.783,0.771,9.406,2.665,-1.434,-1.467,1.118,0.934,-0.159,-0.37,0,29.1,-18.1,-30.5,289.9,-72.6,-17.9,3,0
-0.074,7.741,-0.644,0.614,9.563,2.085,-0.688,-1.822,-2.729,0.127,-0.493,0.009,0,28.1,-20.1,-30.2,295,-75.8,-14.4,3,0
0.292,10.063,1.508,0.558,9.585,1.999,-0.27,0.572,-0.27,-0.237,0.612,0.119,0,27.9,-20.7,-29.3,295.1,-77.5,-16.4,3,0
0.129,13.681,3.888,0.421,9.549,2.192,-0.162,4.129,1.45,0.124,0.868,0.148,0,29.5,-19.9,-27.9,294.1,-77,-13.4,3,0
-0.271,8.682,4.303,0.664,9.541,2.169,-1.021,-0.826,3.029,0.616,0.272,0.527,0,31.3,-20.6,-25.7,293.8,-76.4,-12.1,3,0
-0.014,6.931,1.042,1.012,9.547,1.999,-1.04,-2.566,-0.941,0.175,0.561,0.385,1,31.1,-23.3,-23.6,274.3,-76.8,-25.5,3,0
1.317,9.28,-0.685,1.23,9.461,2.268,0.219,-0.073,-2.536,-0.945,0.215,0.406,1,30.9,-25,-21.1,267.4,-76.2,-29.1,3,0
1.408,10.669,2.99,1.271,9.45,2.291,0.338,1.338,0.541,0.598,1.152,-0.012,1,31.4,-24.5,-22,266.2,-73.6,-28.9,3,0
2.938,11.639,1.518,1.35,9.556,1.74,1.737,2.14,-0.327,0.529,-0.694,0.202,1,32.2,-25.4,-18.8,257.5,-76.7,-34.7,3,0
2.33,11.263,1.441,1.427,9.631,1.175,0.982,1.871,-0.136,0.118,-0.14,0.115,1,31.2,-26.8,-18.2,244.2,-79,-48.8,3,0
2.672,8.277,3.046,1.628,9.604,1.137,1.022,-1.449,1.859,0.073,-0.718,-0.068,1,31.1,-27.5,-19,239.9,-78.9,-53.1,3,0
-0.065,7.451,1.293,1.336,9.646,1.159,-1.101,-2.054,0.426,0.356,-0.149,-0.696,2,30.7,-27.1,-20.5,243.9,-78.6,-52.4,3,0
-1.032,8.756,-0.611,0.677,9.739,0.933,-1.882,-1.272,-0.981,0.059,-0.085,-0.276,2,32.4,-24.9,-19.9,261.6,-83.2,-36,3,0
0.314,9.29,-0.405,0.472,9.738,1.061,-0.142,-0.321,-1.437,-0.184,0.044,-0.125,2,32.5,-24.7,-21.5,274.4,-83.1,-25.6,3,0
1.2,11.825,0.735,0.345,9.76,0.895,0.749,2.001,-0.159,-0.286,0.223,0.135,1,33.6,-23.6,-21.1,277.2,-84.4,-21.1,3,0
0.941,11.897,1.065,0.34,9.739,1.102,0.565,2.147,-0.089,-0.203,0.364,-0.161,1,33.2,-23.7,-20.8,278,-83.3,-20.3,3,0
-1.374,9.242,2.368,0.033,9.727,1.247,-1.408,-0.485,1.121,0.374,0.312,-0.107,2,35,-22.4,-18.7,288.1,-82.4,-7.3,3,0
0.615,7.159,-1.281,0.059,9.678,1.584,0.513,-2.533,-2.824,-0.809,-0.109,0.185,2,35,-22.5,-18.2,289.9,-80.7,-2.1,3,0
-0.002,9.393,1.894,0.007,9.563,2.172,0.007,-0.269,-0.379,-0.456,0.418,-0.131,1,35.2,-22,-19.4,290.3,-77.6,-1.2,3,0
-0.776,10.923,3.306,-0.029,9.552,2.22,-0.737,1.373,1.357,0.239,-0.023,0.178,1,35.9,-21.2,-19.6,292.5,-76.8,1.6,3,0
0.941,12.012,1.451,0.214,9.623,1.875,0.727,2.389,-0.424,0.409,-0.465,0.208,1,35,-22.3,-19.4,288.2,-78.3,-3.7,3,0
0.409,11.789,2.72,0.451,9.672,1.554,0.081,2.421,0.63,0.025,-0.003,0.282,1,33.1,-23,-20.1,281.1,-80.5,-14.4,3,0
1.683,8.124,0.769,0.644,9.705,1.255,1.324,-1.497,-1.36,0.591,-1.073,-0.024,1,32.4,-25.3,-19.1,270,-81.5,-24.9,3,0
0.807,9.323,0.656,0.556,9.725,1.136,0.251,-0.401,-0.479,-0.148,0.692,-0.493,1,32,-25.4,-20.8,272.3,-82.6,-26.1,3,0
-0.311,7.827,1.702,0.241,9.706,1.382,-0.435,-1.831,-0.353,0.123,-0.431,-0.068,1,34.4,-22.7,-18.4,282.4,-81.8,-10.6,3,0
0.821,8.727,-1.386,0.248,9.724,1.244,0.501,-0.834,-2.473,0.023,0.047,-0.087,2,33.9,-22.7,-20,284.7,-82.3,-11.3,3,0
0.608,11.998,1.245,0.259,9.744,1.074,0.35,2.253,0.171,-0.153,-0.068,0.208,2,34.4,-23,-18.7,282.9,-83.6,-12.6,3,0
1.302,11.931,0.544,0.523,9.708,1.285,1.007,2.517,-0.718,-0.248,-0.048,0.033,2,32.6,-23,-20.4,275.4,-82.3,-21.2,3,0
-0.881,9.548,4.204,0.343,9.733,1.146,-1.013,-0.537,2.292,0.588,0.144,0.228,2,34,-23.2,-19.7,280.4,-82.6,-15.7,3,0
-0.038,7.106,0.694,0.492,9.712,1.263,-0.559,-2.748,-0.49,-0.095,0.262,0.302,2,34.3,-24.4,-18.3,275.4,-82.9,-18,3,0
0.201,8.303,-1.188,0.611,9.641,1.687,-0.475,-1.443,-3.205,-0.934,0.473,0.327,2,33.5,-24.4,-16.4,269.1,-80.5,-20.5,3,0
0.953,10.334,3.211,0.655,9.523,2.248,0.424,0.761,0.455,-0.463,0.885,0.064,2,33.9,-24.3,-17,270.1,-76.9,-18,3,0
1.061,11.9,2.682,0.639,9.549,2.14,0.459,2.276,0.606,0.56,-0.06,0.018,2,34.7,-24.8,-14.6,269.2,-75.9,-15,3,0
2.167,12.022,0.354,0.635,9.682,1.423,1.549,2.328,-1.032,0.179,-0.481,-0.111,21,34,-25.5,-12.9,261.7,-80.3,-22.7,3,0
1.822,9.16,3.019,0.661,9.688,1.368,0.855,-0.025,1.735,0.15,-0.382,-0.032,19,34.4,-25.1,-13.7,260.7,-81.1,-25.8,3,0
-0.383,8.282,1.868,0.473,9.727,1.156,-0.856,-1.445,0.712,0.54,-0.032,-0.254,19,35.6,-24.8,-14.5,263.2,-82.2,-23.1,3,0
-0.915,7.413,-0.261,0.384,9.759,0.886,-1.186,-2.394,-1.137,-0.03,-0.249,0.154,4,34.8,-24.7,-13.7,265.6,-84.3,-21,3,0
0.385,9.383,-0.443,0.569,9.731,1.071,-0.198,-0.41,-1.593,-0.122,0.051,0.106,4,34.4,-24.5,-14.6,261.3,-82.9,-28,3,0
-0.17,11.943,1.183,0.553,9.755,0.844,-0.843,1.479,0.633,0.215,0.103,0.276,2,35.3,-25.4,-15.3,257.6,-83.7,-31.6,3,0
2.265,12,-0.661,1.051,9.699,0.995,1.281,2.322,-1.644,-0.59,-0.137,0.31,2,34.4,-27.1,-15.6,240.6,-82.6,-46.8,3,0
-0.613,9.967,5.449,0.966,9.668,1.331,-1.567,0.465,4.198,0.632,0.949,-0.181,2,33.8,-26.8,-15.7,251.7,-79.8,-36.7,3,0
1.147,6.919,-1.168,0.919,9.683,1.249,-0.304,-2.376,-2.542,-0.662,-0.154,0.481,2,34.9,-26.4,-12.8,248.8,-81.5,-36.3,3,0
1.822,8.507,0.702,1.061,9.562,1.903,0.761,-1.055,-1.201,-0.446,0.436,-0.09,16,34.6,-27.2,-14.8,251.5,-78.1,-32.8,3,0
0.242,11.069,1.932,0.963,9.566,1.935,-0.597,1.668,-0.321,-0.167,-0.544,0.054,17,35.1,-26.9,-14.6,256,-77.2,-26.7,3,0
1.659,11.21,1.312,1.068,9.593,1.735,0.467,1.378,-0.2,0.428,-0.684,-0.209,17,33.8,-25.8,-16.5,257.5,-77.2,-29.2,3,0
0.778,11.787,0.498,0.877,9.688,1.244,0.201,2.078,-0.866,-0.21,-0.36,-0.128,10,33.1,-26.3,-16.9,255.6,-80.8,-35.6,3,0
2.035,9.536,0.529,0.82,9.703,1.159,0.832,-0.665,1.003,0.155,-0.495,-0.239,10,32.9,-25.9,-17.2,257.1,-81,-34.1,3,0
0.661,7.494,1.906,0.828,9.652,1.525,-0.093,-1.207,0.249,-0.474,0.225,0.054,1,32.8,-24.5,-19,264.4,-80.4,-29.6,3,0
0.211,7.86,1.494,0.703,9.562,2.059,-0.499,-1.688,-0.397,-0.445,0.025,-0.2,1,33.4,-23.6,-19.1,269.8,-78.2,-22.6,3,0
0.445,9.165,1.518,0.496,9.59,1.991,-0.065,-0.465,-0.581,0.142,0.011,-0.034,1,32.9,-22.5,-19.3,278.7,-77.5,-14.9,3,0
0.785,11.552,1.379,0.417,9.632,1.795,0.301,1.375,-0.124,0.136,0.032,-0.087,1,33.4,-23.8,-19,279.1,-78.8,-13.8,3,0
0.093,12.376,3,0.42,9.629,1.811,-0.259,2.826,1.141,-0.177,0.175,0.126,0,33.7,-22.7,-19,279.8,-79.3,-12.9,3,0
-0.062,8.777,2.464,0.619,9.584,1.986,-0.791,-0.612,1.362,0.298,-0.435,0.13,0,33.7,-22.9,-19.6,278.1,-77.9,-15.4,3,0
1.183,7.911,0.579,0.75,9.606,1.827,0.444,-1.374,-1.167,-0.324,0.055,0.307,0,32.9,-24.1,-19.6,272.6,-78.7,-21.1,3,0
1.405,7.884,1.468,1.021,9.532,2.068,0.387,-1.408,-0.981,-0.214,0.274,0.235,0,32.1,-25,-19.2,265.2,-76.4,-26.3,3,0
0.491,9.563,1.566,1.064,9.515,2.123,-0.54,0.046,-0.993,0.112,0.238,-0.038,0,32.5,-25,-19.7,265.5,-76,-26.6,3,0
0.953,12.943,1.089,1.045,9.58,1.817,-0.095,3.361,-0.762,0.078,-0.102,0.175,0,33.1,-24.9,-17.6,262.4,-77.4,-27.9,3,0
1.288,11.691,3.656,1.15,9.571,1.8,0.598,2.194,1.391,-0.34,-0.186,-0.089,0,31.7,-25.6,-18,258.4,-77.6,-32.8,3,0
2.935,8.921,0.69,1.192,9.607,1.569,1.648,-0.724,-0.633,0.047,-0.982,-0.05,0,32.3,-25.2,-18.5,256.2,-78.3,-35.5,3,0
0.819,8.397,2.612,1.24,9.57,1.748,-0.362,-1.151,0.876,-0.087,-0.176,-0.268,0,31,-25.3,-20.3,257.8,-77.4,-36.9,3,0
0.793,6.924,0.864,1.141,9.556,1.885,-0.337,-2.708,-0.954,-0.01,-0.328,-0.298,0,30.5,-24.1,-21.7,263.8,-77.1,-32.1,3,0
1.427,9.668,0.903,0.896,9.624,1.656,0.368,-0.263,-1.354,0.021,-0.04,-0.044,1,31.7,-23.7,-21.9,269.2,-78.6,-28.2,3,0
1.121,11.804,2.583,0.827,9.66,1.473,0.293,2.144,1.11,0.13,0.144,-0.115,1,31.6,-23.6,-22,268.3,-79.7,-29.8,3,0
-0.613,12.819,1.403,0.692,9.671,1.469,-0.762,3.409,-0.143,0.024,-0.145,-0.257,1,31.6,-22.9,-22.6,271.4,-80.2,-27.2,3,0
-0.053,7.496,2.548,0.712,9.668,1.479,-0.717,-2.054,1.303,0.25,-0.034,0.131,1,31.7,-22.9,-22,274.1,-80.4,-25.4,3,0
-0.091,7.511,-0.627,0.637,9.662,1.553,-0.903,-2.139,-2.116,-0.859,-0.046,0.456,1,32.3,-23.6,-21,277,-80.8,-21.8,3,0
1.451,7.839,0.438,1.051,9.486,2.255,0.359,-1.671,-1.86,-0.644,0.114,0.363,1,31.4,-23.7,-22.1,271.2,-75.7,-24.9,3,0
0.623,10.808,4.348,1.054,9.443,2.427,-0.31,1.281,1.222,0.207,0.285,-0.03,1,31.2,-22.7,-22.1,271.4,-74.2,-24.1,3,0
1.985,11.684,0.644,1.032,9.559,1.933,0.854,2.343,-1.172,0.515,-0.424,-0.129,1,31.4,-23.5,-23.3,270.6,-77.1,-28.1,3,0
1.372,11.514,3.524,0.894,9.611,1.734,1.007,2.586,-0.067,-0.613,0.013,0.007,0,30.8,-24.1,-21.4,269.4,-78.5,-27.3,3,0
1.31,10.073,1.001,0.753,9.629,1.699,0.556,0.444,-0.698,0.048,-0.667,-0.285,1,31.2,-23.6,-23,274.6,-78.3,-24.5,3,0
0.062,7.468,0.39,0.79,9.61,1.785,-0.752,-2.253,-0.629,-0.009,-0.474,-0.136,1,31,-22.6,-23.8,276,-78.6,-23.5,3,0
0.333,7.429,1.343,0.709,9.603,1.856,-0.292,-2.317,-0.633,0.009,0.12,-0.309,1,30.1,-22.4,-25.4,279.7,-78.5,-23.1,3,0
0.63,9.637,1.659,0.54,9.634,1.753,0.011,-0.119,-0.596,0.102,0.068,0.026,1,30.9,-22.2,-25.5,285.8,-79.2,-16.9,3,0
1.216,12.285,0.862,0.507,9.696,1.378,0.468,2.421,-0.437,0.048,-0.063,0.189,1,30.5,-22.1,-24.1,285,-80.9,-18.4,3,0
-0.359,12.098,1.554,0.566,9.709,1.261,-0.958,2.366,0.334,0.055,0.271,0.005,1,30.8,-22.8,-23.6,278.8,-81.9,-24.2,3,0
0.125,8.861,2.1,0.659,9.694,1.329,-0.568,-0.797,0.929,0.079,0.094,0.056,2,31.2,-23.2,-23.1,275,-81.4,-27,3,0
0.625,7.432,0,0.583,9.67,1.525,-0.367,-2.197,-1.381,-0.484,0.039,0.122,2,30.2,-23,-22.9,280.1,-81,-21.8,3,0
0.57,8.607,1.116,0.592,9.62,1.81,-0.058,-1.02,-0.697,-0.119,0.238,0.098,2,30,-23.2,-23.2,282,-79,-18.4,3,0
0.73,9.953,1.358,0.768,9.609,1.8,-0.045,0.425,-0.203,0.074,0.081,0.116,2,29.2,-23.1,-23,280.4,-78.5,-20.9,3,0
0.594,12.268,1.702,0.81,9.653,1.53,-0.121,2.29,0.361,0.411,-0.12,-0.013,2,28.7,-23.3,-23.7,276.5,-79.3,-26.1,3,0
2.315,10.99,1.942,1.014,9.646,1.449,1.302,1.344,0.493,-0.62,-0.391,0.216,2,28.2,-24.4,-24.4,268.7,-80.3,-35.5,3,0
1.681,9.884,0.962,0.788,9.704,1.175,0.962,0.17,-0.521,0.296,-0.624,-0.144,2,28.6,-23.7,-23.6,272,-80.4,-32.3,3,0
0.132,8.368,2.674,0.743,9.701,1.229,-0.149,-1.223,0.919,-0.076,0.415,-0.181,2,28.9,-23.6,-23.9,270.9,-81.6,-33.3,3,0
-0.385,6.795,0.797,0.662,9.687,1.374,-1.09,-2.797,-0.457,0.012,-0.167,-0.02,2,28.7,-23.7,-25.1,279.3,-81.2,-25.8,3,0
1.484,10.082,-1.705,0.662,9.711,1.198,0.715,0.245,-2.934,-0.198,-0.01,0.203,2,28.1,-23.6,-25.8,279.3,-81.9,-27.5,3,0
0.462,11.188,2.524,0.892,9.682,1.281,0.07,1.49,1.475,0.241,0.376,-0.002,2,27.1,-23.3,-26.4,272.7,-81.3,-33.6,3,0
2.014,10.374,0.421,0.951,9.693,1.149,1.007,0.703,-0.758,0.216,-0.081,-0.079,2,26.7,-23.8,-25.9,270.4,-81.3,-37.1,3,0
-0.213,11.21,1.58,0.717,9.732,0.973,-1.071,1.667,0.296,-0.401,0.115,0.228,2,25.6,-23.8,-25.6,273.4,-83,-37,3,0
0.548,9.235,4.698,0.962,9.638,1.537,-0.38,-0.376,3.275,-0.12,-0.056,0.166,2,23.5,-23.8,-25.9,276.4,-80.9,-34.6,3,0
0.555,8.71,1.188,0.927,9.584,1.859,-0.422,-1.003,-0.401,-0.041,-0.137,-0.134,2,22.7,-24,-25.5,280.9,-77.8,-27.6,3,0
1.097,8.512,0.5,0.873,9.64,1.572,0.226,-1.122,-1.074,0.042,-0.04,-0.043,2,22.2,-24.2,-26,285.8,-78.2,-25.5,3,0
-0.043,10.626,1.18,0.817,9.711,1.095,-0.864,0.922,0.14,0.387,0.057,0.026,2,21,-23.9,-24.1,278.3,-80.8,-33.7,3,0
1.635,11.502,0.769,0.989,9.729,0.732,0.479,1.672,-0.129,0.407,-0.399,0.269,2,20.7,-25.2,-22.9,264.1,-82.8,-49.1,3,0
2.234,11.198,-0.376,1.182,9.725,0.447,1.383,1.485,-0.727,0.098,-0.202,-0.127,2,17.9,-27.1,-22.3,245.7,-82.6,-67.4,3,0
1.319,9.311,1.37,1,9.753,0.217,0.346,-0.442,1.224,-0.346,-0.588,-0.099,2,20,-27.4,-19.6,230.5,-84,-80.2,3,0
0.479,8.112,2.265,1.056,9.711,0.87,-0.352,-1.57,1.433,-0.165,-0.002,-0.14,2,19.2,-26.6,-21.1,257.2,-82.2,-53.5,3,0
0.189,7.959,-0.16,0.931,9.703,1.071,-0.742,-1.793,-1.145,-0.025,-0.304,-0.147,2,20.7,-26,-21.4,266.5,-81.6,-42.3,3,0
0.682,9.419,0.532,0.864,9.702,1.136,-0.172,-0.223,-0.569,0,0.104,-0.078,2,21.3,-25.8,-22,271.3,-81.6,-37.8,3,0
0.457,11.009,-0.338,0.738,9.732,0.956,-0.307,1.399,-1.287,0.033,0.302,0.035,2,21.8,-25.1,-21.7,272.9,-82.6,-37.1,3,0
-0.182,12.524,2.049,0.591,9.743,0.942,-0.773,2.781,1.108,-0.138,0.689,-0.093,2,22.9,-25.9,-20.5,269.5,-83.1,-37.2,3,0
-0.11,10.947,2.229,0.639,9.723,1.111,-0.794,1.293,1.248,0.011,0.332,0.251,2,24.4,-24.7,-18.4,273.3,-82.6,-27.9,3,0
0.455,8.89,1.01,0.748,9.699,1.24,-0.317,-0.745,-0.177,0.034,0.232,0.237,2,25.7,-25.6,-17.6,266.8,-82.1,-30.8,3,0
1.214,7.559,-0.613,0.859,9.704,1.126,0.377,-2.109,-1.753,0.037,0.07,0.133,2,25.3,-26,-16.1,263.3,-81.5,-33.6,3,0
0.826,9.333,0.335,0.967,9.702,1.054,-0.122,-0.63,-0.819,-0.087,-0.048,0.099,2,25.7,-26.9,-15.4,250.9,-81.6,-42.1,3,0
1.288,12.831,0.634,0.92,9.734,0.754,0.442,2.613,0.355,0.673,0.01,-0.187,1,25.1,-27.1,-15,248.8,-82.1,-46.4,3,0
1.53,12.256,0.256,0.855,9.769,0.01,0.675,2.487,0.246,0.422,-0.488,-0.001,2,26.1,-27.6,-13.1,216.7,-84.8,-77,3,0
1.336,7.884,1.123,0.844,9.768,-0.233,0.275,-1.869,2.131,0.94,-0.894,-0.126,2,27.1,-28,-14,197.7,-84.9,-96.7,3,0
0.795,8.746,-0.352,0.772,9.773,-0.245,0.008,-1.103,-0.042,-0.404,0.643,0.015,2,26.7,-28,-16.2,185.8,-85.3,-112.8,3,0
-0.728,8.246,-1.168,0.497,9.786,-0.405,-1.151,-1.607,-0.799,0.341,1.18,-0.459,2,29.3,-26.6,-13.6,189.5,-86,-109,3,0
-0.606,9.678,-1.686,0.261,9.802,-0.157,-0.843,-0.368,-1.638,-0.62,-0.515,0.061,2,30.5,-25.4,-11.3,158.1,-87.7,-132.7,3,0
0.584,10.992,0.888,0.326,9.801,0.01,0.387,1.112,0.416,-0.295,0.171,0.156,2,31.6,-25.6,-14,196.7,-88.4,-97.3,3,0
1.312,12.436,0.275,0.201,9.803,0.147,0.939,2.795,0.099,0.124,0.24,-0.719,1,30.8,-25.7,-14.5,226.4,-87.5,-66.5,3,0
-2.897,11.993,2.61,-0.356,9.799,0.177,-2.541,2.194,2.433,0.013,0.626,-0.027,1,33.8,-23.5,-13.7,338,-88.9,44.6,3,0
2.31,6.496,-1.061,0.194,9.777,0.739,1.764,-3.183,-1.335,-1.132,-1.14,0.894,1,34.8,-24.4,-13.6,328.2,-88.1,38,3,0
2.358,8.002,1.068,0.722,9.663,1.511,1.637,-1.661,-0.443,0.127,0.334,0.257,1,31.6,-24.3,-19.7,271.4,-80.4,-24.4,3,0
-0.706,9.364,2.931,0.847,9.669,1.404,-1.017,-0.439,1.081,0.451,-0.379,-0.489,1,30.7,-25.1,-18.2,262.3,-80,-31,3,0
-0.733,12.204,-0.852,0.11,9.795,0.455,-0.459,2.746,-2.021,0.835,-1.059,-0.505,1,30.8,-24.8,-18.5,279,-86,-19.7,3,0
0.917,13.085,-1.24,0.276,9.787,0.56,0.909,2.458,-1.166,-0.949,0.682,1.081,1,31.1,-24.4,-19.7,304.3,-88.1,2.5,3,0
2.703,9.558,1.93,0.828,9.697,1.203,1.995,0.002,0.38,0.311,-0.297,0.076,1,29.5,-25.4,-19.6,265.5,-81.5,-32.4,3,0
0.074,8.088,2.619,0.839,9.684,1.301,-0.743,-1.593,1.343,0.433,0.33,-0.374,1,30.4,-25.7,-20.6,264.3,-80.5,-34,3,0
0.563,8.229,0.445,0.544,9.733,1.067,0.088,-1.506,-0.643,-0.066,-0.342,-0.138,2,30.4,-25.6,-18.8,266.8,-82.9,-30.3,3,0
1.403,8.696,-0.488,0.529,9.751,0.897,0.898,-0.895,-1.606,0.149,-0.287,-0.128,2,30.2,-25.8,-20.5,269.5,-83.7,-29.6,3,0
0.615,11.15,0.522,0.541,9.78,0.486,0.098,1.562,0.384,0.472,0.412,0,2,30.2,-25.1,-20,258.8,-85.4,-43,3,0
0.608,12.972,-1.161,0.636,9.763,0.665,-0.067,3.092,-1.865,-1.176,-0.52,0.395,1,30.4,-26.2,-19.9,245.6,-86.1,-55.5,3,0
-1.676,10.336,6.699,0.797,9.636,1.636,-2.473,0.7,5.063,0.698,0.371,0.032,1,28.6,-23.8,-23.7,266.5,-81.2,-33.9,3,0
0.737,7.647,0.663,0.864,9.658,1.465,-0.127,-2.011,-0.802,0.015,0.099,0.423,1,29.8,-25.1,-21.2,270.6,-80.3,-28.8,3,0
1.183,8.102,0.541,0.987,9.614,1.666,0.196,-1.511,-1.124,-0.125,0.349,-0.172,1,29.1,-26.2,-21.7,266,-79.1,-33.3,3,0
-0.651,10.341,0.812,0.753,9.654,1.547,-1.555,0.911,-0.724,0.188,0.203,-0.084,1,30.1,-26.4,-21.2,271.7,-79.9,-26,3,0
0.979,10.961,0.84,0.831,9.688,1.274,0.148,1.273,-0.434,0.257,-0.089,0.252,1,29.8,-26.3,-20.1,267.6,-80.9,-29.5,3,0
1.796,11.706,1.259,0.868,9.7,1.15,0.755,2.104,0.126,0.053,0.128,-0.269,0,29.4,-28.1,-19.7,256.5,-81.4,-39.4,3,0
3.029,9.876,1.013,0.931,9.692,1.171,2.097,0.185,-0.159,-0.253,-0.809,0.085,0,30.5,-26.7,-19.9,259.7,-81.7,-38,3,0
0.989,7.456,1.432,1.212,9.615,1.499,0.074,-2.169,-0.333,-0.212,0.415,-0.333,0,28.6,-27.2,-23.6,260.7,-78.9,-39.8,3,0
-0.397,8.263,1.472,0.668,9.67,1.491,-1.017,-1.347,-0.179,0.116,-0.154,-0.412,2,29.6,-25.3,-22.1,272.1,-79.7,-29.2,3,0
0.529,9.172,-0.127,0.515,9.696,1.373,0.1,-0.447,-1.469,0.24,0.192,0.044,2,30.6,-24.5,-22.6,280,-80.8,-20.8,3,0
1.353,12.005,1.295,0.684,9.723,1.077,0.643,2.485,0.182,0.067,0.004,0.27,1,30.7,-24.5,-21.1,269.2,-82.6,-30,3,0
-1.714,11.435,5.253,1.027,9.703,0.986,-2.748,1.708,4.171,-0.002,-0.065,0.469,1,30.7,-26.5,-19.9,259.1,-82.1,-39.6,3,0
-0.943,9.45,3.012,1.439,9.621,1.241,-2.365,-0.252,1.85,-0.014,1.211,0.718,2,29.3,-27.4,-20.3,249,-80.4,-48.9,3,0
-0.673,8.2,-0.259,0.971,9.675,1.27,-1.651,-1.506,-1.459,0.67,2.031,-0.098,2,30.7,-28.9,-15.4,248.6,-79.3,-40.7,3,0
1.551,7.664,-0.572,0.875,9.685,1.268,0.77,-1.875,-1.644,-0.182,1.981,0.21,1,32.5,-30.1,-7,239.4,-81.3,-36.1,3,0
3.917,9.57,2.679,0.99,9.66,1.37,3.585,-0.068,1.235,-0.134,1.172,0.426,1,31.6,-31.1,0.4,232.6,-80.9,-32.7,3,0
5.047,12.493,0.809,1.29,9.628,1.348,3.757,2.866,-0.539,0.525,0.404,-0.151,1,30.7,-32.2,2.2,215.4,-78.5,-42.4,3,0
5.263,10.209,3.077,1.447,9.637,1.098,3.875,0.893,1.663,0.102,-1.841,-0.166,5,31.6,-31.1,0.8,210.2,-79.4,-51.2,3,0
1.372,10.59,4.149,1.166,9.716,0.641,0.531,0.972,3.568,-0.349,-2.63,-0.505,5,32.9,-29.5,-5.8,215.3,-82.2,-61.2,3,0
0.294,6.129,2.725,1.437,9.595,1.426,-1.059,-3.071,1.011,-0.875,-2.644,-0.173,2,29.6,-27.9,-17.9,247.3,-78.1,-45.2,3,0
-1.496,9.24,0.73,1.095,9.64,1.429,-2.592,-0.4,-0.699,0.017,-1.42,-0.276,2,27,-25.4,-25.8,266.1,-78.9,-38.8,3,0
-0.034,9.273,0.498,0.84,9.692,1.239,-0.984,-0.424,-0.654,0.262,-1.29,-0.114,0,23.4,-24.9,-30.4,280.1,-80.4,-34.9,3,0
-0.086,9.824,0.936,0.802,9.712,1.096,-1.139,0.241,-0.392,-0.289,-0.85,0.127,0,20.3,-25.2,-32.4,286.7,-82.2,-36.1,3,0
-1.281,12.752,1.683,0.415,9.741,1.052,-1.715,2.953,0.583,0.444,0.834,-0.522,2,18.7,-23.7,-33.9,296.3,-82.2,-30.4,3,0
0.194,9.728,2.071,0.156,9.742,1.11,0.038,-0.014,0.961,-0.481,0.59,0.251,2,21.2,-23.9,-31.5,316.1,-84,-7,3,0
1.999,9.228,0.862,0.225,9.712,1.341,1.951,-0.693,-1.092,-0.082,0.396,0.16,1,22.3,-23.5,-30.2,312,-82.2,-7.8,3,0
1.302,7.98,0.941,0.684,9.679,1.419,0.463,-1.587,-0.498,0.118,0.135,0.183,2,24.5,-24.1,-29.2,296.2,-80.9,-19.9,3,0
0.232,9.673,0.857,0.917,9.662,1.407,-0.768,0.002,-0.397,-0.064,-0.263,0.096,2,23.6,-23.5,-29.5,285.7,-80.5,-29.7,3,0
1.092,11.102,-0.606,0.926,9.708,1.034,-0.062,1.749,-1.839,0.355,-0.229,-0.248,1,22.2,-24.2,-30.3,277.5,-81.3,-40.6,3,0
2.009,12.352,0.857,0.939,9.714,0.961,0.821,3.067,-0.626,-0.604,-0.089,0.268,1,21.7,-24.5,-30.3,273.3,-82.8,-45.7,3,0
1.472,10.001,2.61,0.955,9.684,1.217,0.314,0.525,1.919,0.368,0.134,-0.022,1,22,-23.6,-30.1,281.1,-80.6,-37.5,3,0
1.669,7.671,1.046,1.269,9.644,1.25,0.247,-1.917,-0.251,0.161,0.105,0.005,1,21.7,-23.8,-30.5,275.8,-80,-42.4,3,0
0.354,8.09,0.654,1.179,9.667,1.152,-0.783,-1.577,-0.498,0.031,0.295,-0.031,1,21.9,-23.9,-29.9,271.1,-80,-46.1,3,0
1.417,8.722,-0.189,1.132,9.659,1.258,0.281,-0.937,-1.452,-0.1,0.181,-0.026,1,23.1,-23.6,-29.5,272.8,-80,-42.2,3,0
1.616,10.832,0.026,0.986,9.705,1.004,0.575,1.21,-0.886,0.293,0.298,-0.306,2,24.7,-22.4,-28.9,271.6,-81.2,-43.6,3,0
1.563,12.953,0.055,0.787,9.743,0.788,0.767,3.198,-0.834,-0.036,-0.133,-0.129,2,24.7,-22.9,-27.9,269.1,-82.7,-44.6,3,0
-0.223,10.006,3.675,0.707,9.733,0.971,-0.772,0.462,2.436,-0.237,0.272,-0.038,2,26,-22.3,-26.8,273.6,-83.3,-38.5,3,0
0.048,8.991,-0.29,0.563,9.745,0.939,-0.462,-0.781,-1.387,0.037,0.096,0.133,2,26,-21.9,-26.5,279.8,-83.3,-32.3,3,0
1.006,8.119,0.316,0.695,9.712,1.166,0.311,-1.593,-0.85,-0.055,0.296,-0.011,2,26.1,-22,-26.3,280.3,-82.5,-31.3,3,0
0.431,8.737,-0.275,0.759,9.701,1.22,-0.343,-0.911,-1.522,-0.143,-0.148,0.116,1,27.2,-21.3,-26.5,279.2,-81.7,-31.2,3,0
1.018,10.576,1.106,0.842,9.707,1.113,-0.1,0.605,0.053,0.262,0.033,0.125,1,26.5,-21.1,-27.1,276,-81.7,-35.4,3,0
1.468,12.314,0.409,0.9,9.719,0.945,0.611,2.539,-0.612,0.142,0.143,-0.046,1,26.2,-20.3,-27.4,269.6,-82.2,-42.1,3,0
0.52,10.413,3.311,0.683,9.757,0.714,-0.135,0.347,2.679,0.378,0.421,-0.12,1,27.1,-20.3,-26.2,267.8,-83.8,-42.8,3,0
2.078,8.701,0.045,0.645,9.766,0.617,1.39,-0.969,-0.578,-0.099,-0.401,-0.114,1,26.4,-19.8,-25.3,264.4,-84.9,-46.7,3,0
-0.153,7.82,0.637,0.562,9.756,0.824,-0.794,-1.766,-0.183,-0.351,-0.049,0.002,1,25.8,-18.8,-27.1,275.1,-84.5,-38.2,3,0
0.311,8.296,0.237,0.484,9.728,1.138,-0.082,-1.186,-1.152,-0.041,-0.06,-0.175,1,25,-16.6,-28.2,290.3,-82.7,-24.6,3,0
0.625,10.389,0.304,0.389,9.752,0.953,0.27,0.718,-0.637,0.239,0.111,-0.032,2,23,-15.4,-28.6,297,-83.4,-20.9,3,0
0.491,12.728,1.7,0.521,9.759,0.807,-0.229,2.985,1.063,-0.333,-0.5,0.211,2,23.3,-15.7,-27.8,290.3,-84.8,-27,3,0
-0.603,11.404,1.86,0.647,9.731,1.028,-1.337,1.591,1.079,-0.156,0.577,0.047,2,20,-15.2,-30.2,287.4,-83.2,-33.7,3,0
-1.374,7.973,1.489,0.573,9.722,1.153,-1.54,-1.821,1.28,0.175,0.592,-0.079,2,19.5,-16.1,-27.2,292.7,-82.6,-29.7,3,0
1.147,7.547,-0.991,0.436,9.698,1.386,0.551,-2.226,-2.471,-0.5,0.612,0.349,2,19.4,-16.9,-26,303.5,-82.1,-16.6,3,0
0.687,8.868,1.494,0.569,9.634,1.741,0.111,-0.474,-0.365,-0.249,0.546,0.176,2,17.8,-17,-23.5,299.7,-79.8,-18,3,0
0.488,10.741,2.246,0.615,9.621,1.798,-0.203,0.976,0.49,0.268,0.424,0.044,2,18.5,-16,-21.6,295.9,-78.6,-18.6,3,0
0.426,12.536,1.417,0.542,9.669,1.545,-0.08,2.985,-0.35,0.267,0.327,0.061,11,18.3,-15.4,-18.1,289.9,-79.6,-19,3,0
-0.215,11.294,3.663,0.497,9.695,1.391,-0.713,1.599,2.272,0.309,0.544,0.057,11,19.9,-16.5,-15.5,283.8,-80.8,-20.3,3,0
1.42,9.012,-0.096,0.555,9.731,1.083,0.972,-0.575,-0.951,0.201,0.052,0.016,12,20.8,-18,-12.9,272.2,-82.5,-24.1,3,0
0.062,7.362,1.302,0.567,9.727,1.113,-0.488,-2.316,0.074,-0.036,0.717,0.006,12,22.4,-18.2,-11.9,267.4,-82.9,-28.2,3,0
0.302,8.021,0.541,0.445,9.704,1.34,-0.165,-1.834,-0.78,-0.144,0.296,-0.189,2,25,-17.7,-10.1,266,-82.5,-23.5,3,0
0.436,9.939,0.448,0.245,9.723,1.252,0.236,0.273,-0.809,0.093,0.246,0.041,2,28.1,-17.1,-9.1,274.8,-82,-12.7,3,0
1.53,12.062,1.061,0.36,9.711,1.316,0.758,2.646,0.494,-0.274,0.298,0.001,2,29,-17.6,-9.7,268.9,-82.3,-15.6,3,0
-1.293,11.969,3.046,0.229,9.683,1.533,-1.608,2.221,1.951,-0.49,0.309,-0.122,2,31,-17.2,-9.2,271.4,-81.4,-10.2,3,0
-1.374,8.349,2.916,0.152,9.686,1.527,-1.507,-1.437,1.19,0.378,0.465,0.146,3,30.1,-17.8,-9.2,274.7,-80.9,-6.6,3,0
0.196,7.793,-0.297,0.084,9.661,1.679,0.113,-1.868,-1.976,-0.061,0.828,0.221,2,31.8,-19.6,-7.3,274.2,-80.7,-2.6,3,0
0.014,9.606,0.864,0.142,9.658,1.694,-0.041,-0.395,-0.602,-0.005,0.451,0.282,2,31,-20.3,-5.2,270.6,-80.1,-4,3,0
0.625,9.824,1.671,0.414,9.671,1.569,0.026,-0.027,0.141,0.256,0.3,0.291,0,31.1,-22.3,-4.8,266.6,-80.2,-7.8,3,0
1.247,12.28,0.814,0.474,9.723,1.184,0.773,2.557,-0.37,0.344,0.345,-0.061,0,30.7,-23.3,-3.5,249,-82,-21.2,3,0
1.051,11.89,2.847,0.519,9.714,1.237,0.533,2.176,1.61,-0.126,0.473,0.161,2,30.2,-23.1,-2.2,245.8,-82.6,-23,3,0
1.894,8.378,-0.117,0.612,9.722,1.133,1.368,-1.007,-0.525,-0.031,-0.522,-0.076,2,30.7,-24.6,-1.6,241.4,-82.6,-27.2,3,0
-0.098,7.877,0.876,0.582,9.696,1.346,-0.59,-2.001,-0.424,-0.253,-0.063,-0.255,1,30.5,-25.3,-2.5,241.6,-81.8,-28.3,3,0
0.314,8.593,0.891,0.465,9.67,1.565,-0.36,-1.22,-0.629,-0.127,-0.012,-0.029,1,30.4,-25.6,-3.3,252.3,-80.9,-18.6,3,0
1.056,10.125,1.19,0.459,9.68,1.503,0.573,0.386,-0.34,0.219,0.224,-0.001,1,31.4,-24.9,-3.4,253.8,-80.4,-16.3,3,0
1.616,11.311,0.575,0.57,9.711,1.24,1.048,1.58,-0.572,0.013,-0.077,0.03,0,31.9,-26,-2.2,245.5,-82,-22.3,3,0
-0.668,12.168,2.962,0.468,9.726,1.163,-1.026,2.489,1.616,-0.126,0.301,-0.169,0,31.8,-25.4,-2,244.3,-82.6,-24.2,3,0
-0.093,9.146,3.309,0.477,9.709,1.295,-0.568,-0.625,2.023,0.056,0.386,0.163,0,32.5,-25.7,-0.8,247.4,-82.2,-20.8,3,0
0.026,7.908,1.003,0.372,9.685,1.492,-0.377,-1.767,-0.436,-0.087,-0.18,0.125,0,32.4,-26.4,0.7,247.5,-81.3,-16.1,3,0
0.955,8.545,0.381,0.495,9.649,1.68,0.426,-1.089,-1.204,-0.3,0.315,0.023,2,32.3,-26.9,0.1,246.1,-79.9,-16.3,3,0
-0.163,9.663,2.049,0.484,9.637,1.753,-0.618,0.127,0.297,0.081,-0.054,-0.027,2,32.6,-27.3,-1.2,247.5,-79.4,-15.9,3,0
0.026,11.665,1.599,0.486,9.662,1.604,-0.467,1.916,-0.062,0.297,0.103,0.049,1,32.6,-27.4,-0.8,246.1,-79.9,-16.3,3,0
1.602,11.873,0.895,0.615,9.674,1.483,0.986,2.199,-0.587,-0.188,0.014,0.164,1,31.6,-27.8,0.4,242.4,-80.9,-20.8,3,0
0.558,9.85,2.169,0.55,9.7,1.335,0.06,0.1,0.619,0.357,-0.301,-0.01,0,32.4,-28.5,0.7,240.3,-80.5,-22.5,3,0
0.318,8.636,0.876,0.623,9.697,1.326,-0.099,-1.068,-0.596,-0.007,0.263,-0.076,0,32.5,-27.8,0.7,236.8,-81.4,-25.7,3,0
0.182,7.781,1.032,0.652,9.666,1.523,-0.568,-1.832,-0.472,-0.294,-0.036,0.097,0,32.5,-28.4,0.8,238.1,-81,-23.7,3,0
0.749,9.043,0.601,0.63,9.646,1.652,0,-0.646,-0.97,-0.081,0.059,0.028,0,32.8,-28.1,0,240.6,-79.7,-21.9,3,0
1.053,10.911,1.022,0.664,9.692,1.337,0.526,1.07,-0.684,0.271,0.359,-0.084,0,33.2,-28.3,1,239.2,-80.6,-24,3,0
0.148,12.591,2.16,0.566,9.726,1.124,-0.453,2.856,1.141,0.227,0.343,-0.057,0,33.1,-27.8,1.1,236.3,-82.4,-26.8,3,0
-1.219,9.632,2.488,0.543,9.739,1.016,-1.918,0.803,1.773,0.052,0.432,0.181,0,33,-28.5,2.7,232.7,-83.3,-27.7,3,0
-0.642,7.602,0.491,0.359,9.724,1.219,-1.063,-2.117,-0.634,-0.266,0.72,0.086,0,31.6,-28.6,5.8,234.8,-82.8,-19.5,3,0
0.917,8.121,0.764,0.336,9.645,1.744,0.581,-1.523,-0.98,-0.453,0.836,0.088,0,31.2,-29.4,6.8,237.7,-80.4,-12.2,3,0
0.46,9.381,1.626,0.324,9.606,1.949,0.157,-0.313,-0.261,-0.291,0.347,0.185,0,30.3,-29,8.6,237.9,-78.7,-9.3,3,0
0.438,11.459,2.306,0.403,9.595,1.985,0.056,1.871,0.359,0.112,0.177,0.133,30,28.6,-30.1,8.5,234.5,-77.9,-10.8,3,0
2.729,12.517,1.338,0.493,9.625,1.812,2.291,2.897,-0.412,-0.22,0.364,0.218,30,28.5,-30.5,10.1,229.8,-79.1,-13.5,3,0
-0.96,9.817,7.032,0.342,9.606,1.945,-1.652,0.484,7.505,0.916,0.027,-0.029,27,28.7,-31,10.7,228.3,-77.8,-13.2,3,0
0.553,7.87,1.93,0.596,9.585,1.984,-0.057,-1.723,0.018,-0.029,-0.069,-0.022,27,28.4,-30.6,12.2,222.6,-78.2,-16.6,3,0
-0.089,8.394,3.12,0.451,9.584,2.027,-0.537,-1.195,1.11,-0.134,-0.061,0.015,24,29.2,-31.4,10.9,227.8,-78,-13.2,3,0
1.053,8.368,0.711,0.479,9.541,2.215,0.594,-1.269,-1.676,-0.258,0.139,0.018,24,29.5,-31,11,227.9,-77,-12.3,3,0
1.276,9.915,1.741,0.461,9.523,2.297,0.901,0.255,-0.525,-0.014,0.237,-0.079,24,28.7,-31.8,11.2,226.8,-76,-11.4,3,0
1.319,11.045,2.026,0.481,9.541,2.217,0.793,1.461,-0.225,0.224,-0.109,-0.087,24,28.3,-31.3,11.2,229.4,-76.3,-11.4,3,0
1.432,10.987,2.064,0.481,9.619,1.847,0.951,1.368,0.217,0.546,-0.275,-0.133,24,29.6,-31.2,11,227.8,-78.5,-14.3,3,0
0.481,10.171,1.528,0.497,9.664,1.588,0.075,0.667,-0.465,-0.425,-0.453,0.045,23,30.1,-30.5,11,226.7,-80.7,-17,3,0
-1.101,8.916,3.608,0.345,9.659,1.659,-1.58,-0.604,2.258,0.394,0.018,0.101,23,30.5,-30.8,10.9,231.7,-80.1,-11.7,3,0
0.704,8.155,2.277,0.42,9.603,1.946,0.284,-1.448,0.331,-0.195,0.492,0.185,25,30.5,-30.7,10.8,231.1,-78.8,-11.9,3,0
0.905,9.165,2.595,0.457,9.525,2.287,0.431,-0.374,0.296,-0.192,0.262,-0.004,25,29.1,-31.4,11.3,228.4,-77.5,-12,3,0
1.085,9.275,1.372,0.397,9.51,2.36,0.142,0.06,-1.189,-0.103,0.11,0.001,23,29,-32.5,11.5,227.8,-76,-10.2,3,0
0.666,9.383,0.934,0.454,9.561,2.136,0.178,-0.271,-1.084,-0.065,0.01,-0.149,23,29.2,-31.8,11.3,229.8,-75.8,-9.7,3,0
0.694,10.511,0.972,0.463,9.648,1.692,0.289,0.939,-0.686,-0.08,-0.102,0.039,23,29.8,-31.3,10.2,230.1,-78.7,-13.5,3,0
0.227,11.315,2.861,0.539,9.66,1.601,-0.273,1.648,1.31,0.121,-0.135,0.009,23,29.8,-31.9,10.6,224.7,-80.1,-18.6,3,0
0.711,10.88,2.124,0.572,9.661,1.586,0.139,1.219,0.538,-0.082,0.009,0.042,23,29,-31.3,9.7,224.5,-80.1,-19.9,3,0
0.031,9.058,3.378,0.468,9.666,1.585,-0.375,-0.64,1.703,0.485,-0.348,-0.012,24,30.5,-31.2,10.5,228.8,-79.9,-16.5,3,0
0.828,9.378,1.2,0.506,9.704,1.325,0.334,-0.232,-0.215,0.176,0.273,0.113,24,30.4,-31.2,11.5,226.4,-80.8,-17.4,3,0
0.412,8.291,2.397,0.608,9.681,1.44,-0.132,-1.474,0.774,-0.052,-0.214,0.246,23,29.4,-31.2,12.1,219.9,-81.3,-22.4,3,0
0.953,8.363,0.048,0.603,9.685,1.419,0.273,-1.214,-1.407,0.135,0.139,-0.213,23,29,-31.6,12.4,217.6,-80.2,-24.4,3,0
0.824,9.17,0.879,0.581,9.684,1.431,0.243,-0.512,-0.543,-0.137,0.027,0.039,22,30.5,-31.4,12.1,221.1,-81.1,-21.8,3,0
0.675,10.145,0.953,0.654,9.707,1.232,0.034,0.454,-0.31,0.018,0.055,0.031,22,29.5,-31.9,12.9,217.7,-81.5,-25.6,3,0
0.505,12.271,1.741,0.576,9.73,1.081,-0.071,2.541,0.66,0.248,0.258,-0.058,21,29.5,-31.7,12.8,213.8,-82.6,-28.1,3,0
1.051,9.85,2.081,0.643,9.718,1.146,0.447,0.285,0.831,-0.39,0.194,0.145,21,29.4,-31.8,14.2,212.8,-83.1,-28.7,3,0
0.01,9.383,2.536,0.426,9.731,1.141,-0.486,-0.221,1.514,0.271,0.414,-0.009,19,29.3,-31.3,14,215.7,-82.2,-24.3,3,0
0.139,8.981,1.578,0.344,9.718,1.27,-0.267,-0.751,0.319,0.043,0.684,-0.076,17,28.4,-31.7,16.9,217.9,-82.3,-16.5,3,0
0.819,8.212,0.457,0.377,9.695,1.43,0.473,-1.506,-1.114,-0.261,-0.047,0.084,17,27.6,-31,17.8,218.2,-81.6,-14.5,3,0
0.002,9.644,0.951,0.357,9.691,1.46,-0.348,-0.056,-0.5,-0.192,0.137,0.068,16,26.9,-31,17.2,217.8,-81.3,-13.7,3,0
0.603,10.779,0.611,0.454,9.689,1.442,0.151,0.958,-0.839,0.13,0.004,0.065,16,26.9,-33.1,18,214.6,-80.8,-15.5,3,0
0.958,11.789,0.654,0.632,9.686,1.395,0.362,2.137,-0.662,-0.177,-0.161,0.206,16,26.5,-32.2,18.2,209.2,-81.3,-23.2,3,0
0.579,9.714,5.033,0.751,9.64,1.634,-0.172,0.073,3.398,-0.017,0.506,0.01,16,26.3,-32.9,17.4,206.6,-79.7,-25.5,3,0
1.197,9.105,1.714,0.597,9.674,1.493,0.643,-0.724,0.241,0.132,-0.243,0.017,15,26,-32,19.7,208.2,-80.4,-21.4,3,0
0.424,8.832,1.501,0.564,9.674,1.502,-0.106,-0.811,-0.013,-0.184,-0.056,-0.023,15,26.1,-32.4,19,209,-80.7,-21.9,3,0
0.192,8.186,1.053,0.541,9.654,1.634,-0.35,-1.468,-0.581,0.048,-0.129,-0.117,14,26.9,-32.2,18.8,211.2,-79.8,-19,3,0
0.584,9.33,0.374,0.529,9.693,1.394,-0.012,-0.271,-0.805,-0.005,-0.073,0.118,13,27.2,-32.1,18,213.4,-80.4,-18.1,3,0
0.965,11.181,1.796,0.673,9.716,1.15,0.285,1.485,0.742,0.126,0.161,0.087,13,26.7,-31.9,16.9,205.6,-82.1,-29,3,0
0.189,12.927,0.237,0.632,9.734,1.014,-0.446,3.16,-0.53,-0.017,-0.02,-0.036,13,26.5,-31.6,19.3,199.5,-82.8,-32.1,3,0
0.177,7.915,4.846,0.699,9.686,1.367,-0.462,-1.727,3.132,0.405,0.277,-0.058,13,25.1,-32.1,17.6,203.5,-81.1,-28.5,3,0
0.065,8.188,0.364,0.477,9.729,1.136,-0.415,-1.586,-0.738,-0.11,0.471,0.095,13,25.1,-31.1,20.1,205.5,-82.9,-23.1,3,0
0.476,8.519,0.8,0.532,9.686,1.44,-0.056,-1.167,-0.64,-0.356,0.488,0.124,13,24.4,-31.9,20.2,204.6,-81.5,-21.1,3,0
0.081,9.97,0.962,0.517,9.668,1.559,-0.465,0.34,-0.568,0.025,0.411,0.079,11,23,-32.5,20.3,205,-80.3,-18.7,3,0
0.919,10.439,0.819,0.582,9.688,1.405,0.338,0.751,-0.586,0.237,0.015,0.058,11,21.4,-32.4,21.4,202.7,-80.7,-20.1,3,0
1.113,12.472,1.307,0.588,9.715,1.203,0.533,2.865,0.169,-0.062,0.004,0.05,9,21.2,-31.7,22,198,-81.9,-24.6,3,0
-0.438,10.616,4.827,0.602,9.709,1.246,-1.127,1.288,3.677,0.356,0.243,0.056,9,20.6,-32.1,22.6,196,-81.6,-25.4,3,0
1.745,7.927,0.594,0.719,9.711,1.165,1.013,-1.793,-0.547,0.073,0.197,-0.086,9,20.3,-31.4,22.4,189.3,-82,-31.7,3,0
0.28,7.947,1.516,0.588,9.707,1.268,-0.291,-1.796,0.236,-0.168,0.148,-0.051,8,20.8,-31,23.2,193.2,-82.1,-27.5,3,0
0.656,8.344,0.381,0.496,9.701,1.348,0.074,-1.381,-0.932,-0.004,0.009,-0.007,8,20.2,-30.4,23.4,197.2,-81.5,-21.8,3,0
0.651,10.542,1.642,0.526,9.729,1.11,-0.026,1.172,0.441,0.439,0.212,-0.238,6,20.6,-30.5,23.6,195.8,-81.7,-23.1,3,0
1.324,11.842,0.742,0.63,9.725,1.094,0.656,2.105,-0.359,-0.415,-0.627,0.263,6,20.5,-29.9,23.5,191,-83.2,-29,3,0
-1.748,10.427,5.763,0.547,9.71,1.257,-2.204,1.449,3.943,0.274,0.899,-0.048,1,21,-31,22.6,195.5,-81.8,-24.9,3,0
-0.029,7.896,0.127,0.484,9.724,1.177,-0.511,-1.873,-1.067,0.09,0.321,0.136,1,19.1,-29.9,24.5,192.7,-82.8,-24.6,3,0
0.934,8.102,-0.29,0.485,9.705,1.325,0.394,-1.674,-1.799,-0.498,0.307,0.127,2,18.5,-30.4,25,194.1,-82.5,-21.5,3,0
0.132,9.187,1.176,0.508,9.66,1.613,-0.413,-0.423,-0.55,-0.117,0.119,0.074,2,16.6,-31.4,25,194.2,-80.2,-17.7,3,0
1.279,10.212,0.761,0.637,9.659,1.571,0.575,0.481,-0.793,0.128,0.043,0.012,2,15.7,-31.6,24.8,192,-79.8,-19.5,3,0
0.675,13.145,1.18,0.398,9.713,1.293,0.261,3.539,-0.247,0.333,-0.013,-0.355,2,16.1,-31,25.1,191.4,-81.3,-19.7,3,0
0.836,9.941,5.066,0.516,9.67,1.55,0.456,-0.073,3.789,-0.433,-0.067,0.428,2,16.3,-30.7,25.1,194.2,-81.1,-16.3,3,0
1.393,8.727,1.449,0.535,9.669,1.546,0.916,-0.928,-0.131,0.135,-0.086,-0.337,2,16.3,-32,24,191.8,-80.3,-19.8,3,0
-0.462,7.209,0.802,0.352,9.669,1.598,-0.764,-2.395,-0.683,0.021,-0.125,-0.2,2,18.2,-30.1,23.6,197.3,-80.4,-15.3,3,0
-0.168,7.394,1.022,0.251,9.664,1.649,-0.346,-2.885,-0.613,-0.245,-0.228,-0.167,1,18.1,-29.6,23.4,203.2,-80.5,-10.2,3,0
1.192,11.258,1.302,0.319,9.609,1.932,0.713,1.227,-0.656,-0.291,-0.21,0.138,1,18.8,-31,22.9,206.7,-78.8,-8.1,3,0
0.462,13.576,2.667,0.351,9.606,1.944,0.118,3.999,0.527,0.136,-0.139,0.053,1,18.5,-31,22.4,205.5,-77.9,-10.3,3,0
-1.583,10.295,5.916,0.51,9.597,1.952,-2.119,0.983,3.792,0.115,0.483,0.439,1,18.7,-30.8,22.9,203.6,-78.3,-11.6,3,0
0.194,7.384,2.006,0.753,9.557,2.067,-0.717,-2.144,0.117,-0.152,0.198,-0.021,1,16.7,-32.6,24.2,191.7,-77.3,-21,3,0
1.101,8.157,0.73,0.647,9.549,2.137,0.454,-1.392,-1.407,-0.04,-0.202,-0.075,1,17.5,-31.9,23.2,197.9,-76.9,-17.4,3,0
-0.077,9.304,1.659,0.625,9.561,2.09,-0.702,-0.25,-0.419,-0.041,0.142,0.125,1,16,-31.9,22.5,195,-77,-16.4,3,0
0.472,9.86,-0.627,0.698,9.583,1.96,-0.289,0.104,-2.47,0.313,-0.29,0.006,2,17.1,-31.7,22.9,193.6,-76.9,-18.1,3,0
1.293,12.805,0.867,0.678,9.693,1.324,0.614,3.111,-0.457,0.482,0.247,0.16,2,17.5,-31.6,25,189.5,-80.8,-24.8,3,0
1.482,10.607,5.296,0.888,9.679,1.306,0.297,1.148,4.253,0.398,-0.087,0.221,1,15.7,-30.6,25.9,178.3,-80.7,-31.9,3,0
1.216,8.976,2.109,0.927,9.686,1.22,0.212,-0.782,0.997,-0.068,0.178,-0.178,1,15.7,-30.2,26.1,173.9,-81.1,-38.6,3,0
-0.06,6.546,0.62,0.852,9.678,1.337,-0.841,-3.261,-0.906,-0.041,-0.285,-0.024,2,16.2,-30,26.7,177.5,-80.8,-33.4,3,0
0.381,8.356,0.168,0.677,9.694,1.321,-0.248,-1.189,-1.268,0.019,0.193,-0.179,1,17.6,-29.3,25.6,182,-80.8,-30.9,3,0
0.836,11.605,2.291,0.663,9.674,1.463,0.187,1.72,0.489,-0.035,0.152,0.054,1,17.6,-29.4,25.5,189.1,-81,-24.3,3,0
-0.524,13.348,1.863,0.53,9.722,1.17,-1.14,3.523,-0.081,0.565,0.189,-0.107,2,16.4,-28.4,26.6,188,-81,-24.2,3,0
1.168,9.381,0.292,0.859,9.708,1.089,0.223,-0.184,-0.536,-0.364,0.038,0.591,2,16,-27.8,28.4,174.9,-82.4,-35.4,3,0
-0.62,7.353,1.714,0.813,9.65,1.543,-1.375,-2.384,-0.087,0.227,1.108,-0.203,2,12.3,-29.3,27.6,173.9,-79.4,-31.9,3,0
1.638,7.413,0.002,0.738,9.64,1.64,1.161,-2.149,-1.76,-0.206,0.007,0.28,2,11.6,-28.1,27.4,180.7,-79.8,-23.1,3,0
0.261,10.69,3.893,0.737,9.629,1.708,-0.287,0.794,1.929,0.364,0.431,-0.055,2,10.7,-28.1,27.1,178.7,-78.8,-23.7,3,0
0.589,12.445,1.346,0.738,9.672,1.442,-0.109,2.484,-0.022,0.502,-0.032,-0.17,2,10.8,-26.8,28.5,174.6,-79.9,-25.9,3,0
1.393,10.848,3.721,0.727,9.687,1.341,0.968,1.322,1.709,0.072,-0.192,-0.053,2,10,-25.6,28.5,171.7,-81,-28.3,3,0
1.434,10.07,3.747,0.692,9.654,1.578,0.998,0.421,1.714,-0.514,0.204,-0.231,2,9.7,-25.1,27.8,174.5,-80.4,-25.9,3,0
-0.426,7.159,0.285,0.452,9.664,1.605,-0.878,-2.505,-1.32,0.346,-0.055,-0.137,2,9.9,-25.2,27,183.2,-79.4,-16.6,3,0
-0.065,8.107,-0.362,0.297,9.716,1.299,-0.33,-1.446,-1.63,0.419,0.121,-0.091,2,10.4,-24.6,26.5,185.5,-81.1,-14.1,3,0
1.01,10.202,0.802,0.446,9.738,1.071,0.38,0.699,0.035,-0.121,0.01,0.185,2,9.3,-22.9,28.4,181.5,-83.2,-18,3,0
1.042,12.436,2.085,0.554,9.717,1.198,0.375,2.821,0.99,-0.228,0.1,-0.062,2,8.5,-22.9,28,170.7,-82.5,-26.1,3,0
-0.572,11.998,2.919,0.581,9.691,1.385,-1.192,2.245,1.677,-0.182,0.356,0.2,2,7.8,-23.6,28.4,174.1,-81.7,-21.9,3,0
0.79,8.698,1.044,0.806,9.643,1.592,-0.016,-0.944,-0.548,-1,0.131,0,1,7.1,-25.4,27.8,167.7,-80.5,-27.9,3,0
0.242,7.326,0.503,0.617,9.57,2.049,-0.339,-2.213,-1.718,0.529,0.22,-0.04,1,5.9,-27.2,25,177.5,-76.8,-16.6,3,0
0.352,8.548,1.362,0.72,9.588,1.93,-0.368,-1.04,-0.568,-0.231,-0.209,0.351,1,4.9,-25.6,25.7,173.1,-78.2,-19,3,0
1.207,9.718,2.543,0.945,9.54,2.067,0.104,0.423,0.629,0.088,0.065,-0.021,2,4.7,-26.5,25.7,168.1,-77.1,-23,3,0
1.018,11.799,2.071,0.948,9.543,2.052,-0.167,2.333,0.13,-0.4,-0.197,0.177,2,4.4,-26.6,25.1,168.4,-77.1,-24.7,3,0
2.169,9.735,2.394,1.061,9.47,2.315,1.109,0.265,0.08,0.21,-0.038,-0.052,2,2.7,-27.7,24.4,166.1,-74.8,-24.3,3,0
0.745,8.825,3.807,0.981,9.429,2.512,-0.332,-0.78,1.18,-0.226,0.039,-0.064,2,2.3,-28.4,23.8,167.6,-74.7,-22.9,3,0
1.336,7.449,1.197,0.923,9.415,2.584,0.413,-1.966,-1.387,-0.052,-0.101,-0.107,2,1,-29.5,23.5,166.5,-73.7,-20.3,3,0
2.337,8.516,2.011,1.128,9.412,2.513,1.247,-0.845,-0.442,0.039,-0.208,-0.099,2,2,-30.5,23.7,167.4,-73.7,-21.4,3,0
0.165,10.556,3.426,1.338,9.465,2.187,-1.195,1.129,1.081,0.496,-0.439,-0.055,2,3.1,-29.9,23.9,162.7,-73.9,-29.6,3,0
0.74,11.629,2.076,1.425,9.484,2.05,-0.618,2.121,0.208,-0.171,-0.112,0.172,2,4.7,-30.6,24.5,161.8,-75.5,-34.2,3,0
-0.192,10.338,3.608,1.349,9.496,2.043,-1.677,1.084,1.651,0.13,-0.053,0.035,2,4.9,-30.8,25.1,160.1,-75.2,-34.5,3,0
0.965,9.366,2.823,1.249,9.462,2.253,-0.136,-0.297,0.754,-0.176,0.12,0.135,2,5.5,-31.1,26.5,164.5,-75.3,-30.4,3,0
2.203,8.26,0.912,1.398,9.473,2.115,0.805,-1.213,-1.203,0.205,-0.149,-0.021,2,5,-32.1,25.7,164.4,-74.7,-30.9,3,0
1.113,9.206,1.185,1.412,9.521,1.88,-0.16,-0.164,-0.908,0.123,-0.495,-0.103,2,6.5,-31.9,25.7,161.6,-75.6,-35.6,3,0
0.244,11.294,2.476,1.324,9.563,1.722,-1.08,1.731,0.754,0.241,-0.176,-0.192,2,7.4,-32.3,26.6,161.4,-76.8,-37.5,3,0
1.3,11.581,1.348,1.283,9.568,1.725,0.018,2.013,-0.377,-0.204,-0.33,-0.055,2,10.2,-31.7,27,166.3,-77.5,-37,3,0
1.295,8.871,1.736,1.285,9.592,1.586,-0.136,-0.628,0.653,0.187,-0.532,-0.081,2,10.1,-31.4,26.1,166,-77.7,-38,3,0
-0.5,8.765,2.349,1.201,9.588,1.671,-1.529,-0.861,0.511,-0.28,0.125,-0.034,2,11.8,-31.7,25.6,167.9,-78.2,-38.4,3,0
0.666,8.243,1.556,1.206,9.517,2.035,-0.54,-1.274,-0.478,-0.123,-0.037,0.087,2,12,-33.3,25.3,175.9,-76.2,-30.8,3,0
1.233,8.895,0.419,1.22,9.533,1.948,0.042,-0.644,-1.63,-0.301,-0.064,0.076,2,12.1,-32.5,24.7,174.9,-76.5,-32,3,0
1.049,10.789,2.409,1.15,9.567,1.824,-0.022,1.224,0.7,-0.011,0.125,-0.066,2,13,-32.6,24.8,175.1,-76.6,-31.7,3,0
1.07,12.175,1.86,1.041,9.562,1.913,0.027,2.63,-0.029,-0.139,-0.522,-0.159,2,13.7,-33.1,24.1,178.6,-77.2,-30,3,0
-1.645,10.827,3.891,0.826,9.584,1.908,-2.227,1.116,1.65,0.634,0.216,-0.101,1,15.8,-32.6,23,189.5,-77.1,-23.1,3,0
0.764,8.085,1.882,0.825,9.609,1.775,-0.128,-1.617,0.196,-0.167,0.258,0.221,1,15.2,-31.9,24.7,187.5,-78.8,-24.7,3,0
1.657,7.992,1.446,0.999,9.571,1.888,0.677,-1.574,-0.289,0.167,0.09,0.231,1,13.6,-33,24.3,183,-77.4,-26.5,3,0
0.876,9.259,0.273,1.193,9.58,1.722,-0.302,-0.238,-1.524,0.224,0.033,0.202,1,12.2,-32.7,24.8,175.4,-77.5,-33.1,3,0
1.269,9.723,1.568,1.294,9.601,1.522,-0.025,0.122,0.046,0.123,0.015,0.081,1,11.6,-32.8,26.3,168.6,-78.1,-38.7,3,0
1.238,11.239,2.191,1.184,9.612,1.541,0.255,1.406,0.508,-0.305,-0.09,-0.085,1,12.2,-32.2,26.8,167.5,-78.8,-38.9,3,0
1.937,10.164,2.555,1.022,9.599,1.73,1.061,0.534,0.762,-0.201,-0.15,-0.126,1,12.5,-32.9,25.7,174.4,-78.3,-31.6,3,0
0.812,7.887,2.792,1.056,9.541,2.004,-0.256,-1.585,0.907,0.029,0.257,-0.079,1,13.4,-34.1,25,179.3,-76.8,-28.3,3,0
0.261,8.758,0.723,0.764,9.602,1.838,-0.441,-0.763,-1.28,0.194,0.064,-0.178,1,13.6,-32.9,25.6,181.8,-77.6,-24.4,3,0
2.152,8.835,0.11,0.867,9.617,1.713,1.207,-0.71,-1.66,-0.049,-0.198,0.203,2,13.7,-32,25.2,184.3,-78.6,-24.1,3,0
1.82,9.936,1.449,1.131,9.625,1.499,0.509,0.021,-0.099,-0.134,-0.558,-0.09,2,14,-31.9,25.7,175.4,-78.7,-33.1,3,0
1.393,12.089,3.362,1.086,9.616,1.59,0.159,2.607,1.873,-0.128,-0.095,-0.3,0,15.8,-32.8,24.6,176,-78.8,-37.4,3,0
-0.438,10.056,2.887,0.858,9.646,1.544,-1.32,0.573,2.636,0.85,0.129,-0.306,0,16.1,-32.5,23.1,185.2,-78.9,-28.6,3,0
