sep=;
ACCELEROMETER X (m/s²);ACCELEROMETER Y (m/s²);ACCELEROMETER Z (m/s²);GRAVITY X (m/s²);GRAVITY Y (m/s²);GRAVITY Z (m/s²);LINEAR ACCELERATION X (m/s²);LINEAR ACCELERATION Y (m/s²);LINEAR ACCELERATION Z (m/s²);GYROSCOPE X (rad/s);GYROSCOPE Y (rad/s);GYROSCOPE Z (rad/s);LIGHT (lux);MAGNETIC FIELD X (μT);MAGNETIC FIELD Y (μT);MAGNETIC FIELD Z (μT);ORIENTATION Z (azimuth °);ORIENTATION X (pitch °);ORIENTATION Y (roll °);PROXIMITY (i);ATMOSPHERIC PRESSURE (hPa);SOUND LEVEL (dB);LOCATION Latitude : ;LOCATION Longitude : ;LOCATION Altitude ( m);LOCATION Altitude-google ( m);LOCATION Altitude-atmospheric pressure ( m);LOCATION Speed ( Kmh);LOCATION Accuracy ( m);LOCATION ORIENTATION (°);Satellites in range;Time since start in ms ;YYYY-MO-DD HH-MI-SS_SSS
0.7494;3.8284;8.8373;1.3954;4.3077;8.6987;-0.5334;-0.3643;0.8257;0.0265;0.0592;0.3421;251.0;0.06;-41.34;-6.96;181.88;-26.06;-9.11;3.1;997.93;59.056;23.024704;72.53761;;NaN;;;235.1613;;0 / 0;38;2018-06-30 19:55:14:557
1.6928;3.2442;9.2587;1.1479;3.015;9.2608;0.7268;0.1335;-0.0213;-0.3436;0.2736;0.5211;271.0;-10.02;-37.5;-13.08;164.9;-17.91;-7.07;3.1;997.92;58.554;23.024704;72.53761;;NaN;;;235.1613;;0 / 0;538;2018-06-30 19:55:15:057
1.6018;1.3097;8.3848;1.6535;1.6656;9.5217;-0.6216;-0.265;-0.5288;0.3515;-0.6525;-0.0549;282.0;-15.06;-33.6;-16.44;158.39;-9.78;-9.85;3.1;997.93;64.309;23.024704;72.53761;;NaN;;;235.1613;;0 / 0;1039;2018-06-30 19:55:15:558
-0.0168;2.0232;8.6601;1.867;3.1605;9.0937;0.2399;-1.4558;-1.7577;0.7645;0.7403;-1.8466;311.0;-10.38;-37.98;-9.96;166.4;-18.8;-11.6;3.1;997.89;66.124;23.024704;72.53761;;NaN;;;235.1613;;0 / 0;1538;2018-06-30 19:55:16:057
1.0678;5.4613;6.9745;0.2845;5.9591;7.7832;-1.247;0.7018;-0.4687;0.6038;0.7207;0.0147;278.0;4.98;-42.12;0.12;188.49;-37.42;-2.09;3.1;997.88;55.654;23.024704;72.53761;;NaN;;;235.1613;;0 / 0;2038;2018-06-30 19:55:16:557
0.0144;6.1892;7.3169;0.3087;6.347;7.4694;-0.3877;0.0146;-0.2913;0.0992;-0.2548;-0.0892;184.0;3.66;-41.22;2.28;186.77;-39.91;-2.67;3.1;997.91;54.265;23.024704;72.53761;;NaN;;;235.1613;;0 / 0;2538;2018-06-30 19:55:17:057
0.012;7.7144;5.2866;0.3571;7.3864;6.4407;-0.1129;-0.127;-1.0321;0.5629;-0.0465;0.1662;97.0;5.52;-40.98;7.62;189.4;-46.38;-2.32;3.1;997.92;59.932;23.024704;72.53761;;NaN;;;235.1613;;0 / 0;3038;2018-06-30 19:55:17:557
1.1229;7.8173;5.1501;0.4891;8.2163;5.3313;0.3896;0.1086;-0.1334;0.2092;0.9168;0.7019;95.0;-3.18;-38.34;13.08;172.42;-56.91;-5.24;3.1;997.92;56.265;23.024704;72.53761;;NaN;;;235.1613;;0 / 0;3538;2018-06-30 19:55:18:057
-0.8188;8.3177;4.7263;-0.5686;8.5151;4.8311;-0.2503;-0.1974;-0.1048;-0.0504;1.6639;0.9518;42.0;-23.94;-31.2;3.6;132.3;-60.26;6.71;3.1;997.91;58.249;23.024704;72.53761;;NaN;;;235.1613;;0 / 0;4039;2018-06-30 19:55:18:558
1.8436;9.3903;0.6943;0.4368;8.838;4.2271;1.8474;-0.0558;-2.192;0.4584;0.2156;0.2462;136.0;-28.92;-20.1;-14.82;74.71;-64.32;-5.9;3.1;997.91;56.359;23.024704;72.53761;;NaN;;;235.1613;;0 / 0;4538;2018-06-30 19:55:19:057
1.2235;9.4047;4.2067;0.5782;8.9248;4.0229;0.595;-0.1426;0.665;0.244;1.4092;0.3861;120.0;-19.26;-13.86;-32.04;29.22;-65.52;-8.18;3.1;997.93;59.214;23.024704;72.53761;;NaN;;;235.1613;;0 / 0;5038;2018-06-30 19:55:19:557
0.3376;9.3257;3.0072;0.5182;8.8107;4.2748;0.1115;0.2157;-0.7313;0.1719;0.3359;0.132;67.0;-5.7;-9.96;-39.6;2.05;-63.95;-6.91;3.1;997.92;58.32;23.024704;72.53761;;NaN;;;235.1613;;0 / 0;5539;2018-06-30 19:55:20:058
1.1923;9.4933;2.2602;0.7676;9.0573;3.6805;0.5205;-0.0908;0.4281;0.1567;-0.5034;-0.0818;41.0;-5.76;-14.34;-39.48;356.15;-67.46;-11.78;3.1;997.9;56.5;23.024704;72.53761;;NaN;;;235.1613;;0 / 0;6038;2018-06-30 19:55:20:557
0.4956;9.613;3.6585;0.6441;9.1867;3.3704;-0.6728;-0.3925;0.9991;-0.0785;2.1172;0.6091;65.0;12.18;-16.8;-39.96;323.63;-69.87;-13.09;3.1;997.91;59.299;23.024704;72.53761;;NaN;;;235.1613;;0 / 0;6538;2018-06-30 19:55:21:057
0.4669;9.2299;4.2546;0.353;9.1622;3.4784;0.0373;0.1659;0.7498;0.0895;1.0928;0.5694;64.0;34.2;-24.78;-17.28;277.35;-69.39;-4.54;3.1;997.91;57.156;23.024704;72.53761;;NaN;;;235.1613;;0 / 0;7038;2018-06-30 19:55:21:557
0.8093;9.0073;5.7894;0.7543;9.2267;3.2357;0.0549;-0.2194;2.5537;0.1786;1.1129;0.3458;63.0;30.36;-30.24;-2.1;243.7;-70.56;-13.3;3.1;997.91;56.259;23.024704;72.53761;;NaN;;;235.1613;;0 / 0;7538;2018-06-30 19:55:22:057
1.257;9.2419;1.6999;0.7813;9.2105;3.2751;0.4756;0.0314;-1.5751;-0.1042;1.6639;-0.0171;60.0;23.22;-34.14;11.28;216.55;-69.92;-13.42;3.1;997.92;58.511;23.024704;72.53761;;NaN;;;235.1613;;0 / 0;8039;2018-06-30 19:55:22:558
0.6584;7.7551;7.5611;0.3431;8.2457;5.2973;-0.2234;0.0265;1.9478;-0.3534;0.692;0.4325;55.0;11.16;-38.46;12.48;198.09;-57.23;-3.71;3.1;997.92;56.004;23.024704;72.53761;;NaN;;;235.1613;;0 / 0;8539;2018-06-30 19:55:23:058
1.0702;9.3161;3.8045;0.5673;8.8157;4.2582;0.5029;0.5005;-0.4537;0.2379;-0.1455;0.0428;51.0;11.4;-37.62;15.96;195.27;-64.02;-7.59;3.1;997.91;56.555;23.024704;72.53761;;NaN;;;235.1613;;0 / 0;9038;2018-06-30 19:55:23:557
-0.3376;8.7152;3.9314;0.5157;9.0475;3.748;-0.2499;0.0196;-0.123;0.1579;1.3206;0.4985;47.0;1.98;-36.18;20.7;178.49;-67.31;-7.83;3.1;997.91;58.457;23.024704;72.53761;;NaN;;;235.1613;;0 / 0;9541;2018-06-30 19:55:24:060
0.3591;9.1773;3.4741;0.1888;9.1277;3.5804;0.0028;0.0663;-0.5349;0.0498;1.4574;0.6176;38.0;-18.18;-32.46;15.12;142.84;-68.56;-3.02;3.1;997.92;57.379;23.024704;72.53761;;NaN;;;235.1613;;0 / 0;10038;2018-06-30 19:55:24:557
-0.656;9.4334;5.3344;0.1968;9.2021;3.3843;-0.089;0.8132;0.4705;0.0937;1.8282;0.4001;42.0;-28.08;-27.24;0.78;107.34;-69.78;-3.33;3.1;997.9;56.729;23.024704;72.53761;;NaN;;;235.1613;;0 / 0;10539;2018-06-30 19:55:25:058
0.8548;9.9195;3.0838;0.4331;9.1122;3.5986;0.187;0.168;0.589;-0.1549;1.568;0.5419;91.0;-25.86;-17.46;-23.7;49.86;-68.07;-7.79;3.1;997.92;57.551;23.024704;72.53761;;NaN;;;235.1613;;0 / 0;11038;2018-06-30 19:55:25:557
0.5172;9.1725;2.6768;0.3058;9.0713;3.7131;0.0102;0.3334;-1.3931;-0.0834;0.5088;0.3458;66.0;-10.98;-13.56;-36.84;14.98;-67.67;-4.71;3.1;997.92;58.13;23.024704;72.53761;;NaN;;;235.1613;;0 / 0;11537;2018-06-30 19:55:26:056
0.8811;9.4023;1.7981;0.875;9.3903;2.6882;1.1195;-0.3376;-1.8287;0.6979;0.3243;-0.1179;39.0;-9.12;-17.7;-37.32;354.7;-73.25;-18.03;3.1;997.91;57.676;23.024704;72.53761;;NaN;;;235.1613;;0 / 0;12038;2018-06-30 19:55:26:557
1.2091;9.3856;3.0024;0.7738;9.4405;2.5394;0.5263;0.0767;0.2955;-0.0058;2.1196;0.1479;40.0;12.6;-20.46;-36.54;312.49;-74.54;-21.23;3.1;997.91;59.753;23.024704;72.53761;;NaN;;;235.1613;;0 / 0;12538;2018-06-30 19:55:27:057
0.5483;10.0799;3.9625;0.1924;9.3747;2.8718;0.4182;0.6285;1.1673;0.0015;1.3005;0.6152;65.0;34.14;-26.4;-12.18;272.71;-72.93;-3.83;3.1;997.9;56.15;23.024704;72.53761;;NaN;;;235.1613;;0 / 0;13038;2018-06-30 19:55:27:557
0.5507;9.0192;2.6529;0.5207;9.5458;2.1856;-0.3675;0.3138;2.8209;-0.0095;1.1025;0.518;55.0;30.84;-30.42;2.52;240.44;-76.76;-13.4;3.1;997.91;57.899;23.024704;72.53761;;NaN;;;235.1613;;0 / 0;13538;2018-06-30 19:55:28:057
1.2426;9.5939;2.0854;1.0577;9.6337;1.4979;0.3813;0.4271;-0.5522;0.3375;1.5454;-0.0342;45.0;20.4;-31.98;19.2;189.38;-79.22;-35.23;3.1;997.9;57.333;23.024704;72.53761;;NaN;;;235.1613;;0 / 0;14037;2018-06-30 19:55:28:556
0.6465;10.1302;1.6042;0.8429;9.5697;1.9696;-0.1965;0.5604;-0.3655;-0.0266;-0.4179;0.1253;48.0;7.26;-33.12;25.32;174.57;-76.85;-22.5;3.1;997.9;57.759;23.024704;72.53761;;NaN;;;235.1613;;0 / 0;14538;2018-06-30 19:55:29:057
2.7343;9.0384;0.5387;2.0491;9.5706;0.6121;0.6708;-0.9057;0.3983;-0.0156;-0.3464;-0.1105;44.0;13.62;-30.72;25.44;146.32;-77.9;-69.62;3.1;997.91;55.237;23.024704;72.53761;;NaN;;;235.1613;;0 / 0;15038;2018-06-30 19:55:29:557
0.7997;7.9801;2.4541;1.8634;9.5375;1.3166;-1.0637;-1.5574;1.1375;-0.238;2.5686;0.333;48.0;2.46;-30.3;28.98;137.8;-76.55;-54.76;3.1;997.9;57.181;23.024704;72.53761;;NaN;;;235.1613;;0 / 0;15538;2018-06-30 19:55:30:057
0.68;10.0536;1.9681;0.7998;9.6521;1.5385;0.1028;0.3535;0.0106;0.2654;1.3389;0.1454;75.0;-24.48;-26.58;15.3;103.89;-79.82;-27.47;3.1;997.91;60.872;23.024704;72.53761;;NaN;;;235.1613;;0 / 0;16038;2018-06-30 19:55:30:557
0.0479;7.9705;5.5667;0.1256;9.127;3.5851;-0.0993;-1.7861;1.7182;-0.2129;2.1019;0.8119;67.0;-29.46;-22.98;-11.76;82.63;-68.54;-2.01;3.1;997.9;57.809;23.024704;72.53761;;NaN;;;235.1613;;0 / 0;16538;2018-06-30 19:55:31:057
-0.7566;8.2579;5.1597;-0.2825;8.9961;3.8937;-0.8261;-0.4294;2.2715;-0.1677;1.9229;0.5425;137.0;-18.0;-16.08;-30.6;44.16;-66.54;4.15;3.1;997.91;59.191;23.024704;72.53761;;NaN;;;235.1613;;0 / 0;17038;2018-06-30 19:55:31:557
-0.2682;9.0695;3.5651;-0.2378;8.6963;4.5265;0.1253;-0.1224;-0.4251;0.0406;0.2595;0.2413;143.0;-0.66;-9.66;-39.48;5.82;-62.47;3.01;3.1;997.9;60.827;23.024704;72.53761;;NaN;;;235.1613;;0 / 0;17538;2018-06-30 19:55:32:057
0.4429;8.8109;2.9138;0.5082;9.2231;3.2933;-0.0437;-0.1488;0.4681;0.8976;0.4061;0.3421;86.0;-2.4;-15.96;-38.46;352.79;-70.14;-8.77;3.1;997.91;51.247;23.024704;72.53761;;NaN;;;235.1613;;0 / 0;18038;2018-06-30 19:55:32:557
-0.9409;9.2251;2.66;-0.0799;9.7154;1.3319;0.3025;-0.2389;0.4135;0.0033;2.4251;-0.2541;40.0;24.24;-25.02;-29.04;320.23;-82.18;3.43;3.1;997.89;56.616;23.024704;72.53761;;NaN;;;235.1613;;0 / 0;18539;2018-06-30 19:55:33:058
-0.6201;10.2116;1.1181;-0.6385;9.6567;1.5844;0.0184;0.5549;-0.4662;-0.205;0.8411;0.3812;49.0;36.36;-26.46;-2.34;291.56;-79.77;25.64;3.1;997.9;54.075;23.024704;72.53761;;NaN;;;235.1613;;0 / 0;19038;2018-06-30 19:55:33:557
-0.5172;10.305;1.9154;0.371;9.6569;1.6665;-0.9863;0.8061;1.664;0.4199;0.7733;0.2126;48.0;30.6;-30.18;3.3;241.65;-79.25;-14.02;3.1;997.91;51.919;23.024704;72.53761;;NaN;;;235.1613;;0 / 0;19538;2018-06-30 19:55:34:057
0.8739;10.1517;1.3288;0.2413;9.7699;0.8128;0.6326;0.3818;0.516;-0.1366;1.4049;-0.1105;37.0;22.08;-29.58;22.14;206.42;-85.04;-16.54;3.1;997.93;55.724;23.024704;72.53761;;NaN;;;235.1613;;0 / 0;20038;2018-06-30 19:55:34:557
0.0096;10.0464;0.4836;0.0955;9.6809;1.5626;-0.086;0.3655;-1.079;0.0461;0.4611;0.0886;38.0;7.74;-31.26;26.7;191.19;-80.81;-3.5;3.1;997.9;57.263;23.024704;72.53761;;NaN;;;235.1613;;0 / 0;20539;2018-06-30 19:55:35:058
1.1325;9.7495;0.759;0.7175;9.7332;0.959;0.415;0.0163;-0.2001;-0.0242;-0.5175;-0.1081;37.0;8.1;-30.6;28.38;161.39;-82.98;-36.8;3.1;997.9;54.615;23.024704;72.53761;;NaN;;;235.1613;;0 / 0;21038;2018-06-30 19:55:35:557
0.1891;10.1876;0.9649;0.4791;9.6874;1.4473;-0.29;0.5002;-0.4824;0.3424;1.397;-0.1136;31.0;2.94;-30.78;25.86;169.98;-81.06;-18.32;3.1;997.91;53.813;23.024704;72.53761;;NaN;;;235.1613;;0 / 0;21537;2018-06-30 19:55:36:056
-0.8835;10.0679;2.7702;-0.4557;9.6136;1.8815;-0.6456;0.4303;1.2693;0.3295;2.2907;0.4325;30.0;-21.18;-30.6;14.58;146.25;-78.61;13.62;3.1;997.91;52.887;23.024704;72.53761;;NaN;;;235.1613;;0 / 0;22038;2018-06-30 19:55:36:557
1.2474;10.2379;0.4429;-0.2114;9.7434;1.0913;0.81;-0.2741;0.8672;0.3601;0.7336;-0.0226;91.0;-27.24;-26.28;-6.96;92.51;-83.49;10.96;3.1;997.91;55.493;23.024704;72.53761;;NaN;;;235.1613;;0 / 0;22538;2018-06-30 19:55:37:057
0.2825;9.7543;1.2163;-0.0473;9.7375;1.1615;-0.2233;0.5531;-0.1798;-0.1818;1.4403;0.146;39.0;-20.16;-24.36;-24.9;44.8;-83.19;2.33;3.1;997.91;60.166;23.024704;72.53761;;NaN;;;235.1613;;0 / 0;23038;2018-06-30 19:55:37:557
-0.261;9.6346;1.6042;0.1492;9.7267;1.2408;-0.4101;-0.0921;0.3633;-0.0901;0.6218;0.0403;40.0;-5.46;-22.68;-33.96;1.67;-82.68;-6.85;3.1;997.92;55.206;23.024704;72.53761;;NaN;;;235.1613;;0 / 0;23538;2018-06-30 19:55:38:057
0.1987;9.1844;1.9896;0.3978;9.7584;0.8859;-0.1991;-0.574;1.1037;0.01;-0.1113;-0.1185;42.0;-7.56;-24.36;-33.78;348.21;-84.32;-24.18;3.1;997.91;57.639;23.024704;72.53761;;NaN;;;235.1613;;0 / 0;24038;2018-06-30 19:55:38:557
-0.5243;10.7671;0.4453;-0.3356;9.7309;1.1693;-0.1887;1.0362;-0.7239;0.0082;1.8246;6.0E-4;36.0;1.92;-23.04;-36.12;14.04;-82.87;16.02;3.1;997.91;48.748;23.024704;72.53761;;NaN;;;235.1613;;0 / 0;24538;2018-06-30 19:55:39:057
2.4972;8.3895;6.2538;0.3126;8.6816;4.5499;2.2565;-0.9793;0.7462;0.4835;2.3976;0.8546;62.0;31.68;-21.96;-21.84;282.25;-62.29;-3.93;3.1;997.9;54.959;23.024704;72.53761;;NaN;;;235.1613;;0 / 0;25038;2018-06-30 19:55:39:557
1.3767;10.3481;0.9864;0.2665;9.6022;1.9741;1.1102;0.7459;-0.9876;0.2691;0.9578;-0.08;45.0;32.88;-30.06;2.82;247.58;-78.28;-7.69;3.1;997.91;53.433;23.024704;72.53761;;NaN;;;235.1613;;0 / 0;25538;2018-06-30 19:55:40:057
1.6377;9.3018;2.2506;0.637;9.5793;2.0004;0.845;-0.2656;-0.4657;0.0821;1.3872;0.1564;43.0;20.7;-32.88;18.12;205.84;-77.64;-17.66;3.1;997.93;57.627;23.024704;72.53761;;NaN;;;235.1613;;0 / 0;26038;2018-06-30 19:55:40:557
0.5674;9.5843;2.684;0.2847;9.486;2.4706;0.3929;-0.1723;0.6682;-0.3253;0.5045;0.1454;37.0;4.44;-34.56;23.7;182.17;-75.31;-6.57;3.1;997.91;60.336;23.024704;72.53761;;NaN;;;235.1613;;0 / 0;26538;2018-06-30 19:55:41:057
0.6896;9.1844;1.7239;0.3717;9.6489;1.7119;0.0904;-0.407;-0.0981;0.3558;-0.2866;0.1674;30.0;4.92;-32.1;25.38;179.22;-79.71;-12.25;3.1;997.92;58.208;23.024704;72.53761;;NaN;;;235.1613;;0 / 0;27038;2018-06-30 19:55:41:557
-0.0599;9.7351;1.6042;-0.0544;9.7515;1.0369;-0.0054;-0.0164;0.5673;0.2153;1.8343;0.0465;22.0;-4.14;-29.22;26.34;171.63;-84.16;-0.52;3.1;997.92;56.725;23.024704;72.53761;;NaN;;;235.1613;;0 / 0;27538;2018-06-30 19:55:42:057
-0.3089;9.5436;1.4078;-1.0051;9.6997;1.0375;0.7418;-0.0148;0.1477;-0.0962;1.9797;0.3042;24.0;-26.28;-29.4;3.84;148.8;-81.25;45.35;3.1;997.9;58.113;23.024704;72.53761;;NaN;;;235.1613;;0 / 0;28038;2018-06-30 19:55:42:557
0.8476;9.534;0.7422;-0.4916;9.7596;0.8237;1.4564;-0.3597;-0.455;-0.0755;0.2986;0.1088;53.0;-26.1;-26.7;-13.74;103.65;-83.82;36.51;3.1;997.91;57.788;23.024704;72.53761;;NaN;;;235.1613;;0 / 0;28539;2018-06-30 19:55:43:058
0.7662;9.7686;0.7949;0.1761;9.774;0.7794;0.6834;-0.0676;-0.2263;0.2067;1.3169;-0.0036;30.0;-18.48;-24.12;-26.58;22.34;-85.33;-12.73;3.1;997.9;57.232;23.024704;72.53761;;NaN;;;235.1613;;0 / 0;29038;2018-06-30 19:55:43:557
-0.1508;9.8141;0.8212;-0.1199;9.7816;0.6894;-0.031;0.0325;0.1318;-0.5049;0.5369;0.1589;34.0;-2.7;-24.72;-32.88;23.49;-86.47;17.2;3.1;997.91;51.744;23.024704;72.53761;;NaN;;;235.1613;;0 / 0;29538;2018-06-30 19:55:44:057
0.012;9.7184;1.0487;-0.1119;9.7718;0.8187;0.1239;-0.0534;0.23;0.01;-0.4307;0.4087;34.0;0.3;-23.7;-35.22;8.29;-85.17;7.78;3.1;997.92;49.766;23.024704;72.53761;;NaN;;;235.1613;;0 / 0;30038;2018-06-30 19:55:44:557
0.5435;10.0583;1.8987;0.451;9.7118;1.2836;0.3822;-0.0341;-0.0553;-0.0657;0.5448;-0.0171;26.0;-5.4;-21.96;-34.62;347.59;-82.03;-19.36;3.1;997.91;45.755;23.024704;72.53761;;NaN;;;235.1613;;0 / 0;30538;2018-06-30 19:55:45:057
-0.8093;9.637;2.4158;-0.4808;9.7105;1.2825;0.0666;-0.3728;-0.5451;-0.4157;1.9516;0.3775;31.0;17.94;-22.2;-32.94;351.13;-81.97;20.55;3.1;997.92;51.479;23.024704;72.53761;;NaN;;;235.1613;;0 / 0;31038;2018-06-30 19:55:45:557
0.4525;8.5164;1.6425;0.0076;9.6606;1.686;0.3372;-0.7372;-0.1465;0.3815;0.2656;0.1766;48.0;32.7;-25.08;-16.44;288.89;-80.1;-0.26;3.1;997.92;53.925;23.024704;72.53761;;NaN;;;235.1613;;0 / 1;31538;2018-06-30 19:55:46:057
0.9242;9.7471;2.071;0.4392;9.5775;2.0615;0.485;0.1696;0.0096;0.1805;1.7519;0.2932;48.0;32.64;-30.24;5.1;240.13;-77.59;-12.03;3.1;997.92;54.597;23.024704;72.53761;;NaN;;;235.1613;;0 / 1;32038;2018-06-30 19:55:46:557
0.3472;8.7535;0.6177;-0.4228;9.5204;2.3137;-0.238;-0.3096;-0.8867;-0.0437;1.0384;0.3946;42.0;15.24;-32.94;24.96;213.42;-76.12;10.36;3.1;997.91;57.784;23.024704;72.53761;;NaN;;;235.1613;;0 / 0;32539;2018-06-30 19:55:47:058
0.1077;9.6968;1.3216;-0.3169;9.5961;1.9961;-0.2506;0.2827;-0.5643;0.145;-0.1907;0.1925;45.0;6.18;-32.58;27.6;197.39;-78.11;9.02;3.1;997.91;50.842;23.024704;72.53761;;NaN;;;235.1613;;0 / 0;33038;2018-06-30 19:55:47:557
0.8811;9.6058;0.2107;0.6084;9.6994;1.3124;-3.0E-4;-0.1869;-1.4848;0.0125;0.0506;-0.0061;44.0;7.02;-31.8;28.08;170.59;-81.52;-24.87;3.1;997.92;51.722;23.024704;72.53761;;NaN;;;235.1613;;0 / 0;33538;2018-06-30 19:55:48:057
-0.0599;8.9785;1.8891;0.5216;9.7553;0.8561;-1.1346;-0.4966;2.8382;0.8274;0.0195;0.1912;36.0;5.76;-31.26;27.9;162.56;-84.13;-31.35;3.1;997.93;50.179;23.024704;72.53761;;NaN;;;235.1613;;0 / 0;34038;2018-06-30 19:55:48:557
0.4166;10.0129;0.2825;0.5087;9.7905;0.2402;-0.3483;0.2296;-0.1516;0.2599;0.5179;0.1686;34.0;1.56;-28.2;30.06;121.65;-86.71;-64.73;3.1;997.91;60.983;23.024704;72.53761;;NaN;;;235.1613;;0 / 0;34538;2018-06-30 19:55:49:057
-0.9242;11.1142;0.522;0.883;9.4922;2.2999;-1.5342;1.646;-3.5162;0.7486;0.5821;-0.6597;36.0;0.96;-33.0;25.44;165.58;-75.45;-21.0;3.1;997.9;58.849;23.024704;72.53761;;NaN;;;235.1613;;0 / 0;35038;2018-06-30 19:55:49:557
0.5531;9.431;2.2171;0.7396;9.5904;1.9096;-0.2512;-0.2743;0.353;0.2031;0.6016;0.121;35.0;-2.58;-32.4;25.68;157.44;-77.95;-21.17;3.1;997.89;59.931;23.024704;72.53761;;NaN;;;235.1613;;0 / 0;35539;2018-06-30 19:55:50:058
-0.3951;10.3864;2.6768;-0.0767;9.4967;2.4447;0.1773;-0.0034;0.4428;-0.0071;1.4819;0.2535;30.0;-17.64;-31.86;17.46;145.05;-75.56;1.8;3.1;997.92;50.398;23.024704;72.53761;;NaN;;;235.1613;;0 / 0;36038;2018-06-30 19:55:50:557
1.0008;9.5819;2.4757;0.1737;9.5415;2.2582;0.7098;0.366;0.6102;-0.0278;1.524;0.2578;33.0;-28.44;-27.18;4.98;107.56;-76.5;-4.61;3.1;997.92;56.77;23.024704;72.53761;;NaN;;;235.1613;;0 / 0;36539;2018-06-30 19:55:51:058
2.0112;9.5101;2.8971;0.6709;9.3929;2.7373;1.3403;0.1171;0.1598;0.3002;1.3884;0.4777;109.0;-26.1;-19.44;-22.38;43.71;-73.3;-13.77;3.1;997.92;55.926;23.024704;72.53761;;NaN;;;235.1613;;0 / 0;37038;2018-06-30 19:55:51:557
1.3959;9.376;0.498;1.1428;9.6717;1.1496;0.253;-0.2958;-0.6516;0.1957;-2.1949;-0.0049;60.0;-25.32;-24.12;-21.48;5.94;-80.49;-44.83;3.1;997.93;55.043;23.024704;72.53761;;NaN;;;235.1613;;0 / 0;37539;2018-06-30 19:55:52:058
0.7422;8.6385;0.8212;1.7156;9.6257;0.7562;-0.9733;-0.9872;0.0651;-0.825;-2.107;-0.2523;25.0;-26.94;-24.6;18.06;65.71;-78.98;-66.21;3.1;997.91;56.808;23.024704;72.53761;;NaN;;;235.1613;;0 / 0;38038;2018-06-30 19:55:52:557
0.2777;9.4454;1.9968;1.2736;9.5983;1.5559;-1.1179;-0.0906;0.5917;0.2758;-0.6299;-0.2688;37.0;-5.76;-32.04;27.3;136.97;-78.17;-39.3;3.1;997.9;57.946;23.024704;72.53761;;NaN;;;235.1613;;0 / 0;38538;2018-06-30 19:55:53:057
0.3184;9.4646;-1.9585;0.3296;9.7943;0.3641;-0.3057;-0.9331;-2.1598;0.3637;-0.0227;-0.2211;40.0;-3.9;-29.22;30.84;132.42;-87.13;-42.16;3.1;997.91;57.148;23.024704;72.53761;;NaN;;;235.1613;;0 / 0;39038;2018-06-30 19:55:53:557
0.9146;10.3624;1.0559;0.2879;9.7613;0.8974;-0.5273;0.9651;0.9774;-0.084;-0.0294;0.0275;37.0;-2.76;-31.44;25.86;157.98;-84.49;-17.79;3.1;997.93;53.891;23.024704;72.53761;;NaN;;;235.1613;;0 / 0;39539;2018-06-30 19:55:54:058
0.9218;9.3161;1.9202;0.4448;9.6853;1.4724;0.6876;-1.279;-0.5459;-0.263;-0.088;0.1143;36.0;-0.6;-32.4;26.64;163.84;-80.98;-16.81;3.1;997.92;55.305;23.024704;72.53761;;NaN;;;235.1613;;0 / 0;40038;2018-06-30 19:55:54:557
-1.257;10.281;1.7718;-0.1617;9.7388;1.14;-1.0953;0.5422;0.6317;-0.0162;0.8997;0.0147;41.0;-7.74;-30.3;25.74;171.96;-83.26;8.07;3.1;997.92;57.815;23.024704;72.53761;;NaN;;;235.1613;;0 / 0;40538;2018-06-30 19:55:55:057
0.0934;9.7255;-0.5148;0.1195;9.7785;0.7323;-0.0261;-0.053;-1.2471;0.1579;-0.0923;0.077;37.0;-16.38;-29.28;22.92;138.79;-85.66;-9.27;3.1;997.93;58.394;23.024704;72.53761;;NaN;;;235.1613;;0 / 0;41038;2018-06-30 19:55:55:557
0.2179;9.9267;0.5387;0.3922;9.7828;0.5603;-0.4137;0.2516;0.1963;-0.0064;0.5851;-0.1576;37.0;-16.8;-26.94;23.52;107.02;-85.8;-41.32;3.1;997.92;48.302;23.024704;72.53761;;NaN;;;235.1613;;0 / 0;41538;2018-06-30 19:55:56:057
0.1269;8.5595;1.2378;-0.8712;9.6997;1.1518;1.1034;-0.793;-0.3426;-0.1964;1.9962;-0.1014;71.0;-27.42;-29.34;1.68;134.45;-81.89;34.28;3.1;997.92;46.684;23.024704;72.53761;;NaN;;;235.1613;;0 / 0;42038;2018-06-30 19:55:56:557
0.8763;9.8381;0.4453;-0.1903;9.7564;0.973;1.0666;0.0817;-0.5277;0.288;0.6627;0.176;38.0;-19.62;-25.62;-23.22;56.34;-84.2;11.06;3.1;997.92;54.44;23.024704;72.53761;;NaN;;;235.1613;;0 / 0;42538;2018-06-30 19:55:57:057
0.9505;9.7399;1.4174;0.5724;9.7845;0.327;0.6846;-0.442;-0.3893;-0.0877;1.1917;-0.0684;30.0;-15.72;-26.04;-27.0;328.67;-86.15;-60.26;3.1;997.92;48.704;23.024704;72.53761;;NaN;;;235.1613;;0 / 0;43038;2018-06-30 19:55:57:557
0.4334;10.7575;1.5754;0.4148;9.7049;1.3466;0.653;0.7006;-0.3769;-0.4725;0.8283;-0.0244;33.0;3.06;-23.1;-32.46;334.78;-81.74;-17.12;3.1;997.92;52.592;23.024704;72.53761;;NaN;;;235.1613;;0 / 0;43538;2018-06-30 19:55:58:057
0.1197;9.1437;0.4382;0.0266;9.7812;0.7047;-0.9029;-0.1132;1.2778;0.241;0.2345;-0.0421;31.0;7.62;-23.82;-31.38;342.39;-85.88;-2.16;3.1;997.95;49.096;23.024704;72.53761;;NaN;;;235.1613;;0 / 0;44038;2018-06-30 19:55:58:557
0.8835;9.8237;0.1077;0.1795;9.7448;1.0852;1.1613;-0.3592;-1.4372;0.0436;-0.2066;-0.0366;30.0;9.54;-22.5;-32.34;331.06;-83.56;-9.39;3.1;997.93;50.074;23.024704;72.53761;;NaN;;;235.1613;;0 / 0;44538;2018-06-30 19:55:59:057
0.9553;9.7088;0.431;0.7382;9.7772;0.1753;-0.4126;0.0249;1.0457;-0.0529;-0.6409;0.3488;38.0;2.4;-23.82;-33.72;276.86;-85.56;-76.64;3.1;997.94;48.996;23.024704;72.53761;;NaN;;;235.1613;;0 / 0;45039;2018-06-30 19:55:59:558
0.4166;10.2044;0.3735;0.3589;9.7689;0.7806;0.0577;0.4355;-0.4071;-0.1408;0.4636;-0.2217;39.0;-1.86;-23.82;-34.86;337.16;-84.97;-24.7;3.1;997.95;60.155;23.024704;72.53761;;NaN;;;235.1613;;0 / 0;45539;2018-06-30 19:56:00:058
0.3927;9.4885;1.8101;0.2923;9.7502;1.0088;0.1003;-0.2617;0.8013;-0.0608;0.5014;0.7587;39.0;9.72;-24.18;-35.16;325.44;-83.85;-16.16;3.1;997.95;57.532;23.024704;72.53761;;NaN;;;235.1613;;0 / 0;46038;2018-06-30 19:56:00:557
0.5507;10.4534;2.4086;-0.2582;9.7419;1.0946;0.8089;0.7115;1.314;0.0607;1.43;0.2004;51.0;33.96;-26.34;-16.2;304.53;-83.41;13.27;3.1;997.95;49.459;23.024704;72.53761;;NaN;;;235.1613;;0 / 0;46538;2018-06-30 19:56:01:057
1.2474;9.036;0.4597;0.1478;9.7932;0.4925;1.102;-1.1666;0.537;0.1102;1.4049;0.1582;56.0;34.74;-27.54;1.02;249.43;-86.99;-16.7;3.1;997.93;46.635;23.024704;72.53761;;NaN;;;235.1613;;0 / 0;47038;2018-06-30 19:56:01:557
0.2921;10.1374;0.1245;0.1142;9.7169;1.3188;0.0869;0.1882;-0.67;-0.3149;1.7751;0.2835;41.0;20.52;-30.42;24.42;212.55;-82.24;-4.95;3.1;997.93;46.67;23.024704;72.53761;;NaN;;;235.1613;;0 / 0;47538;2018-06-30 19:56:02:057
0.352;10.1948;1.2594;0.0398;9.6325;1.8395;0.3122;0.5623;-0.5801;0.4187;5.0E-4;0.3311;44.0;5.88;-33.48;25.68;189.69;-79.19;-1.24;3.1;997.94;57.947;23.024704;72.53761;;NaN;;;235.1613;;0 / 0;48038;2018-06-30 19:56:02:557
0.9505;9.807;0.6872;0.4158;9.79;-0.3906;0.403;-0.3279;0.7234;0.1884;0.4593;0.1308;38.0;6.12;-27.96;31.26;60.36;-86.66;-133.2;3.1;997.95;47.991;23.024704;72.53761;;NaN;;;235.1613;;0 / 0;48538;2018-06-30 19:56:03:057
0.7207;9.6346;-0.2682;0.64;9.7741;0.4773;0.301;-0.4675;-0.6569;-0.0168;0.4361;-0.1197;35.0;0.18;-28.92;30.42;130.08;-85.33;-53.28;3.1;997.95;62.504;23.024704;72.53761;;NaN;;;235.1613;;0 / 0;49038;2018-06-30 19:56:03:557
-0.4453;10.6617;0.3041;0.4256;9.7961;0.158;-1.0696;-0.0035;-0.3974;0.032;1.1526;-0.2009;38.0;-9.12;-26.52;28.62;95.47;-87.35;-69.64;3.1;997.94;49.361;23.024704;72.53761;;NaN;;;235.1613;;0 / 0;49538;2018-06-30 19:56:04:057
1.2354;9.5244;0.6824;0.5814;9.7504;0.8723;-0.6413;0.5785;0.8923;0.0607;1.0482;0.3641;41.0;-21.06;-27.0;20.34;105.37;-83.86;-33.69;3.1;997.93;55.093;23.024704;72.53761;;NaN;;;235.1613;;0 / 0;50039;2018-06-30 19:56:04:558
0.3879;9.2539;3.194;0.4224;9.5777;2.0638;0.1235;-0.3382;0.692;0.1005;1.0671;0.0269;68.0;-28.92;-25.62;0.24;89.81;-77.6;-11.57;3.1;997.93;51.582;23.024704;72.53761;;NaN;;;235.1613;;0 / 0;50538;2018-06-30 19:56:05:057
0.8979;9.6394;2.1309;0.1154;9.6131;1.9351;0.7825;0.0262;0.1958;0.2086;1.1997;0.3446;90.0;-24.0;-23.64;-20.22;56.84;-78.21;-1.58;3.1;997.94;54.159;23.024704;72.53761;;NaN;;;235.1613;;0 / 0;51038;2018-06-30 19:56:05:557
0.3759;9.7399;3.4071;0.0711;9.5819;2.0864;0.3048;0.158;1.3206;-0.3669;1.0384;-0.0867;42.0;-10.08;-21.48;-32.76;17.53;-77.71;-1.95;3.1;997.93;44.732;23.024704;72.53761;;NaN;;;235.1613;;0 / 0;51538;2018-06-30 19:56:06:057
-0.2634;10.1709;3.6225;0.004;9.5772;2.109;0.8364;0.3375;-1.587;0.0699;0.6487;-0.1447;46.0;-2.7;-20.4;-34.5;5.8;-77.58;-0.11;3.1;997.94;49.937;23.024704;72.53761;;NaN;;;235.1613;;0 / 0;52038;2018-06-30 19:56:06:557
-0.1748;10.3816;0.5411;-0.1357;9.7733;0.7965;-0.0391;0.6083;-0.2554;-0.1781;0.0311;-0.0055;40.0;1.8;-24.36;-33.72;6.71;-85.27;9.67;3.1;997.92;46.563;23.024704;72.53761;;NaN;;;235.1613;;0 / 0;52538;2018-06-30 19:56:07:057
0.3903;9.9913;2.0663;0.5352;9.7291;1.1083;-0.145;0.2622;0.958;-0.0345;0.3872;0.0666;41.0;-2.16;-21.42;-36.78;335.45;-82.79;-25.78;3.1;997.93;47.608;23.024704;72.53761;;NaN;;;235.1613;;0 / 0;53038;2018-06-30 19:56:07:557
1.4653;9.5244;3.0838;0.5374;9.7105;1.2597;0.9279;-0.1861;1.8241;0.1389;-1.4393;-0.0513;45.0;-8.82;-21.12;-33.96;350.88;-81.97;-23.1;3.1;997.94;62.782;23.024704;72.53761;;NaN;;;235.1613;;0 / 0;53539;2018-06-30 19:56:08:058
2.4565;9.2443;0.2011;1.8416;9.5794;1.0064;1.3092;0.3544;-0.142;-0.1805;-2.7991;0.3354;35.0;-33.72;-21.54;-0.9;31.77;-77.64;-61.35;3.1;997.95;57.951;23.024704;72.53761;;NaN;;;235.1613;;0 / 0;54038;2018-06-30 19:56:08:557
0.929;9.9889;1.4054;1.5076;9.581;1.4495;-0.5786;0.5252;-0.0871;-0.1182;-1.2756;-0.3976;37.0;-18.48;-29.64;21.78;106.92;-77.69;-46.13;3.1;997.93;51.232;23.024704;72.53761;;NaN;;;235.1613;;0 / 0;54538;2018-06-30 19:56:09:057
1.1038;9.1749;2.8468;0.9311;9.6246;1.634;0.1583;-0.0547;-1.203;-0.4579;-0.5144;0.1931;49.0;-11.88;-31.2;23.94;132.69;-78.94;-29.68;3.1;997.94;57.099;23.024704;72.53761;;NaN;;;235.1613;;0 / 0;55038;2018-06-30 19:56:09:557
0.4765;9.5795;2.3248;0.9899;9.5792;1.8517;-0.5134;3.0E-4;0.4732;-0.2074;-0.4485;0.0935;56.0;-9.72;-31.32;24.84;138.84;-77.64;-28.13;3.1;997.95;56.522;23.024704;72.53761;;NaN;;;235.1613;;0 / 0;55537;2018-06-30 19:56:10:056
0.5507;9.4933;2.3871;0.6514;9.5836;1.9751;-0.1007;-0.0903;0.412;0.1438;0.9975;0.077;56.0;-10.74;-31.08;24.12;144.82;-77.76;-18.25;3.1;997.95;59.312;23.024704;72.53761;;NaN;;;235.1613;;0 / 0;56038;2018-06-30 19:56:10:557
-1.0295;9.3065;3.0431;-0.2771;9.558;2.1765;-0.7525;-0.2515;0.8666;0.0284;1.8319;0.2755;42.0;-26.58;-29.34;6.0;120.96;-77.07;7.25;3.1;997.94;58.089;23.024704;72.53761;;NaN;;;235.1613;;0 / 0;56547;2018-06-30 19:56:11:066
0.3831;9.8261;1.9944;-0.0653;9.58;2.0952;0.8266;0.1504;-1.0681;-0.2001;0.5998;0.2309;92.0;-27.66;-23.04;-14.7;72.67;-77.66;1.78;3.1;997.94;54.451;23.024704;72.53761;;NaN;;;235.1613;;0 / 0;57038;2018-06-30 19:56:11:557
0.486;9.9267;2.8061;0.2602;9.5219;2.3313;0.5587;0.1318;-0.1094;-0.037;1.0915;0.1937;96.0;-21.72;-20.82;-26.58;38.88;-76.16;-6.37;3.1;997.94;55.875;23.024704;72.53761;;NaN;;;235.1613;;0 / 0;57538;2018-06-30 19:56:12:057
0.0239;9.6106;3.6776;0.1793;9.5217;2.3399;-0.1984;0.2565;1.7783;0.1341;1.4104;0.1631;52.0;-7.32;-19.26;-37.32;7.44;-76.15;-4.38;3.1;997.92;56.442;23.024704;72.53761;;NaN;;;235.1613;;0 / 0;58038;2018-06-30 19:56:12:557
-1.5036;10.0176;2.8899;-0.021;9.5065;2.4074;-0.3429;-0.2958;-0.6859;-0.048;-0.0593;-0.0482;66.0;1.86;-19.14;-39.24;357.13;-75.79;0.5;3.1;997.93;53.266;23.024704;72.53761;;NaN;;;235.1613;;0 / 0;58538;2018-06-30 19:56:13:057
0.5818;9.9003;2.1788;0.4492;9.6096;1.9037;-0.3127;0.535;0.1889;0.0363;0.1758;0.3097;62.0;1.38;-20.34;-36.66;343.05;-78.49;-13.28;3.1;997.93;54.675;23.024704;72.53761;;NaN;;;235.1613;;0 / 0;59039;2018-06-30 19:56:13:558
1.2594;8.9115;2.5164;0.7555;9.3317;2.9187;0.5039;-0.4202;-0.4023;-0.2172;1.8783;0.4924;67.0;23.28;-21.12;-33.42;301.15;-72.1;-14.51;3.1;997.91;52.055;23.024704;72.53761;;NaN;;;235.1613;;0 / 0;59546;2018-06-30 19:56:14:065
0.5818;9.6992;3.34;0.182;9.2067;3.3725;0.3998;0.4925;-0.0325;-0.0651;1.0781;0.595;65.0;34.5;-27.18;-8.52;267.38;-70.26;-1.67;3.1;997.91;53.255;23.024704;72.53761;;NaN;;;235.1613;;0 / 0;60038;2018-06-30 19:56:14:557
0.668;9.1318;4.7095;-0.1131;9.6188;1.9067;0.7811;-0.4871;2.8029;0.2855;1.3835;0.0752;52.0;29.34;-28.8;12.0;242.72;-78.32;4.44;3.1;997.92;53.436;23.024704;72.53761;;NaN;;;235.1613;;0 / 0;60538;2018-06-30 19:56:15:057
0.8093;9.1174;0.9146;-0.2251;9.7401;1.1176;1.0343;-0.6227;-0.203;-0.2777;1.3731;0.3158;38.0;17.64;-28.32;26.34;222.29;-83.32;11.39;3.1;997.92;50.136;23.024704;72.53761;;NaN;;;235.1613;;0 / 0;61038;2018-06-30 19:56:15:557
1.6449;9.9578;0.5866;-0.393;9.6408;1.7525;1.7098;0.1638;-1.118;-0.1237;0.9785;0.628;49.0;-9.78;-30.24;25.5;172.88;-79.45;12.64;3.1;997.91;50.07;23.024704;72.53761;;NaN;;;235.1613;;0 / 0;61539;2018-06-30 19:56:16:058
-0.091;9.3544;0.3998;0.035;9.7229;1.2786;-0.3774;-0.4857;-0.4167;0.1029;-0.7588;0.0367;55.0;-13.2;-28.62;24.6;154.13;-82.51;-1.57;3.1;997.91;54.337;23.024704;72.53761;;NaN;;;235.1613;;0 / 0;62038;2018-06-30 19:56:16:557
-0.3017;9.4957;0.3448;0.5841;9.6368;1.7208;-0.6727;-0.3638;-1.0983;0.8555;-0.0685;-0.1625;54.0;-7.8;-31.26;26.46;149.83;-79.32;-18.75;3.1;997.91;46.021;23.024704;72.53761;;NaN;;;235.1613;;0 / 0;62538;2018-06-30 19:56:17:057
-0.3041;9.7902;1.1493;0.5578;9.5308;2.2411;0.2491;-0.3344;-3.0815;0.1078;-0.2737;-0.3078;53.0;-6.78;-32.94;24.42;156.36;-76.38;-13.98;3.1;997.92;56.59;23.024704;72.53761;;NaN;;;235.1613;;0 / 0;63038;2018-06-30 19:56:17:557
-0.3304;8.0903;1.5228;-0.1389;9.5763;2.1084;-0.2034;-1.522;-0.4515;0.0852;-0.8217;0.3256;57.0;-5.1;-34.44;23.64;173.73;-77.56;3.77;3.1;997.91;48.497;23.024704;72.53761;;NaN;;;235.1613;;0 / 0;63538;2018-06-30 19:56:18:057
1.609;8.6146;3.1293;0.3826;9.5489;2.2004;0.8432;-0.4435;0.1771;0.0363;-0.2902;0.1295;52.0;-5.1;-34.14;24.12;163.2;-76.84;-9.86;3.1;997.92;45.175;23.024704;72.53761;;NaN;;;235.1613;;0 / 0;64038;2018-06-30 19:56:18:557
1.2761;10.2858;2.9162;0.8458;9.6216;1.6969;0.3896;0.7384;0.252;-0.1726;-0.0306;-0.1973;49.0;-2.76;-33.06;24.84;152.55;-78.61;-27.02;3.1;997.91;42.008;23.024704;72.53761;;NaN;;;235.1613;;0 / 0;64538;2018-06-30 19:56:19:057
0.8476;9.9985;0.9553;0.9294;9.5919;1.8169;-0.0819;0.4066;-0.8615;0.2813;0.2656;-0.1655;52.0;-4.02;-32.4;25.02;150.71;-77.99;-27.09;3.1;997.92;53.184;23.024704;72.53761;;NaN;;;235.1613;;0 / 0;65038;2018-06-30 19:56:19:557
2.3009;8.8253;0.2682;1.4193;9.6893;0.5224;0.5584;-0.5216;-0.496;0.2428;-0.2365;0.1411;53.0;-10.62;-26.82;27.78;101.48;-82.45;-63.67;3.1;997.92;55.359;23.024704;72.53761;;NaN;;;235.1613;;0 / 0;65538;2018-06-30 19:56:20:057
0.6369;10.0176;2.9474;1.0095;9.6122;1.6603;-0.3726;0.4055;1.287;-0.3198;1.2968;-0.0733;49.0;-12.36;-29.76;24.9;131.79;-78.57;-31.3;3.1;997.91;49.604;23.024704;72.53761;;NaN;;;235.1613;;0 / 0;66039;2018-06-30 19:56:20:558
-0.7398;8.617;2.9402;-0.2498;9.3803;2.8491;-1.2514;-0.464;0.8476;-0.197;1.6248;0.471;43.0;-27.0;-28.62;3.42;117.0;-73.04;5.01;3.1;997.91;59.267;23.024704;72.53761;;NaN;;;235.1613;;0 / 0;66538;2018-06-30 19:56:21:057
0.0575;8.7367;4.6329;-0.0075;8.9933;3.9104;0.065;-0.2566;0.7225;-0.1097;0.7372;0.4557;122.0;-27.48;-20.04;-18.12;72.58;-66.5;0.11;3.1;997.92;55.41;23.024704;72.53761;;NaN;;;235.1613;;0 / 0;67038;2018-06-30 19:56:21:557
0.1484;9.1749;4.8556;0.6402;8.8823;4.1067;-0.4917;0.2925;0.7489;0.2025;1.116;0.5602;162.0;-22.5;-13.98;-30.42;35.51;-64.92;-8.86;3.1;997.92;59.212;23.024704;72.53761;;NaN;;;235.1613;;0 / 0;67538;2018-06-30 19:56:22:057
-1.1373;8.3656;5.4446;0.2369;8.8894;4.1344;-0.948;-0.3706;0.2783;-0.1372;1.251;0.4991;207.0;-3.42;-10.62;-40.86;1.14;-65.02;-3.28;3.1;997.92;53.239;23.024704;72.53761;;NaN;;;235.1613;;0 / 0;68038;2018-06-30 19:56:22:557
-0.0479;8.7511;4.3241;-0.3811;8.6254;4.6505;0.2734;0.049;0.2123;-0.0529;1.1129;0.6329;190.0;23.34;-10.86;-38.46;326.31;-61.59;4.69;3.1;997.92;57.403;23.024704;72.53761;;NaN;;;235.1613;;0 / 0;68538;2018-06-30 19:56:23:057
-0.0407;9.2419;2.0495;-0.0109;8.9179;4.0793;-0.0538;-0.2937;0.2495;0.9667;1.7995;0.2847;141.0;31.92;-19.8;-24.36;293.04;-65.42;0.15;3.1;997.91;56.043;23.024704;72.53761;;NaN;;;235.1613;;0 / 0;69038;2018-06-30 19:56:23:557
-2.2267;9.2443;4.7167;-0.8337;8.5232;4.778;-1.4265;0.678;0.5157;0.0632;2.6144;0.5321;63.0;31.14;-33.06;10.2;237.88;-60.36;9.9;3.1;997.9;54.793;23.024704;72.53761;;NaN;;;235.1613;;0 / 0;69537;2018-06-30 19:56:24:056
-1.1828;9.5172;3.2107;-1.0762;8.662;4.4701;0.0251;0.441;-1.1085;0.2281;0.0237;-0.0488;64.0;14.22;-37.5;17.4;211.19;-62.04;13.54;3.1;997.91;54.636;23.024704;72.53761;;NaN;;;235.1613;;0 / 0;70038;2018-06-30 19:56:24:557
0.5986;8.7295;2.2339;0.2936;9.2805;3.1554;0.4127;-0.6922;-1.2759;0.2727;0.3286;0.234;52.0;10.44;-36.06;20.76;193.93;-71.15;-5.32;3.1;997.92;52.333;23.024704;72.53761;;NaN;;;235.1613;;0 / 0;70538;2018-06-30 19:56:25:057
-1.4222;8.9426;3.5675;0.0672;9.4515;2.6143;-1.4823;-0.4035;1.4751;0.6954;0.8838;0.212;51.0;0.96;-34.02;22.62;180.75;-74.53;-1.47;3.1;997.93;58.314;23.024704;72.53761;;NaN;;;235.1613;;0 / 0;71038;2018-06-30 19:56:25:557
1.324;10.4247;1.3743;0.9117;9.6604;1.4195;0.0364;0.2614;-0.0859;0.3417;-0.0942;0.394;49.0;-10.92;-29.76;25.38;131.34;-80.09;-32.71;3.1;997.93;61.158;23.024704;72.53761;;NaN;;;235.1613;;0 / 0;71538;2018-06-30 19:56:26:057
0.9457;8.7774;0.589;1.6207;9.5191;1.7119;-0.5936;-0.2125;-0.8619;-0.4341;1.2833;0.0801;53.0;-13.86;-28.68;24.78;119.14;-76.09;-43.43;3.1;997.93;52.534;23.024704;72.53761;;NaN;;;235.1613;;0 / 0;72037;2018-06-30 19:56:26:556
0.34;9.546;1.9465;0.7026;9.0599;3.6872;-0.6116;0.5915;-1.3336;0.2135;1.524;0.5339;86.0;-26.7;-27.96;6.3;112.57;-67.5;-10.79;3.1;997.92;57.485;23.024704;72.53761;;NaN;;;235.1613;;0 / 0;72539;2018-06-30 19:56:27:058
-0.1173;8.9953;4.4821;0.1032;8.9516;4.0035;-0.0696;0.2951;1.319;-0.0602;1.0078;0.4637;109.0;-28.44;-20.1;-17.34;73.8;-65.9;-1.48;3.1;997.93;53.29;23.024704;72.53761;;NaN;;;235.1613;;0 / 0;73038;2018-06-30 19:56:27:557
1.7837;8.5667;3.6848;0.7991;8.9531;3.9208;1.9639;-2.0217;-0.7197;-0.4383;0.4568;0.0727;122.0;-24.06;-15.66;-28.08;38.06;-65.92;-11.52;3.1;997.92;57.129;23.024704;72.53761;;NaN;;;235.1613;;0 / 0;73538;2018-06-30 19:56:28:057
-0.5124;8.6984;3.0982;0.2506;9.1843;3.4286;-0.7629;-0.4859;-0.3304;1.1609;1.2992;0.6078;105.0;-8.58;-15.0;-37.14;11.85;-69.48;-4.18;3.1;997.94;53.687;23.024704;72.53761;;NaN;;;235.1613;;0 / 0;74038;2018-06-30 19:56:28:557
2.5978;9.9698;-0.3544;1.3168;9.5854;1.5989;0.9171;0.2575;-0.6915;0.6282;-0.1473;0.3146;48.0;3.3;-23.16;-36.42;309.04;-77.81;-39.47;3.1;997.93;56.753;23.024704;72.53761;;NaN;;;235.1613;;0 / 0;74538;2018-06-30 19:56:29:057
2.3823;9.7303;1.9058;1.5466;9.6341;0.9813;0.8357;0.0963;0.9246;0.0388;1.6957;-0.1447;45.0;16.14;-28.38;-32.82;268.22;-79.24;-57.61;3.1;997.93;54.435;23.024704;72.53761;;NaN;;;235.1613;;0 / 0;75038;2018-06-30 19:56:29:557
0.8787;9.6034;-0.6465;0.1014;9.7416;1.1229;-0.202;0.4987;-1.7526;-0.0437;1.276;0.2896;55.0;34.8;-27.78;-6.06;269.34;-83.4;-5.16;3.1;997.93;54.199;23.024704;72.53761;;NaN;;;235.1613;;0 / 0;75538;2018-06-30 19:56:30:057
1.0583;10.2762;0.8476;0.3109;9.7892;0.4939;-0.129;0.6857;0.9978;0.4016;0.9101;-0.0055;48.0;28.92;-30.6;12.06;213.51;-86.59;-32.19;3.1;997.92;51.012;23.024704;72.53761;;NaN;;;235.1613;;0 / 0;76038;2018-06-30 19:56:30:557
0.8236;9.1366;-0.2801;0.1815;9.7593;-0.9455;0.532;-0.2971;0.6319;-0.103;1.8576;-0.2089;38.0;21.3;-24.12;27.96;50.88;-84.37;-169.13;3.1;997.92;56.518;23.024704;72.53761;;NaN;;;235.1613;;0 / 0;76538;2018-06-30 19:56:31:057
-1.5275;11.0137;0.1532;-1.3979;9.7065;-0.0019;-0.4959;0.632;-0.1824;-0.3436;2.3591;-0.3683;45.0;-9.48;-26.58;29.4;246.33;-81.8;90.08;3.1;997.93;54.322;23.024704;72.53761;;NaN;;;235.1613;;0 / 0;77038;2018-06-30 19:56:31:557
1.0224;9.8644;-0.1245;-0.6216;9.7833;0.2648;0.5186;-0.7114;1.3824;-0.0565;1.4886;-0.2266;61.0;-28.8;-26.88;5.82;169.26;-86.05;66.92;3.1;997.93;61.2;23.024704;72.53761;;NaN;;;235.1613;;0 / 0;77540;2018-06-30 19:56:32:059
0.9386;9.4382;-0.5172;0.0013;9.8051;-0.1722;0.8846;-0.4794;0.0262;-0.1146;1.3847;0.1851;80.0;-28.14;-27.54;-13.44;244.71;-88.99;-179.56;3.1;997.93;61.423;23.024704;72.53761;;NaN;;;235.1613;;0 / 0;78038;2018-06-30 19:56:32:557
-1.245;9.3305;1.9872;-0.6114;9.7558;0.7881;-0.5354;-0.7725;1.9078;-0.0663;2.3542;0.4099;46.0;-9.3;-26.1;-31.62;66.21;-84.66;46.58;3.1;997.94;61.375;23.024704;72.53761;;NaN;;;235.1613;;0 / 0;78538;2018-06-30 19:56:33:057
0.7662;9.2227;1.5635;-0.5194;9.7781;0.5379;1.0701;-0.2608;0.8723;-0.1457;1.3744;0.2169;48.0;25.38;-27.06;-24.48;357.68;-85.63;44.0;3.1;997.93;60.947;23.024704;72.53761;;NaN;;;235.1613;;0 / 0;79038;2018-06-30 19:56:33:557
-0.8955;9.4837;-0.2562;-0.8583;9.7689;-0.0514;-0.0372;-0.2851;-0.2047;-0.1665;1.6401;0.121;53.0;33.0;-25.44;-6.78;16.53;-84.97;93.43;3.1;997.93;62.15;23.024704;72.53761;;NaN;;;235.1613;;0 / 0;79538;2018-06-30 19:56:34:057
0.3735;9.8477;-0.3711;-0.4547;9.7956;0.0944;0.1147;-0.2497;0.9328;-0.3467;1.7128;-0.3017;35.0;28.62;-26.1;17.7;327.14;-87.81;89.89;3.1;997.93;64.449;23.024704;72.53761;;NaN;;;235.1613;;0 / 0;80038;2018-06-30 19:56:34:557
-0.6225;10.1302;-1.4892;-0.6893;9.7819;0.1004;-0.0913;0.3651;-1.7261;-0.1243;0.9596;0.1735;41.0;12.18;-26.82;29.4;280.71;-85.93;81.71;3.1;997.93;63.753;23.024704;72.53761;;NaN;;;235.1613;;0 / 0;80538;2018-06-30 19:56:35:057
0.3879;10.1158;0.8691;0.2773;9.8021;-0.114;0.1106;0.3137;0.9831;0.0669;-0.2194;-0.0721;41.0;7.08;-26.16;31.5;81.37;-88.25;-112.34;3.1;997.94;63.793;23.024704;72.53761;;NaN;;;235.1613;;0 / 0;81038;2018-06-30 19:56:35:557
-0.2538;7.9969;-0.3136;0.436;9.7828;0.5259;0.0332;-0.9431;0.19;-0.3601;0.5815;0.0122;42.0;3.18;-26.52;31.68;147.44;-86.01;-39.66;3.1;997.92;62.238;23.024704;72.53761;;NaN;;;235.1613;;0 / 0;81538;2018-06-30 19:56:36:057
-0.6728;9.4478;-0.5076;-0.1634;9.775;0.7695;-0.1263;-0.7175;-0.6618;0.3918;-0.4338;-0.0928;52.0;-0.12;-29.16;30.36;191.16;-85.4;11.98;3.1;997.95;62.205;23.024704;72.53761;;NaN;;;235.1613;;0 / 0;82038;2018-06-30 19:56:36:557
1.5419;9.6848;0.8212;0.1051;9.7509;1.0385;0.6611;0.3194;0.1778;-0.1744;-0.0496;0.237;39.0;2.46;-30.54;28.86;178.34;-83.89;-5.78;3.1;997.94;61.852;23.024704;72.53761;;NaN;;;235.1613;;0 / 0;82540;2018-06-30 19:56:37:059
0.3017;9.7232;2.1285;0.2707;9.7538;0.9803;-0.0049;0.3956;0.4898;-0.271;0.0219;0.0471;38.0;3.12;-31.32;28.68;171.37;-84.05;-15.44;3.1;997.93;60.889;23.024704;72.53761;;NaN;;;235.1613;;0 / 0;83038;2018-06-30 19:56:37:557
-0.0215;10.0057;-0.0215;-0.0709;9.7935;0.5033;0.3583;0.1356;-0.8481;-0.1439;-0.0361;0.3103;47.0;0.66;-31.26;28.92;207.55;-87.14;26.96;3.1;997.94;59.964;23.024704;72.53761;;NaN;;;235.1613;;0 / 0;83538;2018-06-30 19:56:38:057
-0.498;9.8141;1.5299;0.6351;9.7808;0.319;-1.1331;0.0333;1.211;-0.0407;-0.184;0.234;41.0;3.72;-29.34;30.12;127.36;-85.84;-63.33;3.1;997.93;60.7;23.024704;72.53761;;NaN;;;235.1613;;0 / 0;84038;2018-06-30 19:56:38:557
-0.5435;9.9817;2.2841;0.4379;9.7588;0.8626;-0.6175;0.4408;0.3585;0.2611;0.3035;-0.1606;44.0;3.12;-29.76;28.02;154.78;-83.71;-34.06;3.1;997.94;61.561;23.024704;72.53761;;NaN;;;235.1613;;0 / 0;84537;2018-06-30 19:56:39:056
0.3041;9.7567;1.5395;0.6245;9.7417;0.9377;0.484;-0.8254;0.894;0.1261;-0.9103;0.1301;45.0;3.06;-30.24;28.38;155.25;-83.4;-33.67;3.1;997.94;63.615;23.024704;72.53761;;NaN;;;235.1613;;0 / 0;85038;2018-06-30 19:56:39:557
1.2019;9.7806;0.4334;0.5081;9.7843;0.4246;0.6052;0.0682;-0.3647;0.0247;-0.2316;0.2096;28.0;14.82;-28.02;27.48;160.09;-86.13;-50.12;3.1;997.94;63.053;23.024704;72.53761;;NaN;;;235.1613;;0 / 0;85537;2018-06-30 19:56:40:056
0.1389;11.2675;1.3528;0.7529;9.6913;1.2969;0.88;1.4253;-1.0431;-0.5361;0.0958;-0.1002;38.0;9.96;-30.6;26.94;171.49;-81.2;-30.14;3.1;997.94;62.956;23.024704;72.53761;;NaN;;;235.1613;;0 / 0;86038;2018-06-30 19:56:40:557
-0.5914;10.1517;1.1588;-0.0264;9.7859;0.637;-0.3758;0.0522;0.6799;0.2452;-0.1088;-0.0556;41.0;10.92;-29.7;29.28;201.85;-86.27;2.38;3.1;997.94;63.027;23.024704;72.53761;;NaN;;;235.1613;;0 / 0;86538;2018-06-30 19:56:41:057
0.8907;9.7519;-0.1101;0.4141;9.7756;0.6598;0.6633;-0.5721;-1.1315;-0.2025;0.4043;0.157;39.0;8.76;-30.78;30.06;165.66;-85.44;-32.11;3.1;997.95;62.671;23.024704;72.53761;;NaN;;;235.1613;;0 / 0;87038;2018-06-30 19:56:41:557
0.6967;8.9211;0.0024;0.5525;9.6844;1.4411;-0.3849;0.1129;-3.1123;-0.2233;-0.3654;0.3873;42.0;1.2;-32.34;27.42;163.92;-80.95;-20.97;3.1;997.95;61.371;23.024704;72.53761;;NaN;;;235.1613;;0 / 0;87538;2018-06-30 19:56:42:057
1.6233;10.4462;1.4007;1.0487;9.6567;1.3485;0.5746;0.7895;0.0521;-0.2795;-0.6164;0.1295;43.0;-0.72;-32.76;25.56;146.55;-79.97;-37.87;3.1;997.95;62.165;23.024704;72.53761;;NaN;;;235.1613;;0 / 0;88037;2018-06-30 19:56:42:556
1.2666;9.8716;0.9793;1.0353;9.6773;1.2038;0.2432;0.2303;-0.1839;0.1909;0.3078;-0.0861;35.0;0.6;-30.84;27.84;146.67;-80.68;-40.7;3.1;997.96;61.713;23.024704;72.53761;;NaN;;;235.1613;;0 / 0;88538;2018-06-30 19:56:43:057
0.0742;10.1541;1.3312;0.4809;9.7467;0.9702;-0.4019;0.3524;-0.1538;0.1768;-0.019;0.1326;43.0;-0.6;-30.84;28.32;155.61;-83.02;-25.37;3.1;997.95;62.726;23.024704;72.53761;;NaN;;;235.1613;;0 / 0;89038;2018-06-30 19:56:43:557
2.1812;8.7966;0.9481;1.2;9.7233;0.4333;1.6324;-0.7902;-0.1196;-0.1421;-1.0074;-0.0165;40.0;1.98;-28.02;29.34;119.86;-82.52;-70.15;3.1;997.95;63.713;23.024704;72.53761;;NaN;;;235.1613;;0 / 0;89538;2018-06-30 19:56:44:057
1.4701;10.0272;1.2235;0.8706;9.7675;0.0875;0.4391;0.4297;1.1216;-0.1286;0.4177;0.2199;31.0;8.52;-27.12;30.3;116.31;-84.88;-84.26;3.1;997.94;61.165;23.024704;72.53761;;NaN;;;235.1613;;0 / 0;90039;2018-06-30 19:56:44:558
-0.9194;10.032;-0.9697;0.6835;9.7791;0.2693;-1.6029;0.2529;-1.239;0.186;0.1612;-0.2516;46.0;2.4;-27.18;31.68;118.21;-85.7;-68.5;3.1;997.94;61.91;23.024704;72.53761;;NaN;;;235.1613;;0 / 0;90539;2018-06-30 19:56:45:058
0.1389;9.7184;-0.6369;0.3606;9.795;-0.3126;-0.1259;-0.1221;-0.5972;-0.0767;-0.3526;0.154;45.0;4.38;-26.04;32.34;58.14;-87.21;-130.93;3.1;997.95;60.666;23.024704;72.53761;;NaN;;;235.1613;;0 / 0;91038;2018-06-30 19:56:45:557
1.5754;9.6489;0.3041;0.8986;9.7585;0.3672;0.0639;0.6854;0.4756;0.0162;0.2027;0.0953;38.0;2.28;-29.52;30.54;120.53;-84.32;-67.77;3.1;997.94;60.875;23.024704;72.53761;;NaN;;;235.1613;;0 / 0;91538;2018-06-30 19:56:46:057
0.1341;9.455;-0.2251;0.602;9.7485;0.8799;-0.9156;1.8637;-2.9175;-0.117;-0.0227;0.0703;43.0;0.72;-30.84;29.76;150.56;-83.76;-34.38;3.1;997.95;60.932;23.024704;72.53761;;NaN;;;235.1613;;0 / 0;92038;2018-06-30 19:56:46:557
1.0319;9.7064;0.1461;1.0821;9.7454;0.1629;-0.0501;-0.039;-0.0169;0.1267;-0.0838;0.1283;42.0;0.84;-30.72;29.52;112.07;-84.26;-75.25;3.1;997.95;61.452;23.024704;72.53761;;NaN;;;235.1613;;0 / 0;92538;2018-06-30 19:56:47:057
1.5347;9.4909;0.1437;1.331;9.7009;0.5394;0.163;-0.1262;-0.5274;0.1389;0.2162;-0.1081;33.0;1.2;-29.88;28.26;124.2;-81.31;-65.29;3.1;997.97;62.259;23.024704;72.53761;;NaN;;;235.1613;;0 / 0;93039;2018-06-30 19:56:47:558
-0.352;10.3241;-0.2634;0.1669;9.8051;0.0529;-0.4638;0.4735;-0.6514;-0.0333;0.0506;0.077;41.0;0.3;-28.26;31.32;124.68;-88.09;-56.72;3.1;997.96;60.075;23.024704;72.53761;;NaN;;;235.1613;;0 / 0;93538;2018-06-30 19:56:48:057
-0.668;9.7854;1.4126;0.2771;9.7938;0.419;-1.3091;0.3652;1.2809;0.4212;-0.6;-0.0543;32.0;8.28;-28.98;29.16;162.76;-87.06;-33.48;3.1;997.96;62.696;23.024704;72.53761;;NaN;;;235.1613;;0 / 0;94040;2018-06-30 19:56:48:559
0.7279;9.3568;1.992;0.4708;9.7718;0.6777;0.3456;-0.4461;1.422;0.0479;0.4874;0.0074;25.0;14.22;-28.68;26.28;173.99;-85.17;-34.79;3.1;997.96;61.911;23.024704;72.53761;;NaN;;;235.1613;;0 / 0;94538;2018-06-30 19:56:49:057
0.0144;9.7471;-0.498;-0.207;9.7791;0.7046;0.2214;-0.032;-1.2026;-0.1103;0.422;-0.157;33.0;8.76;-28.92;29.04;211.54;-85.71;16.37;3.1;997.95;66.247;23.024704;72.53761;;NaN;;;235.1613;;0 / 0;95038;2018-06-30 19:56:49:557
0.3089;9.7902;-1.9058;-0.1663;9.8052;-0.0164;-0.6453;-0.3287;-1.0323;-0.136;-0.1925;0.0538;38.0;8.94;-27.18;30.6;291.05;-89.02;95.63;3.1;997.94;60.943;23.024704;72.53761;;NaN;;;235.1613;;0 / 0;95539;2018-06-30 19:56:50:058
1.075;9.5915;0.7135;0.518;9.7736;0.6158;0.5331;-0.0337;0.3204;-0.0046;0.2265;-0.0067;33.0;5.16;-30.42;30.0;151.53;-85.29;-40.07;3.1;997.96;59.946;23.024704;72.53761;;NaN;;;235.1613;;0 / 0;96039;2018-06-30 19:56:50:558
-0.1748;9.2754;-0.407;0.3999;9.7853;0.5073;-0.7207;-0.3016;-1.4722;-0.1262;0.0506;0.0129;34.0;2.1;-30.24;29.82;147.54;-86.22;-38.24;3.1;997.97;59.596;23.024704;72.53761;;NaN;;;235.1613;;0 / 0;96538;2018-06-30 19:56:51:057
0.2107;9.0815;3.261;0.4895;9.7799;0.5323;-0.1208;0.1204;1.534;-0.3253;-0.2432;0.2596;32.0;0.48;-30.6;28.44;140.31;-85.77;-42.6;3.1;997.99;61.669;23.024704;72.53761;;NaN;;;235.1613;;0 / 0;97038;2018-06-30 19:56:51:557
0.8188;9.965;1.0224;0.73;9.7349;0.9318;0.345;0.3091;-0.1681;0.0705;0.1019;-0.0934;34.0;1.26;-30.96;27.36;148.07;-83.07;-38.07;3.1;997.97;62.265;23.024704;72.53761;;NaN;;;235.1613;;0 / 0;97538;2018-06-30 19:56:52:057
-0.3184;9.5388;1.8412;0.1208;9.7588;0.96;-0.4392;-0.22;0.8812;-0.1146;-0.1791;0.154;35.0;1.8;-30.48;28.5;177.06;-84.34;-7.17;3.1;997.98;60.923;23.024704;72.53761;;NaN;;;235.1613;;0 / 0;98038;2018-06-30 19:56:52:557
2.1213;9.4502;-0.7039;0.5225;9.7888;0.2754;1.5988;-0.3386;-0.9793;0.1224;-1.0214;0.0581;25.0;9.12;-27.96;29.82;136.56;-86.55;-62.21;3.1;997.96;65.828;23.024704;72.53761;;NaN;;;235.1613;;0 / 0;98538;2018-06-30 19:56:53:057
0.7781;10.2068;0.0718;0.9353;9.7468;0.5424;0.4869;0.4863;-0.4203;-0.0993;0.6652;-0.1447;30.0;5.58;-28.08;30.78;134.87;-83.67;-59.89;3.1;997.96;60.69;23.024704;72.53761;;NaN;;;235.1613;;0 / 0;99038;2018-06-30 19:56:53:557
-0.0982;10.0607;-0.7422;0.0072;9.8064;0.0733;-0.1053;0.2544;-0.8155;0.4615;-0.0801;-0.0385;36.0;2.4;-28.14;31.74;178.01;-89.57;-5.58;3.1;997.96;60.247;23.024704;72.53761;;NaN;;;235.1613;;0 / 0;99538;2018-06-30 19:56:54:057
1.4557;9.3185;-0.5076;0.0507;9.7973;0.4259;1.405;-0.4787;-0.9335;-0.5764;-0.1271;0.0746;31.0;3.36;-29.34;30.18;178.96;-87.49;-6.79;3.1;997.96;61.922;23.024704;72.53761;;NaN;;;235.1613;;0 / 0;100038;2018-06-30 19:56:54:557
-1.324;10.8916;2.9593;-0.0605;9.6976;1.4573;0.6878;1.0408;-2.4773;-0.8134;0.5949;-0.1075;35.0;2.52;-31.68;29.1;187.19;-81.45;2.38;3.1;997.96;60.07;23.024704;72.53761;;NaN;;;235.1613;;0 / 0;100538;2018-06-30 19:56:55:057
-0.6465;10.9275;0.2729;-0.119;9.8031;0.2347;-0.2186;1.0022;-0.2347;-0.0333;0.0134;0.041;36.0;-0.18;-30.12;29.16;206.2;-88.46;26.89;3.1;997.97;59.228;23.024704;72.53761;;NaN;;;235.1613;;0 / 0;101038;2018-06-30 19:56:55:557
0.8859;9.0384;0.3065;0.4873;9.7908;0.2686;0.0969;-0.4125;0.5527;0.0669;-0.0954;0.0471;30.0;1.68;-28.92;30.06;125.19;-86.75;-61.14;3.1;997.97;62.53;23.024704;72.53761;;NaN;;;235.1613;;0 / 0;101538;2018-06-30 19:56:56:057
-0.7039;9.8477;1.5802;0.049;9.8065;0.0099;-0.2909;-0.7011;0.1266;-0.3779;0.0928;0.0697;37.0;0.84;-27.72;30.24;103.55;-89.71;-78.62;3.1;997.96;61.401;23.024704;72.53761;;NaN;;;235.1613;;0 / 0;102038;2018-06-30 19:56:56:557
-0.5722;10.36;-1.3456;-0.5805;9.787;-0.2201;0.0346;0.8532;-1.3051;-0.3076;-1.4258;0.3042;31.0;3.66;-25.98;31.74;295.19;-86.37;110.76;3.1;997.96;63.141;23.024704;72.53761;;NaN;;;235.1613;;0 / 0;102538;2018-06-30 19:56:57:057
-0.2729;10.0057;1.925;-0.0952;9.7832;0.6704;-0.1514;0.2153;1.0846;0.1408;0.4794;0.0758;21.0;11.7;-27.66;29.7;208.32;-86.04;8.09;3.1;997.96;62.027;23.024704;72.53761;;NaN;;;235.1613;;0 / 0;103038;2018-06-30 19:56:57:557
-0.5411;9.9051;-0.7734;-0.6066;9.7661;0.6528;0.0655;0.139;-1.4261;0.0168;0.6236;-0.149;32.0;5.82;-28.5;29.52;219.33;-84.09;31.3;3.1;997.96;66.497;23.024704;72.53761;;NaN;;;235.1613;;0 / 0;103541;2018-06-30 19:56:58:060
-0.8332;10.0057;0.2179;-0.4774;9.7934;0.179;-0.339;0.3129;0.4747;0.0888;0.2259;-0.0134;36.0;4.08;-26.58;32.1;254.19;-87.02;69.45;3.1;997.97;60.038;23.024704;72.53761;;NaN;;;235.1613;;0 / 0;104038;2018-06-30 19:56:58:557
0.9362;9.5771;0.7494;0.4283;9.7664;0.7776;0.4504;-0.5125;-0.2892;-0.2777;0.1154;0.0898;29.0;0.66;-31.38;29.46;155.35;-84.81;-28.85;3.1;997.96;62.011;23.024704;72.53761;;NaN;;;235.1613;;0 / 0;104540;2018-06-30 19:56:59:059
-0.4429;8.9713;-0.6728;0.8389;9.7308;0.8823;-0.8269;-0.7786;0.6428;1.4651;0.9498;-0.3836;37.0;1.8;-31.32;29.1;144.59;-82.87;-43.55;3.1;997.96;58.829;23.024704;72.53761;;NaN;;;235.1613;;0 / 0;105039;2018-06-30 19:56:59:558
-0.2251;10.2188;4.2858;0.7889;9.7741;-0.1227;-0.1545;1.6155;2.809;-0.5715;-0.0447;-0.3769;32.0;2.76;-29.28;29.16;91.72;-85.33;-98.84;3.1;997.96;59.813;23.024704;72.53761;;NaN;;;235.1613;;0 / 0;105538;2018-06-30 19:57:00:057
-0.0239;10.0296;0.3472;0.3252;9.8008;-0.0872;-0.1792;0.1306;0.7552;0.0052;0.4623;-0.1063;35.0;4.56;-27.78;31.08;85.9;-88.03;-105.01;3.1;997.96;63.177;23.024704;72.53761;;NaN;;;235.1613;;0 / 0;106038;2018-06-30 19:57:00:557
-0.5363;9.9961;0.486;-0.1322;9.8027;0.2446;0.3309;-0.2878;0.275;-0.1512;-0.4265;-0.0892;39.0;0.24;-27.84;30.66;207.72;-88.38;28.4;3.1;997.96;61.567;23.024704;72.53761;;NaN;;;235.1613;;0 / 0;106538;2018-06-30 19:57:01:057
0.2514;11.1645;1.0559;-0.0029;9.8059;0.1154;-0.3921;0.7672;2.7505;-0.4151;0.6719;0.1338;26.0;11.64;-27.12;29.76;344.87;-89.37;143.21;3.1;997.97;62.669;23.024704;72.53761;;NaN;;;235.1613;;0 / 0;107039;2018-06-30 19:57:01:558
1.8436;9.8285;-1.4414;0.3867;9.7382;1.0902;1.4569;0.0903;-2.5315;-1.3149;-0.2102;0.394;36.0;3.6;-28.98;30.12;169.21;-83.23;-19.53;3.1;997.96;62.922;23.024704;72.53761;;NaN;;;235.1613;;0 / 0;107538;2018-06-30 19:57:02:057
-0.0048;9.297;0.7422;0.0417;9.7604;0.9506;0.3845;-0.3844;-0.352;-0.048;-0.0667;0.2169;38.0;1.44;-29.22;28.56;184.38;-84.53;2.81;3.1;997.96;64.014;23.024704;72.53761;;NaN;;;235.1613;;0 / 0;108039;2018-06-30 19:57:02:558
1.5228;10.4343;1.7813;0.7007;9.6138;1.804;1.1094;0.2075;-0.1806;-3.0E-4;0.2003;-0.2914;31.0;-1.08;-33.18;26.28;160.92;-78.62;-21.23;3.1;997.95;62.733;23.024704;72.53761;;NaN;;;235.1613;;0 / 0;108539;2018-06-30 19:57:03:058
0.2753;10.8628;-0.17;0.7816;9.4933;2.3314;-0.5063;1.3695;-2.5014;0.4645;-0.4167;0.1344;41.0;-0.6;-35.28;23.76;164.29;-75.48;-18.53;3.1;997.96;60.193;23.024704;72.53761;;NaN;;;235.1613;;0 / 0;109038;2018-06-30 19:57:03:557
0.1532;9.8836;2.3799;0.7201;9.7691;0.4651;-0.0761;0.4018;0.629;0.2611;-0.1436;0.0642;42.0;-1.32;-31.14;28.56;125.17;-84.98;-57.14;3.1;997.95;60.015;23.024704;72.53761;;NaN;;;235.1613;;0 / 0;109538;2018-06-30 19:57:04:057
0.5698;10.2858;0.7326;0.641;9.7762;0.4304;0.1659;-0.7498;0.0317;-0.0352;0.3719;-0.0617;37.0;0.9;-29.52;28.74;129.38;-85.48;-56.12;3.1;997.95;65.608;23.024704;72.53761;;NaN;;;235.1613;;0 / 0;110038;2018-06-30 19:57:04:557
1.3121;9.4789;-0.6201;0.7844;9.768;0.3752;0.4726;-0.4567;-0.4254;0.1194;-0.0392;0.2236;37.0;-5.52;-27.42;29.04;108.22;-84.91;-64.44;3.1;997.93;62.591;23.024704;72.53761;;NaN;;;235.1613;;0 / 0;110539;2018-06-30 19:57:05:058
1.8747;9.2347;0.2394;0.9478;9.7437;-0.5764;-0.1745;-0.5999;1.6993;0.0699;-1.4063;0.2059;47.0;5.82;-24.72;32.22;74.24;-83.5;-121.31;3.1;997.94;63.571;23.024704;72.53761;;NaN;;;235.1613;;0 / 0;111038;2018-06-30 19:57:05:557
0.4453;10.2044;-1.0607;0.8939;9.7658;-0.0119;-0.4054;-0.1504;0.6895;0.0504;0.7488;-0.1661;48.0;5.28;-25.02;32.1;102.03;-84.77;-90.76;3.1;997.94;62.219;23.024704;72.53761;;NaN;;;235.1613;;0 / 0;111538;2018-06-30 19:57:06:057
-0.3208;10.0919;0.1532;0.2347;9.8013;-0.2204;-0.3472;0.0511;0.321;-0.0138;-0.4729;0.2633;54.0;2.58;-25.98;32.1;55.55;-88.52;-130.8;3.1;997.94;61.543;23.024704;72.53761;;NaN;;;235.1613;;0 / 0;112038;2018-06-30 19:57:06:557
1.8771;9.4741;-0.5028;1.0519;9.7314;0.6024;0.8252;-0.2573;-1.1052;-0.0315;0.0818;-6.0E-4;40.0;1.92;-29.76;29.52;128.93;-82.9;-60.2;3.1;997.94;63.203;23.024704;72.53761;;NaN;;;235.1613;;0 / 0;112538;2018-06-30 19:57:07:057
0.4501;8.5308;3.3472;1.2367;9.4876;2.1506;-0.6262;-0.9305;1.5653;-0.2526;-0.2548;-0.0256;40.0;-1.74;-33.42;25.32;153.4;-75.35;-29.9;3.1;997.94;60.394;23.024704;72.53761;;NaN;;;235.1613;;0 / 0;113039;2018-06-30 19:57:07:558
0.6249;9.9171;1.2785;0.7806;9.6239;1.7149;-0.443;0.2453;0.1814;0.0901;-0.1656;0.0397;55.0;-0.72;-34.02;24.72;159.66;-78.29;-23.17;3.1;997.96;60.994;23.024704;72.53761;;NaN;;;235.1613;;0 / 0;113538;2018-06-30 19:57:08:057
1.6449;8.9211;0.3328;1.1274;9.6714;1.1677;0.6204;-1.2651;-0.8397;0.1096;-0.1723;0.0807;51.0;3.0;-31.62;26.7;147.95;-80.47;-43.99;3.1;997.96;62.022;23.024704;72.53761;;NaN;;;235.1613;;0 / 0;114038;2018-06-30 19:57:08:557
-0.1844;10.6785;0.747;0.5532;9.7585;0.7971;0.3638;0.4004;-2.2241;0.313;-0.0422;-0.1228;52.0;1.14;-30.0;28.74;150.02;-84.32;-34.76;3.1;997.96;62.878;23.024704;72.53761;;NaN;;;235.1613;;0 / 0;114538;2018-06-30 19:57:09:057
-0.3567;10.0967;1.4629;0.4368;9.7955;-0.1645;-0.499;0.3586;1.388;0.197;-0.5114;-0.0659;50.0;3.6;-27.0;31.56;78.74;-87.27;-110.64;3.1;997.96;64.374;23.024704;72.53761;;NaN;;;235.1613;;0 / 0;115038;2018-06-30 19:57:09:557
1.3887;9.4574;0.6919;0.6527;9.7738;-0.4653;0.1757;0.3588;0.9824;-0.0828;0.3799;0.1454;44.0;9.24;-25.02;31.56;73.67;-85.31;-125.48;3.1;997.94;61.79;23.024704;72.53761;;NaN;;;235.1613;;0 / 0;115538;2018-06-30 19:57:10:057
0.5866;9.2754;-2.1405;-0.1932;9.8035;0.1538;-0.3575;0.1112;-2.2967;-0.095;-0.1668;0.3678;51.0;7.14;-25.92;31.86;242.79;-88.56;51.47;3.1;997.93;62.791;23.024704;72.53761;;NaN;;;235.1613;;0 / 0;116038;2018-06-30 19:57:10:557
-0.0192;9.6202;0.4836;0.1197;9.7985;-0.3804;-0.1556;-0.2789;0.7587;-0.1366;0.1679;0.179;55.0;4.98;-25.62;32.88;26.92;-87.67;-162.53;3.1;997.93;62.168;23.024704;72.53761;;NaN;;;235.1613;;0 / 0;116538;2018-06-30 19:57:11:057
0.9864;9.388;0.3544;0.552;9.79;0.1441;0.4345;-0.4021;0.2102;-0.3614;0.2516;0.0849;44.0;3.78;-28.98;31.38;114.76;-86.67;-75.37;3.1;997.94;60.787;23.024704;72.53761;;NaN;;;235.1613;;0 / 0;117038;2018-06-30 19:57:11:557
-0.2562;9.1294;-1.427;0.1738;9.7937;0.4724;-0.43;-0.6643;-1.8994;0.4346;0.1771;-0.1582;44.0;3.12;-30.9;29.76;166.22;-87.06;-20.19;3.1;997.97;59.644;23.024704;72.53761;;NaN;;;235.1613;;0 / 0;117540;2018-06-30 19:57:12:059
1.8723;9.783;1.1085;0.8699;9.7639;-0.2814;1.3113;0.7374;-0.4297;-0.3381;0.0158;0.1454;36.0;1.92;-27.84;30.84;80.58;-84.65;-107.93;3.1;997.95;60.401;23.024704;72.53761;;NaN;;;235.1613;;0 / 0;118038;2018-06-30 19:57:12:557
0.2394;9.7854;-0.0527;0.6537;9.7729;-0.4834;0.4716;-0.4735;0.4284;0.4822;0.5876;-0.6835;37.0;2.1;-25.92;31.74;60.54;-85.24;-126.48;3.1;997.94;62.393;23.024704;72.53761;;NaN;;;235.1613;;0 / 0;118538;2018-06-30 19:57:13:057
0.1293;10.0488;2.1333;0.3342;9.6247;1.8505;0.1734;0.5797;-0.8712;0.2672;0.4477;0.1112;56.0;-10.44;-31.68;22.74;152.37;-78.95;-10.24;3.1;997.94;63.246;23.024704;72.53761;;NaN;;;235.1613;;0 / 0;119039;2018-06-30 19:57:13:558
-0.1437;9.5532;3.3999;1.1131;9.7295;0.517;0.2588;-0.2171;-0.7397;-0.1787;0.1545;0.1766;46.0;-10.92;-27.66;27.78;100.02;-82.81;-65.09;3.1;997.95;62.246;23.024704;72.53761;;NaN;;;235.1613;;0 / 0;119538;2018-06-30 19:57:14:057
3.2155;9.6226;-0.9362;1.5549;9.4644;2.0441;0.1738;-0.5026;-0.5238;0.3161;0.1013;-0.1454;50.0;-15.96;-28.26;23.46;120.42;-74.82;-37.26;3.1;997.94;61.256;23.024704;72.53761;;NaN;;;235.1613;;0 / 0;120038;2018-06-30 19:57:14:557
0.4022;9.4382;0.6536;0.7791;9.6967;1.2397;-0.1758;-0.4165;-1.2421;0.1243;-0.2078;-0.0268;51.0;-12.66;-29.88;24.36;126.71;-81.41;-32.15;3.1;997.94;63.222;23.024704;72.53761;;NaN;;;235.1613;;0 / 0;120538;2018-06-30 19:57:15:057
1.5228;9.443;1.1588;1.0855;9.4395;2.4266;-0.2643;1.0834;-0.4394;0.2373;-0.0233;-0.0183;48.0;-10.68;-33.06;22.56;141.95;-74.27;-24.1;3.1;997.95;63.717;23.024704;72.53761;;NaN;;;235.1613;;0 / 0;121038;2018-06-30 19:57:15:557
0.3951;10.4151;3.273;0.7355;9.2396;3.2031;-0.362;1.6352;-1.3787;0.5843;-0.3788;-0.1502;46.0;-11.88;-35.28;18.36;149.24;-70.12;-12.14;3.1;997.94;59.408;23.024704;72.53761;;NaN;;;235.1613;;0 / 0;121538;2018-06-30 19:57:16:057
1.1062;10.1685;2.6864;1.2991;9.4757;2.1665;0.159;0.7;-0.6294;0.0956;-0.1675;-0.0177;49.0;-12.72;-33.48;20.58;131.54;-75.07;-30.95;3.1;997.96;59.472;23.024704;72.53761;;NaN;;;235.1613;;0 / 0;122038;2018-06-30 19:57:16:557
1.4964;8.9522;2.0303;1.3051;9.465;2.2092;0.4523;-1.1329;0.051;-0.026;-0.3422;-0.2718;44.0;-7.38;-32.46;24.48;143.76;-74.83;-30.57;3.1;997.96;62.432;23.024704;72.53761;;NaN;;;235.1613;;0 / 0;122538;2018-06-30 19:57:17:057
-0.929;9.7806;2.5307;0.2397;9.7424;1.0952;-1.8678;0.0574;2.7812;0.7229;0.1141;0.1796;48.0;-4.32;-29.76;28.02;161.61;-83.44;-12.35;3.1;997.96;62.016;23.024704;72.53761;;NaN;;;235.1613;;0 / 0;123038;2018-06-30 19:57:17:557
0.4789;9.522;-1.585;0.0685;9.7424;-1.1187;0.4104;-0.2203;-0.4663;-0.2093;-1.1626;0.4001;45.0;5.94;-22.5;33.48;15.01;-83.44;-176.5;3.1;997.96;63.727;23.024704;72.53761;;NaN;;;235.1613;;0 / 0;123538;2018-06-30 19:57:18:057
-0.2418;9.6705;0.3352;-0.3587;9.7797;-0.6321;0.1169;-0.1092;0.9673;-0.0895;1.0066;-0.1564;30.0;13.2;-24.9;31.92;352.09;-85.75;150.42;3.1;997.97;64.136;23.024704;72.53761;;NaN;;;235.1613;;0 / 0;124038;2018-06-30 19:57:18:557
-1.1014;9.1437;-1.3097;-1.3452;9.7134;-0.0984;0.2438;-0.5697;-1.2113;-0.0089;0.8136;-0.1673;39.0;7.02;-26.52;31.38;280.15;-82.09;94.18;3.1;997.96;63.048;23.024704;72.53761;;NaN;;;235.1613;;0 / 0;124538;2018-06-30 19:57:19:057
0.4693;10.6449;-2.0663;-1.256;9.6866;-0.8733;1.426;0.7189;-1.0924;-0.114;-0.3935;0.3042;36.0;3.18;-24.54;33.12;304.03;-81.03;124.81;3.1;997.96;62.719;23.024704;72.53761;;NaN;;;235.1613;;0 / 0;125038;2018-06-30 19:57:19:557
-0.1173;9.5723;0.2418;-0.6834;9.7609;-0.6545;0.5661;-0.1886;0.8964;-0.3192;-0.0074;0.179;26.0;0.24;-26.64;32.52;310.16;-84.46;133.76;3.1;997.96;60.859;23.024704;72.53761;;NaN;;;235.1613;;0 / 0;125539;2018-06-30 19:57:20:058
0.0527;8.5739;-2.3248;-0.926;9.731;-0.7871;-0.4076;-0.3072;-0.9152;-0.0791;-0.1711;0.2022;30.0;-0.42;-26.52;32.4;305.23;-82.88;130.37;3.1;997.97;59.727;23.024704;72.53761;;NaN;;;235.1613;;0 / 0;126038;2018-06-30 19:57:20:557
-0.7973;9.5651;1.0774;-0.5331;9.7312;-1.0906;-0.5227;0.6456;1.6221;-0.2538;-0.2487;0.2303;33.0;0.3;-26.64;32.4;330.84;-82.89;153.95;3.1;997.96;61.081;23.024704;72.53761;;NaN;;;235.1613;;0 / 0;126538;2018-06-30 19:57:21:057
-0.4477;10.214;-0.6297;-0.5884;9.7808;-0.3995;0.258;0.6894;-0.0913;-0.0895;0.1209;-0.094;36.0;3.54;-26.58;31.38;308.65;-85.84;124.18;3.1;997.97;61.882;23.024704;72.53761;;NaN;;;235.1613;;0 / 0;127038;2018-06-30 19:57:21:557
1.2331;8.957;0.5483;-0.3241;9.801;0.0676;1.5571;-0.8441;0.4807;0.0491;-0.6946;-0.2828;38.0;2.04;-26.64;31.44;260.26;-88.07;78.22;3.1;997.99;61.917;23.024704;72.53761;;NaN;;;235.1613;;0 / 0;127539;2018-06-30 19:57:22:058
0.6105;9.1653;1.4509;0.1867;9.7539;0.9979;-0.3686;-0.3229;1.1593;-0.0394;-2.7587;0.6677;22.0;30.78;-27.6;11.76;234.31;-84.06;-10.59;3.1;997.97;63.467;23.024704;72.53761;;NaN;;;235.1613;;0 / 0;128038;2018-06-30 19:57:22:557
1.6042;9.4215;1.2139;1.1406;9.6997;0.8863;0.4636;-0.2782;0.3276;-0.1243;-1.4814;-0.1619;26.0;28.08;-27.78;-15.0;239.81;-81.53;-52.15;3.1;997.97;62.387;23.024704;72.53761;;NaN;;;235.1613;;0 / 0;128538;2018-06-30 19:57:23:057
-1.2091;10.2355;1.0463;0.0497;9.7819;0.694;-1.0194;0.2956;0.5797;-0.001;-1.4008;-0.3078;46.0;16.02;-23.88;-31.98;327.82;-85.93;-4.1;3.1;997.98;61.701;23.024704;72.53761;;NaN;;;235.1613;;0 / 0;129038;2018-06-30 19:57:23:557
2.1285;8.3967;2.2722;0.7479;9.7654;0.4972;0.8395;-0.8012;1.648;-0.3174;-1.6189;0.0043;34.0;-7.02;-24.42;-34.62;312.19;-84.75;-56.38;3.1;997.98;60.534;23.024704;72.53761;;NaN;;;235.1613;;0 / 0;129538;2018-06-30 19:57:24:057
-0.0575;9.8237;0.905;0.5476;9.7657;0.7082;-0.605;0.1107;0.7595;-0.1005;-1.7698;-0.2804;48.0;-28.62;-26.94;-11.58;32.33;-84.76;-37.71;3.1;997.98;62.743;23.024704;72.53761;;NaN;;;235.1613;;0 / 0;130038;2018-06-30 19:57:24:557
-0.5028;9.6178;0.9433;0.2821;9.7124;1.3265;-1.1272;-0.2359;0.7757;-0.0138;-2.1076;-0.3188;27.0;-24.18;-30.66;13.2;114.51;-82.05;-12.0;3.1;997.98;61.379;23.024704;72.53761;;NaN;;;235.1613;;0 / 0;130538;2018-06-30 19:57:25:057
2.1405;9.4454;-1.4414;0.6882;9.7813;0.1505;1.4595;-1.1356;-0.9909;0.3931;-2.0251;0.1472;29.0;-0.42;-28.08;31.08;105.89;-85.88;-77.66;3.1;997.98;61.461;23.024704;72.53761;;NaN;;;235.1613;;0 / 0;131038;2018-06-30 19:57:25:557
0.0096;9.2994;-0.1891;0.0707;9.7379;1.1573;-0.334;0.093;-0.9035;0.1255;0.0378;-0.2315;30.0;14.52;-31.38;26.16;203.81;-83.21;-3.49;3.1;997.97;64.199;23.024704;72.53761;;NaN;;;235.1613;;0 / 0;131538;2018-06-30 19:57:26:057
-0.2729;9.4071;1.8196;0.091;9.7472;1.0742;0.2083;-0.8118;1.5164;-0.0211;0.1154;-0.3506;31.0;8.82;-29.94;28.62;191.25;-83.69;-4.84;3.1;997.99;60.533;23.024704;72.53761;;NaN;;;235.1613;;0 / 0;132038;2018-06-30 19:57:26:557
0.9122;10.87;2.2937;0.7686;9.4237;2.6025;0.7686;1.0177;-0.5266;-0.0309;-0.4124;-0.2229;34.0;15.06;-34.08;20.7;194.41;-73.94;-16.45;3.1;997.95;62.567;23.024704;72.53761;;NaN;;;235.1613;;0 / 0;132538;2018-06-30 19:57:27:057
-0.2801;10.0129;2.1836;0.6274;9.3474;2.8988;-0.5771;-0.3569;0.4604;0.5965;0.7824;-0.069;39.0;11.52;-34.98;21.96;191.93;-72.4;-12.21;3.1;997.96;65.048;23.024704;72.53761;;NaN;;;235.1613;;0 / 0;133039;2018-06-30 19:57:27:558
0.6105;9.352;2.0088;0.5819;9.4817;2.4348;-0.0097;-0.3332;-0.1459;0.1457;-0.0056;0.0953;40.0;4.92;-33.48;24.36;178.72;-75.21;-13.44;3.1;997.98;63.975;23.024704;72.53761;;NaN;;;235.1613;;0 / 0;133538;2018-06-30 19:57:28:057
1.3671;9.5963;0.6872;0.9793;9.5831;1.8372;0.3879;0.0131;-1.15;0.4114;0.1056;-0.2993;37.0;4.38;-33.0;25.38;164.85;-77.74;-28.06;3.1;997.98;62.256;23.024704;72.53761;;NaN;;;235.1613;;0 / 0;134038;2018-06-30 19:57:28:557
-0.5243;9.7567;2.2602;0.3778;9.6944;1.4306;0.1058;0.1652;-2.3811;-0.2367;-0.1833;0.2383;38.0;4.8;-32.16;26.94;176.3;-81.32;-14.79;3.1;997.98;61.716;23.024704;72.53761;;NaN;;;235.1613;;0 / 0;134539;2018-06-30 19:57:29:058
1.5563;11.1453;-1.2402;0.4531;9.6988;1.3774;0.5501;1.3436;0.6386;0.6973;-0.5211;0.1595;43.0;3.3;-32.82;25.92;170.1;-81.5;-18.21;3.1;997.98;61.464;23.024704;72.53761;;NaN;;;235.1613;;0 / 0;135038;2018-06-30 19:57:29:557
1.2283;9.3999;0.905;0.8124;9.6783;1.3569;0.2985;-0.4172;-0.4663;0.0968;0.0463;-0.0397;39.0;7.38;-32.1;25.8;166.55;-80.72;-30.91;3.1;997.97;61.154;23.024704;72.53761;;NaN;;;235.1613;;0 / 0;135538;2018-06-30 19:57:30:057
1.9609;8.9785;1.4988;0.8356;9.6831;1.3076;-0.0287;-0.4316;1.5128;0.3491;-0.3745;-0.1875;38.0;6.06;-30.3;27.36;162.68;-80.9;-32.58;3.1;997.98;62.475;23.024704;72.53761;;NaN;;;235.1613;;0 / 0;136038;2018-06-30 19:57:30:557
1.1493;9.2539;1.6473;1.6514;9.5315;1.6101;0.2305;-0.4908;0.1449;-0.4872;-2.6971;0.0452;34.0;26.52;-32.28;12.36;196.58;-76.4;-45.73;3.1;997.97;60.815;23.024704;72.53761;;NaN;;;235.1613;;0 / 0;136538;2018-06-30 19:57:31:057
1.0487;9.7423;2.0567;1.2112;9.46;2.2831;-0.1626;0.2824;-0.2264;-0.0541;-1.2438;-0.9493;38.0;28.86;-24.9;-16.92;261.18;-74.72;-27.95;3.1;997.97;65.349;23.024704;72.53761;;NaN;;;235.1613;;0 / 0;137039;2018-06-30 19:57:31:558
-0.4022;9.8141;3.7925;0.1345;9.4809;2.5029;-0.4003;0.1896;1.304;-0.2166;-1.3941;-0.3732;48.0;20.64;-17.94;-32.04;315.11;-75.86;-6.01;3.1;997.97;60.026;23.024704;72.53761;;NaN;;;235.1613;;0 / 0;137538;2018-06-30 19:57:32:057
0.2586;9.4957;3.7231;0.6918;9.7045;1.2308;-0.3662;0.476;1.9369;0.2678;-0.256;-0.1331;31.0;-6.06;-22.2;-35.76;338.05;-81.72;-29.34;3.1;997.98;61.119;23.024704;72.53761;;NaN;;;235.1613;;0 / 0;138039;2018-06-30 19:57:32:558
0.0335;9.1126;0.8308;0.2924;9.7598;0.9116;-0.0793;-0.4126;0.2257;-0.0266;2.6755;-0.0604;31.0;6.48;-25.8;-34.5;329.98;-84.4;-17.78;3.1;997.98;59.666;23.024704;72.53761;;NaN;;;235.1613;;0 / 0;138538;2018-06-30 19:57:33:057
0.0623;10.1014;1.5491;-0.3785;9.6613;1.6391;0.4407;0.4402;-0.09;0.2513;1.5546;0.5541;56.0;34.8;-26.76;-8.04;288.49;-80.12;13.0;3.1;997.98;58.271;23.024704;72.53761;;NaN;;;235.1613;;0 / 0;139039;2018-06-30 19:57:33:558
1.2977;9.0695;0.1437;0.4011;9.7675;0.7772;0.8966;-0.698;-0.6335;-0.0119;1.3224;0.3281;37.0;29.82;-29.1;10.86;219.71;-84.88;-27.3;3.1;997.98;61.049;23.024704;72.53761;;NaN;;;235.1613;;0 / 0;139538;2018-06-30 19:57:34:057
-0.328;9.3065;1.3528;0.4218;9.7737;0.6837;-0.4457;0.3804;-0.6789;0.1176;0.9235;0.0923;36.0;18.48;-30.12;26.34;182.82;-85.3;-31.67;3.1;997.97;63.914;23.024704;72.53761;;NaN;;;235.1613;;0 / 0;140038;2018-06-30 19:57:34:557
0.9457;10.5635;-1.2211;0.3605;9.7987;0.1607;0.5853;0.7649;-1.3818;-0.0181;-0.4045;0.1228;24.0;9.42;-27.18;29.82;147.76;-87.84;-49.92;3.1;997.97;64.794;23.024704;72.53761;;NaN;;;235.1613;;0 / 0;140539;2018-06-30 19:57:35:058
0.8524;10.0919;0.5124;0.8614;9.764;0.3031;-0.0521;0.0764;1.052;0.0956;0.8618;0.102;17.0;15.66;-28.08;26.88;150.82;-84.36;-62.16;3.1;997.98;62.45;23.024704;72.53761;;NaN;;;235.1613;;0 / 0;141039;2018-06-30 19:57:35:558
-0.158;10.2427;0.3352;-0.1728;9.7563;0.9768;0.0148;0.4864;-0.6416;0.0546;2.2907;-0.1173;19.0;-4.5;-29.1;28.5;181.99;-84.19;10.03;3.1;997.98;62.441;23.024704;72.53761;;NaN;;;235.1613;;0 / 0;141538;2018-06-30 19:57:36:057
-0.2538;9.7662;1.7718;-0.1849;9.7449;1.0827;-0.0689;0.0213;0.6891;0.3479;1.5051;-0.2254;20.0;-26.76;-27.84;9.06;123.27;-83.57;9.69;3.1;997.97;63.387;23.024704;72.53761;;NaN;;;235.1613;;0 / 0;142038;2018-06-30 19:57:36:557
-0.5243;10.9538;0.1269;-0.0506;9.8009;0.3305;-0.4737;1.1529;-0.2036;0.1029;2.3676;-0.0714;62.0;-27.66;-27.0;-12.18;77.21;-88.05;8.71;3.1;997.96;64.232;23.024704;72.53761;;NaN;;;235.1613;;0 / 0;142538;2018-06-30 19:57:37:057
-0.7518;8.7199;1.2546;-0.4177;9.7754;0.6606;-0.3341;-1.0555;0.594;-0.0352;2.582;-0.0366;23.0;3.12;-25.08;-34.68;29.07;-85.43;32.31;3.1;997.98;61.143;23.024704;72.53761;;NaN;;;235.1613;;0 / 0;143038;2018-06-30 19:57:37:557
0.6105;10.1182;1.6592;-1.2873;9.6842;0.8541;1.4501;0.1946;1.0398;-0.1225;1.7494;0.3177;37.0;36.12;-24.72;-7.8;336.23;-80.94;56.44;3.1;997.97;60.583;23.024704;72.53761;;NaN;;;235.1613;;0 / 0;143538;2018-06-30 19:57:38:057
-0.0072;9.8979;-0.4765;-0.3227;9.8013;0.0235;0.4759;-0.0279;-0.9836;-0.0785;1.5918;0.0434;32.0;31.98;-26.82;13.56;331.49;-88.11;85.83;3.1;997.98;60.35;23.024704;72.53761;;NaN;;;235.1613;;0 / 0;144038;2018-06-30 19:57:38:557
-0.905;9.6202;1.5036;-0.3807;9.7948;0.296;-0.7901;-0.0046;1.0472;-0.2056;1.1557;-0.058;25.0;19.14;-27.96;26.7;264.9;-87.18;52.14;3.1;997.98;60.986;23.024704;72.53761;;NaN;;;235.1613;;0 / 0;144538;2018-06-30 19:57:39:057
0.0958;10.1493;-0.2993;0.028;9.799;0.3863;-0.0113;0.2211;-0.8005;0.1829;-0.3391;0.2285;25.0;10.14;-29.46;29.1;194.36;-87.74;-4.15;3.1;997.98;60.221;23.024704;72.53761;;NaN;;;235.1613;;0 / 0;145038;2018-06-30 19:57:39:557
1.5419;9.601;0.5148;0.8765;9.7538;0.515;0.6654;-0.1528;-2.0E-4;-0.2545;-0.0624;-0.0104;21.0;15.9;-29.52;26.52;153.5;-84.05;-59.56;3.1;997.99;60.158;23.024704;72.53761;;NaN;;;235.1613;;0 / 0;145538;2018-06-30 19:57:40:057
0.2107;9.1916;1.269;0.2839;9.689;1.4873;0.0322;-0.5357;-0.0939;-0.2374;0.7012;-0.0549;20.0;11.22;-29.1;27.18;185.69;-81.95;-15.74;3.1;997.98;62.226;23.024704;72.53761;;NaN;;;235.1613;;0 / 0;146038;2018-06-30 19:57:40:557
-0.6776;9.6322;1.7239;-0.6489;9.6966;1.3137;-0.2442;0.005;0.3;0.2477;-0.3128;-0.0372;21.0;3.12;-30.12;28.02;209.03;-81.08;27.23;3.1;997.98;59.625;23.024704;72.53761;;NaN;;;235.1613;;0 / 0;146538;2018-06-30 19:57:41:057
0.9577;8.6769;0.1532;0.2819;9.7501;1.0131;0.0246;-0.6279;-0.1464;-0.0284;-0.2175;0.526;25.0;6.66;-30.12;28.92;178.21;-83.84;-15.55;3.1;997.97;64.063;23.024704;72.53761;;NaN;;;235.1613;;0 / 0;147038;2018-06-30 19:57:41:557
-1.3073;9.1318;3.5028;0.6389;9.7507;0.8287;-1.0746;-0.3843;1.8434;-0.4047;0.2009;-0.2437;35.0;5.52;-29.46;29.04;156.34;-83.88;-37.63;3.1;997.98;60.622;23.024704;72.53761;;NaN;;;235.1613;;0 / 0;147539;2018-06-30 19:57:42:058
0.0407;9.1725;0.4166;0.1337;9.7669;0.8722;0.0483;-0.2185;0.1477;-0.0016;-0.2304;-0.1258;43.0;4.8;-30.48;30.06;180.69;-84.84;-8.71;3.1;997.98;59.29;23.024704;72.53761;;NaN;;;235.1613;;0 / 0;148039;2018-06-30 19:57:42:558
1.0535;10.0991;-1.7526;-0.1234;9.784;0.654;1.1769;0.315;-2.4066;-0.475;0.0402;-0.0042;46.0;12.36;-31.44;27.72;208.23;-83.87;7.84;3.1;997.98;61.28;23.024704;72.53761;;NaN;;;235.1613;;0 / 0;148538;2018-06-30 19:57:43:057
-0.9721;9.4765;2.9378;0.5304;9.778;0.5279;0.0777;1.2356;1.512;-0.0113;0.4391;-0.1111;46.0;6.36;-31.8;26.52;149.86;-85.62;-45.14;3.1;997.99;59.865;23.024704;72.53761;;NaN;;;235.1613;;0 / 0;149039;2018-06-30 19:57:43:558
1.5371;10.5564;-0.5459;0.3806;9.7885;0.458;0.0432;0.2722;0.4207;0.0833;-0.3654;0.0721;32.0;2.64;-30.18;28.02;148.29;-86.52;-39.73;3.1;997.99;63.32;23.024704;72.53761;;NaN;;;235.1613;;0 / 0;149538;2018-06-30 19:57:44:057
0.9146;10.0583;1.2235;0.8588;9.728;0.8938;-0.0807;0.237;0.2746;-0.0565;0.003;0.0287;29.0;8.94;-30.6;27.3;155.52;-83.26;-45.81;3.1;998.0;62.148;23.024704;72.53761;;NaN;;;235.1613;;0 / 0;150038;2018-06-30 19:57:44:557
-0.5172;9.8237;3.3951;0.5946;9.7141;1.2053;-1.3584;-0.2208;2.1108;0.445;0.9284;0.1399;26.0;5.82;-31.2;28.32;165.92;-82.17;-28.1;3.1;997.97;62.619;23.024704;72.53761;;NaN;;;235.1613;;0 / 0;150538;2018-06-30 19:57:45:057
0.6824;9.3784;0.1173;0.2466;9.7447;1.0723;-0.2083;-0.522;0.1033;-0.0596;-0.1381;0.1613;27.0;4.56;-29.52;28.86;182.28;-82.92;-7.24;3.1;997.97;62.586;23.024704;72.53761;;NaN;;;235.1613;;0 / 0;151038;2018-06-30 19:57:45:557
1.5204;9.0863;2.2386;0.9865;9.6465;1.4634;0.2681;0.0072;0.9069;0.1353;0.1936;0.1527;30.0;2.52;-31.26;28.02;156.36;-79.63;-33.98;3.1;997.97;61.472;23.024704;72.53761;;NaN;;;235.1613;;0 / 0;151543;2018-06-30 19:57:46:062
1.5659;8.7032;-1.767;0.8047;9.7183;1.038;-2.1814;1.044;-0.9973;-0.0681;-0.807;0.3384;33.0;-1.56;-29.94;28.44;142.85;-82.3;-37.78;3.1;997.97;64.438;23.024704;72.53761;;NaN;;;235.1613;;0 / 0;152039;2018-06-30 19:57:46:558
0.6608;9.1078;5.708;0.7083;9.4054;2.6844;-0.5886;-0.5993;3.1743;-0.8543;-0.4161;-0.1338;50.0;3.0;-37.14;21.78;175.1;-73.55;-14.78;3.1;997.98;63.087;23.024704;72.53761;;NaN;;;235.1613;;0 / 0;152539;2018-06-30 19:57:47:058
0.4525;9.5556;2.2722;0.5009;9.2001;3.3583;0.4808;-0.7195;1.8181;0.5048;-0.1815;-0.022;56.0;3.54;-36.54;19.26;182.13;-69.74;-8.48;3.1;997.97;60.509;23.024704;72.53761;;NaN;;;235.1613;;0 / 0;153038;2018-06-30 19:57:47:557
0.8763;9.0863;2.3823;0.524;9.2312;3.2681;0.2637;-0.0228;0.6369;-0.3717;-0.4607;0.1912;52.0;3.18;-37.08;18.9;179.91;-70.27;-9.11;3.1;997.98;59.204;23.024704;72.53761;;NaN;;;235.1613;;0 / 0;153538;2018-06-30 19:57:48:057
0.5411;8.6553;3.1054;0.6544;9.241;3.2166;-0.1636;-0.8059;0.2312;0.0271;0.251;0.0953;54.0;1.26;-37.14;19.44;174.67;-70.44;-11.5;3.1;997.98;58.965;23.024704;72.53761;;NaN;;;235.1613;;0 / 0;154038;2018-06-30 19:57:48:557
0.85;9.5675;3.261;0.5598;9.219;3.2965;-0.2174;0.4634;0.0723;0.1591;-0.2829;0.0544;50.0;1.8;-36.54;20.1;177.49;-70.06;-9.64;3.1;997.97;63.087;23.024704;72.53761;;NaN;;;235.1613;;0 / 0;154539;2018-06-30 19:57:49:058
1.1708;8.6912;3.2442;1.1247;9.2595;3.0275;0.0461;-0.5683;0.2167;-0.0156;0.1013;0.2609;43.0;1.2;-35.46;21.12;168.17;-70.77;-20.38;3.1;997.97;60.825;23.024704;72.53761;;NaN;;;235.1613;;0 / 0;155039;2018-06-30 19:57:49:558
-0.2706;8.9163;3.2323;0.9999;9.4463;2.4368;-1.7134;-0.3815;1.0157;0.0827;2.3585;0.8021;58.0;-15.78;-30.96;21.18;132.94;-74.42;-22.31;3.1;997.97;61.918;23.024704;72.53761;;NaN;;;235.1613;;0 / 0;155539;2018-06-30 19:57:50:058
1.7071;9.3209;2.3368;0.6083;9.392;2.7551;1.0988;-0.0711;-0.4182;0.2825;1.1221;0.639;105.0;-28.86;-21.84;-13.5;70.58;-72.92;-7.6;3.1;997.98;61.532;23.024704;72.53761;;NaN;;;235.1613;;0 / 0;156039;2018-06-30 19:57:50:558
2.2482;9.3616;1.6999;1.6604;9.4503;2.026;0.4083;-0.0073;-0.7906;0.2336;1.2534;0.1851;45.0;-23.82;-17.88;-26.28;4.07;-74.51;-39.34;3.1;997.97;61.147;23.024704;72.53761;;NaN;;;235.1613;;0 / 0;156538;2018-06-30 19:57:51:057
1.2139;9.3544;1.5252;0.8321;9.573;1.9585;0.1113;-0.3119;0.4956;0.0742;0.5295;0.3372;41.0;-9.54;-18.96;-35.4;351.81;-77.47;-23.02;3.1;997.97;62.695;23.024704;72.53761;;NaN;;;235.1613;;0 / 0;157038;2018-06-30 19:57:51:557
0.7303;9.625;3.5004;1.0021;9.5565;1.9594;-0.6909;0.873;2.1563;-0.3363;0.3365;0.1564;39.0;-2.82;-18.96;-38.16;334.03;-77.03;-27.09;3.1;997.98;62.173;23.024704;72.53761;;NaN;;;235.1613;;0 / 0;157538;2018-06-30 19:57:52:057
1.0247;9.2874;3.0671;1.1444;9.5421;1.9519;-0.5889;0.2601;0.9404;-0.0278;1.5051;0.2071;38.0;6.12;-20.34;-40.38;315.67;-76.66;-30.38;3.1;997.97;60.445;23.024704;72.53761;;NaN;;;235.1613;;0 / 0;158038;2018-06-30 19:57:52:557
-0.2083;9.6322;1.7622;0.0304;9.4431;2.6453;-0.2387;0.1891;-0.8831;0.178;1.5613;0.1857;45.0;34.2;-24.6;-17.22;285.14;-74.35;-0.66;3.1;997.98;59.445;23.024704;72.53761;;NaN;;;235.1613;;0 / 0;158538;2018-06-30 19:57:53:057
0.7734;9.0839;3.6585;0.0391;9.3416;2.9839;0.7342;-0.2577;0.6746;0.0467;0.7782;0.179;54.0;29.94;-30.9;5.58;242.58;-72.28;-0.75;3.1;997.98;58.948;23.024704;72.53761;;NaN;;;235.1613;;0 / 0;159038;2018-06-30 19:57:53:557
0.7949;9.3401;2.1094;0.8199;9.4089;2.64;-0.025;-0.0689;-0.5307;0.0143;0.8301;0.3018;52.0;24.12;-32.46;12.48;216.75;-73.56;-16.01;3.1;997.99;60.284;23.024704;72.53761;;NaN;;;235.1613;;0 / 0;159538;2018-06-30 19:57:54:057
0.2083;9.3113;2.4206;0.6306;9.5146;2.2901;-1.1549;-0.5385;1.4186;0.5916;1.2443;0.5718;43.0;11.64;-34.02;22.56;189.71;-75.62;-15.0;3.1;997.98;61.796;23.024704;72.53761;;NaN;;;235.1613;;0 / 0;160038;2018-06-30 19:57:54:557
0.8045;9.5484;1.7143;0.6447;9.5778;2.0052;0.1598;-0.0294;-0.2908;0.197;-0.7252;-0.1667;39.0;1.98;-32.16;25.5;169.17;-77.6;-17.82;3.1;997.98;62.21;23.024704;72.53761;;NaN;;;235.1613;;0 / 0;160538;2018-06-30 19:57:55:057
0.9817;9.7854;2.8683;0.6746;9.6492;1.6147;0.3071;0.1362;1.2536;-0.1262;0.6071;0.0904;31.0;5.52;-31.26;27.0;171.43;-79.72;-22.67;3.1;997.97;62.202;23.024704;72.53761;;NaN;;;235.1613;;0 / 0;161038;2018-06-30 19:57:55:557
0.5435;9.7734;0.8308;0.7854;9.6673;1.4481;-0.2419;0.1061;-0.6173;-0.4909;0.3842;0.0513;45.0;-4.44;-30.42;27.3;148.32;-80.33;-28.47;3.1;997.97;59.71;23.024704;72.53761;;NaN;;;235.1613;;0 / 0;161538;2018-06-30 19:57:56:057
1.0702;9.3449;0.1365;0.5674;9.7558;0.8205;-0.656;0.1302;-0.2482;-0.0449;-0.1522;0.0513;46.0;-4.38;-29.46;28.56;140.98;-84.16;-34.66;3.1;997.97;61.256;23.024704;72.53761;;NaN;;;235.1613;;0 / 0;162038;2018-06-30 19:57:56:557
0.3472;9.7878;0.8883;0.792;9.672;1.4128;0.2423;-0.1379;-0.5222;0.0369;0.2907;0.0813;37.0;-3.06;-31.74;26.94;149.69;-80.49;-29.27;3.1;997.98;60.544;23.024704;72.53761;;NaN;;;235.1613;;0 / 0;162538;2018-06-30 19:57:57:057
2.1764;8.5164;-0.2466;0.6905;9.3662;2.8228;0.6;-0.4092;-1.7022;0.3271;-0.311;0.0727;50.0;-6.54;-35.46;21.96;157.61;-72.76;-13.75;3.1;997.98;61.569;23.024704;72.53761;;NaN;;;235.1613;;0 / 0;163039;2018-06-30 19:57:57:558
1.5778;10.3481;1.6568;1.0763;9.5707;1.8478;-0.3724;0.7056;0.3909;0.1249;-0.4833;0.0813;49.0;-6.18;-33.0;23.64;144.82;-77.41;-30.22;3.1;997.97;59.845;23.024704;72.53761;;NaN;;;235.1613;;0 / 0;163538;2018-06-30 19:57:58:057
0.5842;9.5292;2.0303;1.145;9.6277;1.4717;-0.5608;-0.0985;0.5587;0.1096;0.0384;0.0263;45.0;-1.32;-31.62;26.94;146.66;-79.04;-37.88;3.1;997.98;62.95;23.024704;72.53761;;NaN;;;235.1613;;0 / 0;164039;2018-06-30 19:57:58:558
0.182;9.6034;2.1381;0.9095;9.5573;2.0004;-0.7275;0.0462;0.1377;-0.3351;0.6218;-0.0146;43.0;-10.44;-31.2;25.2;136.62;-78.29;-30.3;3.1;997.98;62.075;23.024704;72.53761;;NaN;;;235.1613;;0 / 0;164538;2018-06-30 19:57:59:057
0.1317;9.3832;1.6329;0.8599;9.757;0.4802;-0.8623;-0.508;0.8079;0.6166;1.017;0.3665;33.0;-20.28;-25.98;21.48;80.75;-84.24;-60.82;3.1;997.97;62.377;23.024704;72.53761;;NaN;;;235.1613;;0 / 0;165038;2018-06-30 19:57:59:557
1.3887;10.1876;1.6904;0.6032;9.7208;1.1456;0.7854;0.4669;0.5447;0.2049;2.1074;0.146;63.0;-31.08;-22.86;0.36;67.65;-82.41;-27.77;3.1;997.97;60.568;23.024704;72.53761;;NaN;;;235.1613;;0 / 0;165538;2018-06-30 19:58:00:057
1.1756;10.1062;-0.8811;0.7934;9.7542;0.6287;1.0311;-0.0598;-1.3039;0.4425;0.9107;0.1405;38.0;-19.14;-23.64;-25.56;343.19;-84.08;-51.61;3.1;997.99;61.31;23.024704;72.53761;;NaN;;;235.1613;;0 / 0;166038;2018-06-30 19:58:00:557
1.8316;8.9737;-0.8021;1.2906;9.7169;0.293;0.0525;-1.337;-0.7072;0.1957;0.4868;0.1002;34.0;-10.8;-25.02;-36.0;294.88;-82.24;-77.21;3.1;997.98;64.173;23.024704;72.53761;;NaN;;;235.1613;;0 / 0;166539;2018-06-30 19:58:01:058
-0.0287;9.5244;1.6999;0.9512;9.7299;0.7707;-0.7238;0.3548;-0.1362;-0.2025;1.097;-0.0916;39.0;3.36;-24.66;-40.92;300.87;-82.83;-50.98;3.1;997.97;62.067;23.024704;72.53761;;NaN;;;235.1613;;0 / 0;167038;2018-06-30 19:58:01:557
0.1053;10.0727;0.9218;0.2;9.7434;1.0938;0.025;0.224;-0.2845;0.1121;1.0738;0.1949;41.0;18.72;-24.48;-32.76;316.7;-83.49;-10.36;3.1;997.99;62.413;23.024704;72.53761;;NaN;;;235.1613;;0 / 0;167538;2018-06-30 19:58:02:057
-0.0072;10.2212;1.4222;0.2251;9.7824;0.6517;-0.0791;0.3071;0.4832;0.5653;1.7189;-0.1942;46.0;31.44;-28.32;-16.8;268.59;-83.91;-25.32;3.1;997.99;60.083;23.024704;72.53761;;NaN;;;235.1613;;0 / 0;168038;2018-06-30 19:58:02:557
0.6608;10.372;-0.984;0.0029;9.7841;0.6645;0.2245;0.8178;-1.6414;0.0314;1.3579;0.0312;44.0;32.28;-28.8;10.02;249.29;-86.11;-0.25;3.1;997.99;59.849;23.024704;72.53761;;NaN;;;235.1613;;0 / 0;168538;2018-06-30 19:58:03:057
1.7478;9.1533;1.3288;0.7023;9.7747;0.3628;0.3799;-0.473;0.9637;0.0326;-0.0288;0.1387;41.0;24.54;-30.12;19.14;170.76;-85.38;-62.68;3.1;997.98;60.202;23.024704;72.53761;;NaN;;;235.1613;;0 / 0;169038;2018-06-30 19:58:03:557
1.0918;9.4095;2.4805;0.9657;9.5848;1.8355;0.2028;-0.307;1.0424;-0.3925;0.7782;0.2034;37.0;17.1;-33.66;20.04;190.09;-77.79;-27.75;3.1;997.98;61.63;23.024704;72.53761;;NaN;;;235.1613;;0 / 0;169538;2018-06-30 19:58:04:057
0.8045;8.775;3.249;0.2151;9.4139;2.7392;0.0914;-0.4976;1.0797;-0.3998;0.328;0.212;38.0;6.36;-34.56;22.56;187.38;-73.73;-4.49;3.1;997.99;61.062;23.024704;72.53761;;NaN;;;235.1613;;0 / 0;170038;2018-06-30 19:58:04:557
1.7837;8.5308;2.9019;0.2741;9.5936;2.0143;-0.5973;0.0361;0.2172;-0.2123;-0.3721;0.0348;33.0;8.76;-26.04;29.04;188.21;-78.04;-7.75;3.1;997.99;61.755;23.024704;72.53761;;NaN;;;235.1613;;0 / 0;170538;2018-06-30 19:58:05:057
1.1923;9.3185;2.8037;0.5526;9.4381;2.6053;0.3955;0.1606;-0.1129;-0.3485;0.1416;0.2804;33.0;9.3;-32.34;22.86;187.15;-74.24;-11.98;3.1;997.97;63.267;23.024704;72.53761;;NaN;;;235.1613;;0 / 0;171038;2018-06-30 19:58:05:557
1.1014;6.7064;2.4853;-0.0543;8.9672;3.9694;0.9905;-1.3989;-1.4506;-1.3168;1.1581;-0.1802;41.0;4.56;-37.5;18.54;189.25;-66.12;0.78;3.1;997.98;62.067;23.024704;72.53761;;NaN;;;235.1613;;0 / 0;171538;2018-06-30 19:58:06:057
3.4693;4.5683;9.3377;1.7185;5.7609;7.7478;0.9344;-0.4049;1.3887;-0.9985;1.3188;-0.5345;177.0;-0.24;-42.6;-1.08;180.51;-38.62;-17.2;3.1;997.99;63.267;23.024704;72.53761;;NaN;;;235.1613;;0 / 0;172038;2018-06-30 19:58:06:557
0.8476;4.8269;8.5763;0.0131;4.5827;8.67;-0.1831;0.6201;-0.1344;0.2581;0.0384;0.0;315.0;4.14;-40.2;-8.52;187.41;-27.43;-0.52;3.1;997.99;60.129;23.024704;72.53761;;NaN;;;235.1613;;0 / 0;172542;2018-06-30 19:58:07:061
-0.6919;6.0575;7.5587;-0.2159;5.9934;7.7591;-0.0786;-0.0125;0.0295;0.0485;-0.0398;0.0764;302.0;2.1;-42.78;-2.46;183.37;-37.1;1.48;3.1;997.98;60.278;23.024704;72.53761;;NaN;;;235.1613;;0 / 0;173038;2018-06-30 19:58:07:557
1.3049;5.4925;6.8045;0.4331;6.1594;7.6187;0.7137;-0.5592;-0.7759;-0.1146;-0.3538;-0.0177;330.0;3.18;-42.0;0.48;185.22;-38.91;-3.25;3.1;997.99;60.114;23.024704;72.53761;;NaN;;;235.1613;;0 / 0;173538;2018-06-30 19:58:08:057
0.2131;5.7606;7.4534;0.1847;6.1454;7.6401;0.3014;-0.1477;-0.9696;0.0565;-0.1271;-0.033;140.0;3.12;-41.34;0.9;185.21;-38.8;-1.38;3.1;998.0;61.523;23.024704;72.53761;;NaN;;;235.1613;;0 / 0;174038;2018-06-30 19:58:08:557
-0.1149;6.3807;7.0631;0.2885;6.2302;7.5678;-0.4034;0.1506;-0.5047;0.208;-0.5511;-0.4752;115.0;5.22;-41.04;2.22;188.47;-39.44;-2.18;3.1;998.0;62.221;23.024704;72.53761;;NaN;;;235.1613;;0 / 0;174538;2018-06-30 19:58:09:057
0.0623;6.9266;7.4414;0.2888;6.6512;7.2006;-0.217;-0.0957;0.9447;0.1304;-0.0251;-0.1447;70.0;14.82;-39.18;3.54;205.01;-42.71;-2.3;3.1;997.98;62.039;23.024704;72.53761;;NaN;;;235.1613;;0 / 0;175038;2018-06-30 19:58:09:557
-1.6401;7.5108;8.6864;-0.1837;6.8899;6.9761;-0.8746;1.0879;-0.004;0.0186;0.6206;0.2682;84.0;7.8;-40.5;6.96;193.83;-44.63;1.51;3.1;997.99;61.483;23.024704;72.53761;;NaN;;;235.1613;;0 / 0;175538;2018-06-30 19:58:10:057
-0.3472;7.0033;6.7112;-0.3609;7.1922;6.6568;0.0065;-0.232;-0.8052;-0.0474;-0.1143;0.0281;96.0;4.86;-41.22;8.16;189.19;-47.17;3.1;3.1;997.99;60.197;23.024704;72.53761;;NaN;;;235.1613;;0 / 0;176038;2018-06-30 19:58:10:557
-0.328;5.4206;9.7567;-1.1878;5.5963;7.965;0.8598;-0.1757;1.7917;-1.1164;-0.0575;0.1185;318.0;-0.42;-41.16;-1.74;179.48;-34.8;8.48;3.1;998.0;61.798;23.024704;72.53761;;NaN;;;235.1613;;0 / 0;176538;2018-06-30 19:58:11:057
-0.8141;5.3177;9.7255;0.162;4.1939;8.8632;-0.976;1.1238;0.8624;0.0449;0.601;-0.1985;374.0;0.66;-41.52;-8.34;182.43;-24.51;-3.47;3.1;998.01;61.511;23.024704;72.53761;;NaN;;;235.1613;;0 / 0;177038;2018-06-30 19:58:11:557
-0.6393;5.198;8.6745;-0.2411;4.8379;8.5268;-0.3981;0.3601;0.1476;-0.249;-0.2218;0.1876;336.0;1.32;-41.76;-6.54;181.26;-30.25;2.27;3.1;998.01;58.737;23.024704;72.53761;;NaN;;;235.1613;;0 / 0;177538;2018-06-30 19:58:12:057
0.0575;6.261;7.676;0.1942;5.8328;7.8811;-0.0338;0.2774;-0.035;0.6594;0.1025;-0.3683;320.0;1.8;-41.88;-0.66;183.49;-36.5;-1.41;3.1;998.0;59.025;23.024704;72.53761;;NaN;;;235.1613;;0 / 0;178038;2018-06-30 19:58:12:557
-1.0583;5.9522;7.3145;-0.5069;6.7585;7.0878;-0.5514;-0.8063;0.2267;0.4169;-0.005;0.2743;233.0;2.88;-41.64;4.8;185.67;-43.56;4.09;3.1;998.0;60.71;23.024704;72.53761;;NaN;;;235.1613;;0 / 0;178538;2018-06-30 19:58:13:057
-1.6377;9.0192;5.7678;-0.7174;7.3734;6.4257;-0.2547;0.7336;0.4387;0.7144;-0.3733;-0.3262;97.0;5.28;-40.32;9.18;190.35;-48.75;6.37;3.1;998.0;62.523;23.024704;72.53761;;NaN;;;235.1613;;0 / 0;179042;2018-06-30 19:58:13:561
-1.7957;9.0528;4.087;-0.826;8.7895;4.2699;-0.7231;-0.0863;0.0398;1.0613;0.6364;0.2108;59.0;5.76;-36.96;20.64;196.26;-63.67;10.95;3.1;997.99;60.889;23.024704;72.53761;;NaN;;;235.1613;;0 / 0;179538;2018-06-30 19:58:14:057
-0.9721;8.1717;2.6098;-0.5493;9.0368;3.7689;-0.2576;-1.289;-0.8502;-0.8965;1.5582;1.2438;69.0;-8.64;-32.1;15.3;166.13;-67.15;8.29;3.1;997.97;61.017;23.024704;72.53761;;NaN;;;235.1613;;0 / 0;180038;2018-06-30 19:58:14:557
-0.5363;8.3417;6.1437;-0.4517;8.9949;3.8804;-0.0846;-0.6533;2.2633;-0.2184;1.5906;0.7514;43.0;-28.62;-22.26;-13.62;88.28;-66.52;6.64;3.1;997.99;61.522;23.024704;72.53761;;NaN;;;235.1613;;0 / 0;180538;2018-06-30 19:58:15:057
0.9146;9.3329;3.7853;0.0576;9.0256;3.8348;0.9744;-0.0423;-0.2769;-0.4273;1.2778;0.1833;85.0;-19.74;-14.76;-30.42;41.6;-66.98;-0.86;3.1;997.97;61.919;23.024704;72.53761;;NaN;;;235.1613;;0 / 0;181038;2018-06-30 19:58:15:557
-0.6752;8.0735;5.1309;0.0284;8.9694;3.9647;-0.7036;-0.8959;1.1662;0.5128;0.7543;0.3556;94.0;-8.04;-12.36;-37.5;14.91;-66.15;-0.41;3.1;997.97;61.473;23.024704;72.53761;;NaN;;;235.1613;;0 / 0;181539;2018-06-30 19:58:16:058
-0.85;9.4071;3.9242;0.2812;9.0305;3.8132;-0.5638;0.0174;1.2076;0.8579;-0.6317;0.0935;42.0;-2.64;-11.94;-39.78;0.09;-67.05;-4.22;3.1;997.99;60.784;23.024704;72.53761;;NaN;;;235.1613;;0 / 0;182039;2018-06-30 19:58:16:558
1.0894;8.7894;0.2442;0.7342;9.7285;0.9938;0.3551;-0.9391;-0.7496;0.1536;1.6529;0.2358;36.0;-4.38;-24.6;-33.9;327.18;-82.76;-36.46;3.1;997.99;60.811;23.024704;72.53761;;NaN;;;235.1613;;0 / 0;182538;2018-06-30 19:58:17:057
0.0144;10.0105;3.2131;-0.1287;9.3531;2.9451;-0.0844;0.473;0.4141;-0.4414;1.6572;0.3006;54.0;30.9;-21.24;-22.56;299.41;-72.51;2.5;3.1;997.97;58.312;23.024704;72.53761;;NaN;;;235.1613;;0 / 0;183038;2018-06-30 19:58:17:557
-0.6584;10.0536;2.3105;-0.1489;9.5615;2.1739;-0.5406;-0.1376;-0.5649;-0.0553;0.8967;0.0935;58.0;35.04;-27.06;-1.8;267.17;-77.16;3.92;3.1;997.99;58.599;23.024704;72.53761;;NaN;;;235.1613;;0 / 0;183538;2018-06-30 19:58:18:057
0.6943;9.4143;0.9026;0.4181;9.7072;1.3291;0.4702;-0.6831;-1.2764;0.2361;1.2809;0.2835;40.0;28.26;-29.94;11.28;225.55;-81.83;-17.46;3.1;997.98;61.18;23.024704;72.53761;;NaN;;;235.1613;;0 / 0;184038;2018-06-30 19:58:18:557
-1.1301;9.8524;3.3927;-0.1305;9.5935;2.0294;-0.9996;0.259;1.3633;-0.1024;0.7055;-0.0666;38.0;17.46;-30.9;22.68;206.95;-78.36;-4.28;3.1;997.98;63.034;23.024704;72.53761;;NaN;;;235.1613;;0 / 0;184538;2018-06-30 19:58:19:057
-2.0471;10.7575;1.9058;-0.4782;9.7673;0.7357;-1.5689;0.9902;1.1702;0.1524;-0.6164;-0.0385;25.0;10.5;-26.46;28.32;231.13;-84.87;33.03;3.1;997.99;65.161;23.024704;72.53761;;NaN;;;235.1613;;0 / 0;185038;2018-06-30 19:58:19:557
0.6417;9.2012;0.9553;0.4157;9.7217;1.2186;0.1517;-0.5229;0.4861;0.1066;0.5271;-0.0122;28.0;15.12;-29.7;25.74;189.93;-82.46;-18.84;3.1;997.98;64.395;23.024704;72.53761;;NaN;;;235.1613;;0 / 0;185538;2018-06-30 19:58:20:057
0.2442;9.1437;0.328;-0.4831;9.5766;2.0554;0.4688;-0.7011;-1.8495;-0.5196;-0.1998;0.1515;32.0;7.68;-31.98;25.44;205.08;-77.57;13.23;3.1;997.99;60.982;23.024704;72.53761;;NaN;;;235.1613;;0 / 0;186038;2018-06-30 19:58:20:557
0.2753;9.6489;1.6497;-0.2273;9.5143;2.3658;0.1914;0.9942;-1.6164;-0.3039;0.0201;0.1363;42.0;8.64;-33.66;25.08;199.79;-75.97;5.49;3.1;997.99;64.434;23.024704;72.53761;;NaN;;;235.1613;;0 / 0;186538;2018-06-30 19:58:21:057
0.486;8.9905;2.0423;0.0373;9.4111;2.7569;-0.169;0.2738;-0.2094;0.0809;0.0769;0.0947;49.0;6.9;-34.74;22.86;191.8;-73.67;-0.78;3.1;997.99;61.306;23.024704;72.53761;;NaN;;;235.1613;;0 / 0;187038;2018-06-30 19:58:21:557
0.9218;8.6122;1.1085;0.2188;9.3619;2.9114;0.1404;-0.7785;-1.7909;0.244;-0.2792;0.1717;55.0;3.66;-36.06;22.38;184.19;-72.68;-4.3;3.1;997.98;59.245;23.024704;72.53761;;NaN;;;235.1613;;0 / 0;187538;2018-06-30 19:58:22:057
1.846;8.2195;0.2131;0.5854;9.5971;1.9297;-0.5495;-1.1309;1.688;0.693;-0.4124;-0.226;45.0;3.78;-33.3;25.14;173.75;-78.13;-16.88;3.1;997.98;61.359;23.024704;72.53761;;NaN;;;235.1613;;0 / 0;188038;2018-06-30 19:58:22:557
-0.0623;10.0631;2.0351;0.0166;9.6173;1.9177;-0.0789;0.4459;0.1174;0.255;0.3176;-0.0281;41.0;6.06;-33.06;25.32;188.67;-78.21;-2.74;3.1;997.97;63.135;23.024704;72.53761;;NaN;;;235.1613;;0 / 0;188538;2018-06-30 19:58:23:057
0.1604;8.7439;0.7231;0.3095;9.6237;1.8598;-0.446;-0.1448;-1.3881;0.3246;-0.5688;-0.5064;36.0;5.76;-31.98;26.16;182.02;-78.15;-10.52;3.1;997.98;63.189;23.024704;72.53761;;NaN;;;235.1613;;0 / 0;189038;2018-06-30 19:58:23:557
0.9194;9.8836;0.9864;0.2213;9.7209;1.2745;0.3318;-0.0696;-0.4029;-0.4182;-0.6213;0.2645;27.0;18.48;-29.1;24.72;203.27;-82.42;-9.85;3.1;997.98;63.786;23.024704;72.53761;;NaN;;;235.1613;;0 / 0;189538;2018-06-30 19:58:24:057
-0.5411;8.1429;4.9921;0.7283;8.7908;4.2851;-0.884;-0.667;-0.234;-1.1042;0.3701;0.3849;46.0;14.4;-36.48;16.92;198.32;-63.69;-9.65;3.1;997.97;62.087;23.024704;72.53761;;NaN;;;235.1613;;0 / 0;190038;2018-06-30 19:58:24:557
-0.5746;7.7072;6.9913;0.3332;7.4316;6.3898;-0.7953;0.4312;0.9366;0.2593;0.0683;0.066;78.0;8.22;-40.56;8.34;192.88;-49.27;-2.98;3.1;997.97;61.574;23.024704;72.53761;;NaN;;;235.1613;;0 / 0;190538;2018-06-30 19:58:25:057
1.7718;7.4725;4.8388;0.9846;7.7066;5.9841;0.7225;-0.4711;0.0662;0.0094;-0.0557;0.1815;175.0;4.14;-40.98;8.64;184.33;-51.8;-9.34;3.1;997.99;64.172;23.024704;72.53761;;NaN;;;235.1613;;0 / 0;191038;2018-06-30 19:58:25:557
0.5172;5.5475;7.293;1.0941;7.2361;6.5278;-1.3958;-1.9544;0.7939;-0.5031;0.7611;0.1332;150.0;1.5;-41.64;5.46;182.04;-47.55;-9.51;3.1;997.99;61.216;23.024704;72.53761;;NaN;;;235.1613;;0 / 0;191538;2018-06-30 19:58:26:057
0.4717;8.0759;5.4661;0.6784;6.6487;7.1767;-0.2403;1.1878;-1.7034;0.2232;0.028;-0.2742;228.0;-1.08;-41.82;1.5;177.89;-42.69;-5.4;3.1;997.99;59.184;23.024704;72.53761;;NaN;;;235.1613;;0 / 0;192039;2018-06-30 19:58:26:558
0.9122;6.5364;6.0815;1.1258;8.0929;5.423;-0.2136;-1.5565;0.6585;-0.2203;-0.7472;-0.0207;202.0;0.9;-39.78;12.48;177.45;-55.93;-11.63;3.1;998.0;60.292;23.024704;72.53761;;NaN;;;235.1613;;0 / 0;192538;2018-06-30 19:58:27:057
-0.1676;8.4278;5.4996;0.1619;8.2853;5.2439;-0.4636;0.0276;1.3691;0.1622;0.4605;-0.1716;213.0;3.84;-39.72;12.3;185.75;-56.74;-3.59;3.1;997.99;62.98;23.024704;72.53761;;NaN;;;235.1613;;0 / 0;193038;2018-06-30 19:58:27:557
0.486;8.8325;2.6074;0.2269;9.3182;3.0481;0.2592;-0.4857;-0.4407;0.7834;-0.4949;-0.3054;41.0;5.52;-36.06;21.54;188.29;-69.74;-2.94;3.1;998.0;63.855;23.024704;72.53761;;NaN;;;235.1613;;0 / 0;193539;2018-06-30 19:58:28:058
-0.0838;10.3457;3.9697;0.71;9.5688;2.0256;-0.9614;0.9372;1.6113;-0.3656;0.0323;-0.2944;27.0;14.64;-30.66;22.92;191.29;-77.36;-19.32;3.1;997.99;64.565;23.024704;72.53761;;NaN;;;235.1613;;0 / 0;194038;2018-06-30 19:58:28:557
0.7805;10.056;1.6137;0.841;9.3261;2.9133;-0.1251;0.4354;-1.0961;-0.015;0.8246;0.1644;36.0;10.56;-34.92;22.44;187.52;-71.99;-16.1;3.1;997.98;61.198;23.024704;72.53761;;NaN;;;235.1613;;0 / 0;194538;2018-06-30 19:58:29:057
-0.012;8.9522;2.9378;0.0494;9.3158;3.0633;-0.0182;-0.2918;0.1738;0.2581;-0.0343;0.0507;47.0;5.1;-35.22;22.2;188.28;-71.8;-0.92;3.1;997.99;61.579;23.024704;72.53761;;NaN;;;235.1613;;0 / 0;195038;2018-06-30 19:58:29:557
1.8891;8.4183;1.7215;0.4161;9.2542;3.2181;1.4179;-0.8456;-1.6833;-0.5953;-0.0832;0.1063;44.0;4.5;-36.12;21.6;183.69;-70.68;-7.37;3.1;998.0;62.083;23.024704;72.53761;;NaN;;;235.1613;;0 / 0;195538;2018-06-30 19:58:30:057
-0.9433;8.605;5.9186;0.0714;9.0906;3.6779;0.9294;-0.2725;-0.8526;-0.6112;0.4245;-0.1661;46.0;2.76;-37.92;19.08;184.71;-67.97;-1.11;3.1;998.01;60.014;23.024704;72.53761;;NaN;;;235.1613;;0 / 0;196038;2018-06-30 19:58:30:557
-0.8691;8.6338;1.4366;-0.5767;9.2583;3.1815;-0.2924;-0.6245;-1.745;0.1017;0.1978;0.1027;50.0;1.02;-37.02;20.52;188.53;-70.75;10.27;3.1;998.0;60.497;23.024704;72.53761;;NaN;;;235.1613;;0 / 0;196538;2018-06-30 19:58:31:057
0.4693;9.1892;1.8939;-0.0972;9.3379;2.9939;0.5665;-0.1487;-1.1;0.3167;-0.1339;-0.2315;47.0;-1.44;-36.3;21.06;179.41;-72.21;1.86;3.1;998.01;60.221;23.024704;72.53761;;NaN;;;235.1613;;0 / 0;197038;2018-06-30 19:58:31:557
0.4956;9.5053;2.095;-0.1872;9.1801;3.4438;0.6828;0.3251;-1.3488;0.2568;0.2363;0.0452;47.0;-4.8;-36.0;19.2;172.64;-69.41;3.11;3.1;997.99;64.798;23.024704;72.53761;;NaN;;;235.1613;;0 / 0;197538;2018-06-30 19:58:32:057
-1.8795;9.7255;6.4167;-1.2747;8.6297;4.4804;-0.0254;0.5428;1.4334;-0.0859;0.1532;-0.4581;43.0;-8.94;-38.82;13.26;170.86;-61.64;15.88;3.1;998.01;64.755;23.024704;72.53761;;NaN;;;235.1613;;0 / 0;198038;2018-06-30 19:58:32:557
0.17;9.2371;1.3983;-0.7805;9.2195;3.25;0.9505;0.0176;-1.8517;0.3222;-0.1357;-0.0299;45.0;-4.86;-35.58;19.68;179.65;-70.07;13.5;3.1;998.0;58.206;23.024704;72.53761;;NaN;;;235.1613;;0 / 0;198538;2018-06-30 19:58:33:057
1.3599;8.787;4.2858;-0.3947;9.3802;2.8329;1.0819;-0.2964;-0.1466;-0.5501;0.4764;0.4362;54.0;-11.46;-34.02;19.74;164.98;-73.04;7.93;3.1;998.0;52.825;23.024704;72.53761;;NaN;;;235.1613;;0 / 0;199038;2018-06-30 19:58:33:557
-0.2682;11.8181;-1.3145;-0.8515;9.227;3.2104;0.1979;1.1162;-1.8624;0.2422;-0.1369;-0.2663;48.0;-9.12;-36.36;17.82;172.43;-70.2;14.85;3.1;997.99;56.35;23.024704;72.53761;;NaN;;;235.1613;;0 / 0;199538;2018-06-30 19:58:34:057
0.0;9.4502;2.8779;-0.0866;9.4245;2.7095;-0.5144;-0.6447;0.4294;-0.0321;-0.837;0.0782;49.0;-3.18;-36.36;20.46;175.39;-73.95;1.83;3.1;998.01;57.734;23.024704;72.53761;;NaN;;;235.1613;;0 / 0;200038;2018-06-30 19:58:34:557
0.4501;9.8764;2.7151;0.2618;9.5033;2.406;0.1883;0.3731;0.3091;0.1731;0.1233;0.0568;46.0;1.62;-35.76;22.68;179.08;-75.71;-6.21;3.1;998.02;58.533;23.024704;72.53761;;NaN;;;235.1613;;0 / 0;200538;2018-06-30 19:58:35:057
0.8548;8.7391;2.3248;0.9207;9.4538;2.4388;-0.0659;-0.7147;-0.114;-0.1011;-0.5254;0.0568;49.0;-0.96;-33.42;23.58;162.62;-74.58;-20.68;3.1;998.01;59.758;23.024704;72.53761;;NaN;;;235.1613;;0 / 0;201038;2018-06-30 19:58:35:557
1.3647;8.9522;2.6792;0.998;9.569;1.8997;0.5272;-0.5833;0.3844;-0.0364;-0.5908;0.0031;41.0;3.3;-33.3;24.72;163.44;-77.36;-27.71;3.1;998.0;61.103;23.024704;72.53761;;NaN;;;235.1613;;0 / 0;201538;2018-06-30 19:58:36:057
-0.0455;10.6018;-0.2203;0.6964;9.6067;1.8429;-0.7419;0.9951;-2.0632;0.9887;1.8881;-0.1289;37.0;2.34;-32.46;25.38;166.94;-78.41;-20.7;3.1;998.0;58.727;23.024704;72.53761;;NaN;;;235.1613;;0 / 0;202038;2018-06-30 19:58:36:557
0.8763;9.7686;2.016;-0.1915;9.6862;1.5204;1.1803;-0.3341;0.9074;1.1731;2.874;0.0239;34.0;-28.74;-26.04;7.92;117.39;-79.41;4.16;3.1;998.0;57.024;23.024704;72.53761;;NaN;;;235.1613;;0 / 0;202538;2018-06-30 19:58:37:057
-0.5148;9.7926;0.4477;0.02;9.8066;0.0099;-0.3409;1.0873;0.5672;0.0302;1.5485;-0.248;46.0;-25.92;-25.98;-13.02;359.61;-89.87;-63.82;3.1;997.99;60.76;23.024704;72.53761;;NaN;;;235.1613;;0 / 0;203038;2018-06-30 19:58:37:557
1.4078;10.4845;0.0096;0.1893;9.8037;0.1492;0.7325;0.5324;0.5978;-0.0199;0.951;-0.1325;35.0;-16.32;-26.22;-27.48;338.47;-88.59;-51.75;3.1;997.99;63.672;23.024704;72.53761;;NaN;;;235.1613;;0 / 0;203538;2018-06-30 19:58:38:057
0.3304;10.2882;0.7446;0.2698;9.7723;0.7746;0.4269;0.2573;-0.3149;-0.0248;0.6572;-0.2333;35.0;-5.88;-24.0;-33.96;350.2;-85.2;-19.21;3.1;998.02;59.366;23.024704;72.53761;;NaN;;;235.1613;;0 / 0;204039;2018-06-30 19:58:38:558
-2.3991;10.4821;2.8276;-0.074;9.7781;0.7443;-1.9803;0.8382;1.4201;-0.3217;1.3713;-0.2181;33.0;-2.64;-24.9;-34.8;11.22;-85.63;5.68;3.1;998.01;61.499;23.024704;72.53761;;NaN;;;235.1613;;0 / 0;204538;2018-06-30 19:58:39:057
-0.7015;9.9338;1.4294;-0.4595;9.6974;1.3856;-0.4192;0.0545;0.47;-0.1903;2.2552;0.2786;43.0;30.9;-24.72;-21.72;319.75;-81.44;18.35;3.1;998.01;54.976;23.024704;72.53761;;NaN;;;235.1613;;0 / 0;205038;2018-06-30 19:58:39:557
-0.5315;10.5564;1.8244;-0.223;9.7377;1.1394;-0.4785;1.0797;1.1089;0.2874;0.4379;0.168;46.0;31.98;-28.32;3.66;268.03;-83.2;11.08;3.1;998.01;45.659;23.024704;72.53761;;NaN;;;235.1613;;0 / 0;205539;2018-06-30 19:58:40:058
1.937;9.5532;0.0623;0.2486;9.796;0.3831;1.3053;-0.7983;0.0695;-0.1671;1.3353;0.3647;37.0;28.5;-28.5;15.3;208.6;-87.33;-32.98;3.1;998.01;63.512;23.024704;72.53761;;NaN;;;235.1613;;0 / 0;206038;2018-06-30 19:58:40:557
0.4334;9.0264;0.9266;0.4289;9.7967;0.1;0.0045;-0.7703;0.8266;-0.4976;0.9926;0.2199;32.0;12.84;-26.7;30.0;128.19;-87.43;-76.88;3.1;997.99;58.751;23.024704;72.53761;;NaN;;;235.1613;;0 / 0;206538;2018-06-30 19:58:41:057
-1.0535;9.3329;1.3695;-0.1737;9.787;0.5954;-0.6906;-1.0671;0.1468;0.55;0.2186;-0.0433;29.0;5.28;-26.1;31.98;204.01;-86.37;16.27;3.1;998.0;52.456;23.024704;72.53761;;NaN;;;235.1613;;0 / 0;207038;2018-06-30 19:58:41:557
1.6975;9.0288;-1.1588;0.5877;9.7807;0.4037;0.5113;-1.1709;-1.1052;0.1383;-0.4179;0.0526;33.0;6.06;-27.36;30.9;137.76;-85.83;-55.52;3.1;998.01;63.026;23.024704;72.53761;;NaN;;;235.1613;;0 / 0;207538;2018-06-30 19:58:42:057
0.5507;10.3959;1.585;0.2101;9.7432;1.0935;1.2049;-0.0703;-0.8397;-0.7151;-0.1039;0.2377;45.0;4.2;-31.44;29.04;177.29;-83.48;-10.88;3.1;998.0;62.182;23.024704;72.53761;;NaN;;;235.1613;;0 / 0;208038;2018-06-30 19:58:42:557
0.0838;10.1613;0.5483;0.3271;9.7492;1.0082;-0.2433;0.4121;-0.4599;0.087;-0.1192;-0.0867;47.0;3.6;-31.26;28.32;168.24;-83.83;-21.2;3.1;998.01;56.248;23.024704;72.53761;;NaN;;;235.1613;;0 / 0;208538;2018-06-30 19:58:43:057
-0.6776;9.3856;1.1229;0.1006;9.7897;0.567;-0.7782;-0.4042;0.5559;0.0736;-0.1876;0.2144;44.0;7.14;-30.12;27.96;183.75;-86.63;-10.06;3.1;998.01;50.949;23.024704;72.53761;;NaN;;;235.1613;;0 / 0;209038;2018-06-30 19:58:43:557
-0.4597;10.5995;1.4198;0.4782;9.7587;0.8423;-0.3873;0.3667;0.429;0.0888;0.4159;0.1179;38.0;4.98;-31.08;27.54;162.33;-84.33;-29.59;3.1;998.02;59.722;23.024704;72.53761;;NaN;;;235.1613;;0 / 0;209538;2018-06-30 19:58:44:057
0.601;10.5707;1.6257;0.6449;9.7692;0.5629;-0.0439;0.8015;1.0629;0.0339;-0.5981;0.1246;38.0;4.56;-29.28;29.58;143.33;-84.99;-48.88;3.1;998.01;59.092;23.024704;72.53761;;NaN;;;235.1613;;0 / 0;210038;2018-06-30 19:58:44:557
2.1644;8.9187;1.743;1.4943;9.6538;0.861;0.6701;-0.7351;0.882;0.0742;0.2253;-0.0116;34.0;11.58;-30.3;27.48;148.84;-79.87;-60.05;3.1;998.0;54.403;23.024704;72.53761;;NaN;;;235.1613;;0 / 0;210538;2018-06-30 19:58:45:057
-0.1915;9.9793;3.3185;1.3098;9.5553;1.7749;-0.8812;0.4623;0.6385;0.0937;1.2943;-0.1362;37.0;4.5;-32.16;26.1;159.47;-77.0;-36.43;3.1;998.0;57.672;23.024704;72.53761;;NaN;;;235.1613;;0 / 0;211038;2018-06-30 19:58:45:557
-0.0048;9.9482;0.8452;0.3813;9.7471;1.0096;-0.6255;-0.474;0.9776;0.1133;1.612;0.2884;41.0;-15.3;-28.26;25.68;133.44;-83.68;-20.69;3.1;998.0;62.203;23.024704;72.53761;;NaN;;;235.1613;;0 / 0;211538;2018-06-30 19:58:46:057
1.9537;9.9147;0.4094;1.2132;9.7147;0.5685;0.9919;0.0348;0.1689;0.7046;2.1276;0.4038;34.0;-32.88;-23.34;2.04;31.69;-82.15;-64.89;3.1;997.98;59.766;23.024704;72.53761;;NaN;;;235.1613;;0 / 0;212038;2018-06-30 19:58:46:557
0.6776;9.1964;1.415;0.3111;9.7794;0.6606;0.1391;-0.8871;0.6275;-0.8201;2.0585;0.1338;30.0;-12.66;-25.08;-31.26;357.39;-85.73;-25.21;3.1;997.99;60.405;23.024704;72.53761;;NaN;;;235.1613;;0 / 0;212538;2018-06-30 19:58:47:057
0.2299;9.4382;0.4094;-0.3855;9.7986;0.0912;0.6153;-0.3604;0.3183;0.5629;2.276;0.0715;35.0;28.56;-28.32;-19.5;20.6;-87.69;76.69;3.1;998.0;53.317;23.024704;72.53761;;NaN;;;235.1613;;0 / 0;213038;2018-06-30 19:58:47:557
-0.2777;10.8916;0.4405;-0.1589;9.8044;-0.1372;-0.1763;0.977;1.6216;-0.3253;1.8979;0.1741;36.0;32.46;-26.28;5.82;22.21;-88.34;122.32;3.1;998.0;56.589;23.024704;72.53761;;NaN;;;235.1613;;0 / 0;213539;2018-06-30 19:58:48:058
-0.7303;10.1086;1.5946;-0.4983;9.7678;0.7148;-0.5743;-0.3009;1.3706;-0.3791;1.6529;-0.0776;31.0;20.34;-28.26;25.14;249.43;-84.9;34.88;3.1;998.01;56.326;23.024704;72.53761;;NaN;;;235.1613;;0 / 0;214039;2018-06-30 19:58:48:558
-0.4765;10.1829;2.5092;-0.5875;9.7297;1.0761;0.111;0.4531;1.4331;-0.3052;-0.986;0.3574;25.0;14.16;-29.1;27.42;238.04;-83.16;36.0;3.1;998.0;64.037;23.024704;72.53761;;NaN;;;235.1613;;0 / 0;214538;2018-06-30 19:58:49:057
1.4509;8.5811;1.518;0.426;9.7012;1.3692;1.025;-1.1201;0.1488;-0.0034;0.7763;0.1008;23.0;17.52;-29.94;24.66;196.34;-81.59;-17.28;3.1;998.01;50.31;23.024704;72.53761;;NaN;;;235.1613;;0 / 0;215038;2018-06-30 19:58:49:557
-0.5986;8.7678;-0.5267;-0.7106;9.739;0.9037;0.0306;-0.715;-1.0115;-0.0449;1.5075;0.1369;30.0;-0.6;-28.98;29.04;212.74;-83.27;38.18;3.1;998.0;53.435;23.024704;72.53761;;NaN;;;235.1613;;0 / 0;215538;2018-06-30 19:58:50:057
-0.0694;9.4574;0.9194;-0.8164;9.7352;0.854;0.5506;0.5865;-0.3464;-0.0388;1.2168;0.3641;27.0;-22.02;-29.28;16.14;170.84;-83.08;43.71;3.1;997.99;60.063;23.024704;72.53761;;NaN;;;235.1613;;0 / 0;216038;2018-06-30 19:58:50:557
0.8404;9.601;-0.4789;0.0657;9.798;0.4058;0.837;-0.2856;-0.6883;0.1652;1.5839;0.0739;27.0;-29.94;-26.76;-7.14;69.67;-87.6;-9.19;3.1;998.0;63.447;23.024704;72.53761;;NaN;;;235.1613;;0 / 0;216538;2018-06-30 19:58:51:057
-2.2099;9.1844;2.1405;-0.758;9.7069;1.1708;-1.4519;-0.5225;0.9696;-0.4823;2.0506;0.3207;28.0;-6.06;-24.6;-32.88;48.06;-81.82;32.92;3.1;998.0;62.347;23.024704;72.53761;;NaN;;;235.1613;;0 / 0;217039;2018-06-30 19:58:51:558
-2.0878;9.285;2.1644;-1.4167;9.5569;1.6821;-0.6711;-0.2719;0.4824;0.0351;1.8484;0.4172;39.0;26.7;-21.06;-26.58;354.25;-77.04;40.11;3.1;998.0;56.012;23.024704;72.53761;;NaN;;;235.1613;;0 / 0;217539;2018-06-30 19:58:52:058
-0.1508;8.4015;1.0822;-0.7354;9.7552;0.6826;0.5845;-1.3537;0.3996;-0.1268;1.5259;0.5706;33.0;34.44;-24.96;-2.04;317.43;-84.13;47.13;3.1;998.01;56.389;23.024704;72.53761;;NaN;;;235.1613;;0 / 0;218038;2018-06-30 19:58:52:557
0.067;10.3193;0.8404;-0.5344;9.7297;1.1035;0.6014;0.5896;-0.2631;0.5097;1.8307;-0.2248;31.0;25.98;-28.32;19.74;252.52;-82.82;25.84;3.1;998.01;56.945;23.024704;72.53761;;NaN;;;235.1613;;0 / 0;218538;2018-06-30 19:58:53:057
-0.7087;9.3999;2.083;-1.123;9.6808;1.0916;0.4143;-0.2809;0.9915;-0.2648;0.5857;-0.0739;18.0;12.0;-27.18;29.76;241.15;-80.81;45.81;3.1;998.01;55.312;23.024704;72.53761;;NaN;;;235.1613;;0 / 0;219038;2018-06-30 19:58:53:557
0.85;9.807;-2.3177;-0.6416;9.7713;0.5291;0.5745;-0.0984;-1.9441;-0.1854;-0.6335;0.2676;29.0;10.44;-25.86;31.32;244.92;-85.14;50.49;3.1;998.0;58.694;23.024704;72.53761;;NaN;;;235.1613;;0 / 0;219538;2018-06-30 19:58:54:057
0.8476;8.6888;2.4493;0.157;9.5555;2.1994;0.7552;-1.1301;0.1255;-0.6924;0.3163;0.2193;29.0;8.64;-33.9;24.18;192.96;-77.01;-4.08;3.1;998.01;53.984;23.024704;72.53761;;NaN;;;235.1613;;0 / 0;220038;2018-06-30 19:58:54:557
0.9338;8.3369;-0.85;0.3242;9.2251;3.3109;0.2505;-0.9002;-2.9877;1.4211;0.4556;-0.0421;36.0;4.32;-37.02;21.42;183.4;-70.17;-5.59;3.1;998.02;59.279;23.024704;72.53761;;NaN;;;235.1613;;0 / 0;220538;2018-06-30 19:58:55:057
0.6752;11.866;1.6281;0.3596;9.6843;1.5015;0.3156;2.1817;0.1267;-0.1604;-0.6238;0.3293;39.0;6.06;-33.84;23.7;184.9;-80.96;-8.14;3.1;998.01;51.746;23.024704;72.53761;;NaN;;;235.1613;;0 / 0;221038;2018-06-30 19:58:55:557
0.5842;9.7567;1.1373;0.5504;9.7294;1.0977;0.0338;0.0272;0.0396;0.0241;0.1832;-0.025;35.0;7.68;-30.78;26.22;171.6;-82.81;-26.63;3.1;998.01;58.518;23.024704;72.53761;;NaN;;;235.1613;;0 / 0;221538;2018-06-30 19:58:56:057
0.4932;8.8923;1.4509;0.0733;9.7449;1.0958;0.4199;-0.8526;0.3551;-0.2838;0.2827;0.1998;32.0;5.46;-29.7;28.38;185.66;-83.57;-3.83;3.1;998.0;58.454;23.024704;72.53761;;NaN;;;235.1613;;0 / 0;222039;2018-06-30 19:58:56:558
-1.324;9.5005;0.7614;0.4126;9.774;0.6847;-1.818;-0.2352;0.4287;0.5146;-1.3397;-0.0391;28.0;18.36;-27.84;26.16;183.39;-85.32;-31.07;3.1;998.01;59.838;23.024704;72.53761;;NaN;;;235.1613;;0 / 0;222538;2018-06-30 19:58:57:057
2.2291;10.463;0.1891;1.1073;9.6562;1.3044;0.856;1.2018;-0.4448;-0.0364;-0.9726;-0.4948;29.0;29.52;-30.42;7.2;211.84;-78.8;-39.75;3.1;998.01;50.892;23.024704;72.53761;;NaN;;;235.1613;;0 / 0;223038;2018-06-30 19:58:57:557
0.5531;9.3999;1.0583;0.5344;9.6905;1.4069;-0.7427;-0.2738;-0.1834;-0.3559;-1.7355;0.0318;37.0;32.94;-26.22;-7.98;255.87;-81.51;-21.55;3.1;998.01;58.336;23.024704;72.53761;;NaN;;;235.1613;;0 / 0;223538;2018-06-30 19:58:58:057
-0.6608;9.6082;1.0487;-0.0771;9.6776;1.5836;-0.5838;-0.0694;-0.5349;0.0131;-0.5169;0.187;45.0;26.94;-22.38;-26.64;313.51;-80.7;2.79;3.1;998.01;53.765;23.024704;72.53761;;NaN;;;235.1613;;0 / 0;224039;2018-06-30 19:58:58:558
1.4845;9.1605;0.9625;0.3999;9.6523;1.6862;0.8619;-0.7624;-0.6495;0.0094;-0.1223;0.2352;36.0;23.1;-23.22;-30.24;303.57;-79.82;-13.34;3.1;998.02;49.622;23.024704;72.53761;;NaN;;;235.1613;;0 / 0;224538;2018-06-30 19:58:59:057
0.0503;9.5484;4.0679;0.2819;9.4729;2.521;0.5393;0.3604;1.0392;0.1603;2.6413;0.2774;46.0;36.0;-27.36;-8.88;266.56;-75.01;-6.38;3.1;998.04;57.626;23.024704;72.53761;;NaN;;;235.1613;;0 / 0;225038;2018-06-30 19:58:59:557
-0.5148;10.5611;1.6353;-0.7628;9.475;2.4111;0.758;0.8324;-0.2467;0.1841;1.3878;0.1888;50.0;21.96;-31.62;20.46;233.12;-75.06;17.56;3.1;998.03;50.543;23.024704;72.53761;;NaN;;;235.1613;;0 / 0;225538;2018-06-30 19:59:00:057
0.2466;10.1972;1.3169;0.2359;9.7619;0.9058;0.0107;0.4354;0.411;0.3931;-0.0215;0.2248;43.0;14.52;-30.12;26.28;194.11;-84.52;-14.6;3.1;998.04;54.269;23.024704;72.53761;;NaN;;;235.1613;;0 / 0;226038;2018-06-30 19:59:00:557
1.1181;10.0847;0.7422;0.6092;9.7093;1.2364;0.5089;0.3754;-0.4941;-0.4475;0.7366;-0.0012;35.0;8.28;-31.08;27.24;171.5;-81.92;-26.23;3.1;998.03;63.572;23.024704;72.53761;;NaN;;;235.1613;;0 / 0;226539;2018-06-30 19:59:01:058
-0.0694;10.3648;1.1971;-0.065;9.7809;0.7066;-0.0044;0.5839;0.4905;-0.0749;0.3499;0.2499;32.0;1.8;-30.06;29.58;188.48;-85.85;5.26;3.1;998.03;59.184;23.024704;72.53761;;NaN;;;235.1613;;0 / 0;227038;2018-06-30 19:59:01:557
0.5866;10.0751;0.771;0.3092;9.7709;0.7766;0.2774;0.3042;-0.0056;0.0693;-1.1815;0.0874;28.0;8.04;-26.16;28.56;174.12;-85.11;-21.71;3.1;998.03;61.358;23.024704;72.53761;;NaN;;;235.1613;;0 / 0;227539;2018-06-30 19:59:02:058
1.4557;8.5524;1.0152;0.6551;9.7548;0.7645;0.8007;-1.2025;0.2507;-0.0761;0.0225;0.1784;25.0;15.24;-28.2;24.48;172.17;-84.11;-40.59;3.1;998.03;58.763;23.024704;72.53761;;NaN;;;235.1613;;0 / 0;228039;2018-06-30 19:59:02:558
-0.3113;11.8684;0.0479;0.4485;9.7603;0.84;-0.403;2.5726;-1.9773;-0.1708;1.1416;-0.1063;29.0;7.2;-29.46;29.46;166.66;-84.43;-28.1;3.1;998.02;54.249;23.024704;72.53761;;NaN;;;235.1613;;0 / 0;228538;2018-06-30 19:59:03:057
-0.7614;10.056;2.5044;0.2253;9.6807;1.5503;0.0357;0.3226;0.2454;0.4572;-0.2505;-0.2333;40.0;1.38;-32.04;27.0;174.77;-80.81;-8.27;3.1;998.01;55.494;23.024704;72.53761;;NaN;;;235.1613;;0 / 0;229039;2018-06-30 19:59:03:558
0.8356;8.5763;0.656;0.1333;9.6929;1.4832;-0.5954;0.0518;0.5089;-0.2648;-0.1846;0.2792;43.0;4.44;-32.46;26.34;183.08;-81.27;-5.14;3.1;998.01;56.129;23.024704;72.53761;;NaN;;;235.1613;;0 / 0;229539;2018-06-30 19:59:04:058
0.486;9.625;0.8595;0.1338;9.739;1.142;0.3522;-0.114;-0.2824;-0.0413;-0.0465;0.2383;47.0;5.82;-31.26;28.44;184.83;-83.27;-6.68;3.1;998.01;47.732;23.024704;72.53761;;NaN;;;235.1613;;0 / 0;230042;2018-06-30 19:59:04:561
0.3065;10.6665;1.6473;0.2414;9.7527;0.9985;0.0651;0.9138;0.6487;-0.0517;0.1368;-0.0171;48.0;3.0;-32.1;28.38;173.29;-83.99;-13.59;3.1;998.02;46.397;23.024704;72.53761;;NaN;;;235.1613;;0 / 0;230538;2018-06-30 19:59:05:057
-0.3974;10.7192;1.7957;0.2483;9.7861;0.5834;-1.4526;1.1294;1.8995;0.2526;0.3927;-0.4758;47.0;9.0;-30.3;27.84;160.69;-84.97;-38.76;3.1;998.04;44.377;23.024704;72.53761;;NaN;;;235.1613;;0 / 0;231038;2018-06-30 19:59:05:557
-0.012;9.6082;1.2426;-0.2112;9.7433;1.0928;0.4195;-0.1303;-0.2452;0.0638;0.1044;-0.2119;36.0;11.22;-30.72;26.88;209.82;-83.48;10.94;3.1;998.03;59.046;23.024704;72.53761;;NaN;;;235.1613;;0 / 0;231538;2018-06-30 19:59:06:057
-1.008;9.9195;1.6449;-0.6884;9.6944;1.3093;-0.5494;0.3136;0.338;-0.0474;-0.0416;-0.1521;30.0;9.12;-30.72;27.48;220.36;-81.32;27.73;3.1;998.03;56.019;23.024704;72.53761;;NaN;;;235.1613;;0 / 0;232038;2018-06-30 19:59:06:557
1.9034;9.8979;2.9138;-0.1226;9.6731;1.6085;2.5576;-0.0888;-0.1503;-0.3882;-1.0679;0.1124;24.0;18.9;-31.02;23.22;218.2;-80.53;4.36;3.1;998.04;57.588;23.024704;72.53761;;NaN;;;235.1613;;0 / 0;232539;2018-06-30 19:59:07:058
-1.5563;10.6497;3.4358;0.6049;9.3894;2.7647;-0.8658;0.6666;0.2904;0.1768;0.747;-0.5711;39.0;24.48;-32.04;15.12;215.69;-73.23;-12.34;3.1;998.02;52.751;23.024704;72.53761;;NaN;;;235.1613;;0 / 0;233038;2018-06-30 19:59:07:557
-0.2921;9.0959;0.4621;-0.5851;9.6203;1.8106;0.475;-0.6872;-1.5592;0.2208;-0.0343;-0.1356;43.0;22.8;-30.3;18.84;239.06;-78.81;17.91;3.1;998.03;55.989;23.024704;72.53761;;NaN;;;235.1613;;0 / 0;233539;2018-06-30 19:59:08:058
-0.4932;9.5843;2.933;-1.0778;8.931;3.9045;0.8384;0.5072;-0.2317;-0.6986;0.6346;0.1662;41.0;15.06;-36.72;18.24;215.92;-67.86;15.04;3.1;998.02;60.983;23.024704;72.53761;;NaN;;;235.1613;;0 / 0;234038;2018-06-30 19:59:08:557
-1.6712;9.6729;5.6218;-0.1962;8.9554;3.9916;-1.475;0.7175;1.6301;-0.1451;0.5894;0.3055;49.0;7.62;-37.68;16.02;196.45;-65.95;2.81;3.1;998.03;44.143;23.024704;72.53761;;NaN;;;235.1613;;0 / 0;234538;2018-06-30 19:59:09:057
0.4669;9.2563;4.7143;0.2963;8.8156;4.2858;0.1706;0.4407;0.4285;-0.07;-0.1614;0.0391;55.0;4.86;-38.82;15.18;187.3;-64.02;-3.96;3.1;998.03;58.437;23.024704;72.53761;;NaN;;;235.1613;;0 / 0;235041;2018-06-30 19:59:09:560
0.51;8.5547;2.7055;0.1443;9.0476;3.7802;0.155;-0.5264;-0.4881;0.2556;-0.2915;0.113;43.0;9.0;-36.12;20.46;194.15;-67.31;-2.19;3.1;998.03;54.73;23.024704;72.53761;;NaN;;;235.1613;;0 / 0;235539;2018-06-30 19:59:10:058
0.4118;8.447;3.2155;0.1795;9.2047;3.3781;0.2371;-0.5829;-0.4571;0.0375;0.2595;0.6555;38.0;3.78;-35.4;21.9;184.91;-69.82;-3.04;3.1;998.03;58.859;23.024704;72.53761;;NaN;;;235.1613;;0 / 0;236039;2018-06-30 19:59:10:558
0.182;8.7583;2.5355;-0.249;9.4453;2.6257;0.0359;-0.371;0.0535;0.0339;1.6328;0.6359;33.0;-19.8;-31.02;15.54;144.18;-74.4;5.42;3.1;998.03;48.189;23.024704;72.53761;;NaN;;;235.1613;;0 / 0;236539;2018-06-30 19:59:11:058
1.0319;8.8995;2.5331;0.2586;9.1934;3.4036;0.9146;-0.3298;-0.8441;0.2263;1.2412;0.3678;44.0;-29.4;-24.48;-3.84;95.1;-69.63;-4.35;3.1;998.03;52.669;23.024704;72.53761;;NaN;;;235.1613;;0 / 0;237038;2018-06-30 19:59:11:557
-1.0822;9.5172;4.5874;-0.3647;9.2019;3.3709;-0.0399;0.052;0.8191;-0.0107;2.0023;0.4282;109.0;-20.04;-17.22;-30.42;49.0;-69.77;6.17;3.1;998.02;61.847;23.024704;72.53761;;NaN;;;235.1613;;0 / 0;237539;2018-06-30 19:59:12:058
0.2801;9.795;3.2275;-0.2289;9.1123;3.6171;0.4516;0.946;0.2209;0.255;0.1276;0.7154;63.0;1.44;-13.08;-39.48;2.67;-68.31;3.62;3.1;998.02;59.395;23.024704;72.53761;;NaN;;;235.1613;;0 / 0;238038;2018-06-30 19:59:12:557
0.3448;9.1294;0.067;0.6797;9.7666;0.5672;-0.335;-0.6372;-0.5001;0.2727;1.6419;-0.0238;39.0;2.28;-26.04;-34.44;303.05;-84.82;-50.16;3.1;998.02;53.726;23.024704;72.53761;;NaN;;;235.1613;;0 / 0;238538;2018-06-30 19:59:13:057
-0.4645;10.1182;2.7055;-0.2649;9.6856;1.5133;-0.1996;0.4327;1.1923;-0.3253;1.6975;0.1185;50.0;34.14;-25.8;-17.76;302.33;-80.99;9.93;3.1;998.02;54.249;23.024704;72.53761;;NaN;;;235.1613;;0 / 0;239038;2018-06-30 19:59:13:557
-0.9338;9.4598;0.0575;-0.2371;9.7642;0.8804;-0.929;-0.1799;-0.8924;0.1903;0.8899;0.11;50.0;34.38;-27.3;2.16;277.46;-84.67;15.07;3.1;998.01;52.275;23.024704;72.53761;;NaN;;;235.1613;;0 / 0;239545;2018-06-30 19:59:14:064
0.8979;9.1964;-0.0455;0.4557;9.742;1.0279;0.3488;-0.5551;-0.8435;0.1542;0.5564;0.3696;46.0;29.28;-30.0;11.58;219.77;-83.42;-23.91;3.1;998.01;53.693;23.024704;72.53761;;NaN;;;235.1613;;0 / 0;240039;2018-06-30 19:59:14:558
1.099;9.2754;2.4086;0.4677;9.7591;0.8432;0.6576;-0.4957;1.4673;-0.2496;0.8014;-0.014;39.0;17.88;-30.48;24.6;186.18;-84.36;-29.02;3.1;998.01;55.876;23.024704;72.53761;;NaN;;;235.1613;;0 / 0;240539;2018-06-30 19:59:15:058
0.0072;10.2236;0.7614;0.1407;9.7334;1.1879;0.137;-0.0988;0.7275;0.1182;0.5625;-0.2052;34.0;6.78;-29.88;28.32;186.51;-82.99;-6.76;3.1;998.02;47.75;23.024704;72.53761;;NaN;;;235.1613;;0 / 0;241038;2018-06-30 19:59:15:557
0.7087;9.4287;-0.0503;0.0201;9.8048;0.1868;0.4707;-0.278;0.1556;0.1084;-1.8724;0.4386;20.0;15.96;-25.68;25.56;205.06;-88.9;-6.16;3.1;998.03;49.954;23.024704;72.53761;;NaN;;;235.1613;;0 / 0;241538;2018-06-30 19:59:16:057
0.6153;8.7199;0.067;0.1732;9.805;-0.037;0.5762;-0.9342;0.3554;-0.0309;0.8753;-0.1747;24.0;18.96;-26.64;27.12;113.85;-88.97;-102.05;3.1;998.02;50.933;23.024704;72.53761;;NaN;;;235.1613;;0 / 0;242039;2018-06-30 19:59:16:558
0.522;9.0719;0.4405;-0.3854;9.7607;0.8666;0.529;-0.4828;0.3449;-0.0712;0.2553;-0.0568;31.0;7.92;-29.88;28.68;217.32;-84.03;25.36;3.1;998.02;54.844;23.024704;72.53761;;NaN;;;235.1613;;0 / 0;242538;2018-06-30 19:59:17:057
-0.0838;11.1573;2.0016;0.2678;9.7217;1.2595;-0.3516;1.4356;0.7421;-0.2374;0.0103;0.0862;30.0;5.52;-30.84;27.12;180.46;-82.46;-12.0;3.1;998.01;56.155;23.024704;72.53761;;NaN;;;235.1613;;0 / 0;243039;2018-06-30 19:59:17:558
1.2331;9.1102;1.7694;0.3571;9.6332;1.8011;0.876;-0.523;-0.0318;-0.4414;0.3218;-0.3066;38.0;4.38;-32.94;26.04;177.97;-79.21;-11.21;3.1;998.02;52.451;23.024704;72.53761;;NaN;;;235.1613;;0 / 0;243538;2018-06-30 19:59:18:057
-1.0607;9.862;2.095;-0.43;9.4479;2.5926;-0.6306;0.4141;-0.4976;0.2581;0.3371;-6.0E-4;45.0;3.0;-35.94;22.26;192.3;-74.46;9.42;3.1;998.03;51.042;23.024704;72.53761;;NaN;;;235.1613;;0 / 0;244038;2018-06-30 19:59:18:557
-1.5395;9.6034;4.6377;0.1968;9.571;2.1279;-1.2791;0.2671;2.5649;0.1512;-0.2359;-0.3512;41.0;3.66;-34.56;22.68;183.52;-77.41;-5.28;3.1;998.04;50.553;23.024704;72.53761;;NaN;;;235.1613;;0 / 0;244538;2018-06-30 19:59:19:057
-0.5531;11.0855;3.4142;-0.2912;9.4484;2.6102;-0.1015;1.4288;0.4042;-0.2587;0.1087;-0.0635;37.0;6.12;-35.28;23.28;195.47;-74.47;6.36;3.1;998.03;59.24;23.024704;72.53761;;NaN;;;235.1613;;0 / 0;245038;2018-06-30 19:59:19:557
0.2682;9.0408;2.7462;0.5441;9.4944;2.3938;-0.6159;-0.3004;0.7714;0.0455;0.1227;0.1301;39.0;2.88;-34.38;23.58;175.7;-75.5;-12.81;3.1;998.02;55.733;23.024704;72.53761;;NaN;;;235.1613;;0 / 0;245538;2018-06-30 19:59:20:057
0.3017;9.4765;1.5563;0.4479;9.7257;1.1745;-0.1463;-0.3833;0.3794;0.1579;-1.0263;-0.1307;30.0;12.84;-29.58;27.36;184.7;-81.98;-20.4;3.1;998.02;58.209;23.024704;72.53761;;NaN;;;235.1613;;0 / 0;246038;2018-06-30 19:59:20:557
-0.8164;9.0097;5.8947;-0.0307;8.9287;4.0556;-0.5679;-0.0579;1.9852;-0.6094;0.7928;-0.0543;36.0;19.08;-34.14;16.62;211.96;-69.64;-3.39;3.1;998.03;48.881;23.024704;72.53761;;NaN;;;235.1613;;0 / 0;246538;2018-06-30 19:59:21:057
0.8979;7.846;2.8037;0.1394;7.9724;5.7089;0.3993;0.6781;-3.3481;0.197;0.2272;0.0855;53.0;10.8;-38.94;10.2;199.19;-53.25;-0.38;3.1;998.04;51.724;23.024704;72.53761;;NaN;;;235.1613;;0 / 0;247038;2018-06-30 19:59:21:557
-0.5866;8.0591;5.7989;-0.0287;8.2013;5.3767;-0.5579;-0.1421;0.4222;-0.1225;0.0299;-0.0421;119.0;7.02;-39.0;12.18;192.68;-56.75;0.31;3.1;998.03;53.586;23.024704;72.53761;;NaN;;;235.1613;;0 / 0;247538;2018-06-30 19:59:22:057
0.4549;8.0136;4.6928;0.1845;8.3538;5.1332;0.2704;-0.3402;-0.4404;-0.175;0.028;0.2468;63.0;2.16;-40.2;12.3;182.87;-58.41;-2.06;3.1;998.03;54.155;23.024704;72.53761;;NaN;;;235.1613;;0 / 0;248038;2018-06-30 19:59:22:557
-0.1221;9.1485;3.5052;0.3175;8.2233;5.3336;-0.6503;1.0522;-0.9306;0.4212;0.2015;0.1576;60.0;-2.34;-40.44;12.12;175.12;-56.99;-3.41;3.1;998.04;54.153;23.024704;72.53761;;NaN;;;235.1613;;0 / 0;248539;2018-06-30 19:59:23:058
-1.4629;9.3975;4.6377;-0.1104;9.1624;3.4941;-1.3501;0.2998;0.8994;0.4792;0.2614;-0.0983;50.0;-1.08;-37.68;18.42;179.19;-69.12;1.81;3.1;998.03;52.121;23.024704;72.53761;;NaN;;;235.1613;;0 / 0;249038;2018-06-30 19:59:23:557
0.5842;8.5859;3.2035;0.1222;9.3544;2.9413;0.6607;-1.2497;-0.0394;-0.2331;-0.0013;0.2548;43.0;0.3;-35.22;22.26;178.34;-72.53;-2.38;3.1;998.03;57.157;23.024704;72.53761;;NaN;;;235.1613;;0 / 0;249538;2018-06-30 19:59:24:057
-1.0439;8.6409;2.696;-0.4019;9.5214;2.3133;-0.4097;-0.3873;0.8088;-0.1433;0.1667;-0.0684;40.0;-1.02;-33.54;23.64;185.7;-76.15;9.86;3.1;998.04;58.181;23.024704;72.53761;;NaN;;;235.1613;;0 / 0;250038;2018-06-30 19:59:24:557
-0.17;10.0967;1.3647;-0.9115;9.6021;1.7718;0.5835;0.4323;0.3256;0.8659;0.6535;0.8406;32.0;-11.82;-31.56;22.92;179.73;-78.28;27.22;3.1;998.05;53.92;23.024704;72.53761;;NaN;;;235.1613;;0 / 0;250538;2018-06-30 19:59:25:057
1.2474;9.8955;1.8675;0.7269;9.7053;1.2039;0.5205;0.1903;0.6636;0.0125;1.6853;-0.1539;40.0;-26.76;-25.44;13.32;91.51;-81.75;-31.12;3.1;998.02;54.301;23.024704;72.53761;;NaN;;;235.1613;;0 / 0;251038;2018-06-30 19:59:25:557
2.2961;9.5579;1.3169;1.1758;9.6483;1.3033;1.2425;-0.1861;-0.0392;-0.0675;1.3548;0.3299;98.0;-31.32;-21.9;-10.26;36.18;-80.89;-39.92;3.1;998.03;57.698;23.024704;72.53761;;NaN;;;235.1613;;0 / 0;251538;2018-06-30 19:59:26:057
-1.3073;9.5172;1.3121;0.5783;9.6974;1.3402;-1.1577;-0.2592;-1.2061;0.5629;1.3658;0.1479;81.0;-20.7;-22.02;-28.62;8.44;-79.39;-28.56;3.1;998.03;56.3;23.024704;72.53761;;NaN;;;235.1613;;0 / 0;252038;2018-06-30 19:59:26:557
0.7829;10.3624;0.929;0.4917;9.704;1.3267;0.2913;0.6584;-0.3977;0.2446;-0.2438;0.0239;39.0;-4.32;-21.78;-35.82;344.51;-81.7;-20.33;3.1;998.03;60.07;23.024704;72.53761;;NaN;;;235.1613;;0 / 0;252538;2018-06-30 19:59:27:057
1.0655;9.7615;2.5547;0.8481;9.7621;0.391;0.3466;-0.082;1.9051;-0.1225;2.312;0.0819;36.0;5.82;-27.0;-33.96;280.48;-84.54;-65.25;3.1;998.03;54.299;23.024704;72.53761;;NaN;;;235.1613;;0 / 0;253038;2018-06-30 19:59:27:557
0.2155;10.5252;0.8404;0.0061;9.6907;1.5033;0.2501;0.7579;-0.2918;-0.0309;1.3768;-0.0159;54.0;33.36;-25.8;-14.94;287.94;-81.18;-0.23;3.1;998.04;52.28;23.024704;72.53761;;NaN;;;235.1613;;0 / 0;253538;2018-06-30 19:59:28:057
-0.0503;9.3856;0.3017;0.2907;9.7564;0.948;-0.9587;-0.0668;0.0696;0.299;0.8845;0.0849;53.0;32.46;-28.92;4.2;241.35;-84.2;-17.05;3.1;998.03;54.302;23.024704;72.53761;;NaN;;;235.1613;;0 / 0;254038;2018-06-30 19:59:28:557
0.9242;10.7766;0.1915;0.6308;9.7784;0.3926;0.3269;1.1897;-0.0119;0.3497;1.367;0.1845;36.0;26.34;-30.0;17.4;189.43;-85.24;-46.67;3.1;998.03;54.482;23.024704;72.53761;;NaN;;;235.1613;;0 / 0;254539;2018-06-30 19:59:29:058
1.2714;9.7375;0.1532;0.5756;9.7897;0.0063;0.2073;-0.1264;1.1142;-0.332;1.1288;-0.3793;33.0;13.14;-27.78;28.92;106.52;-85.78;-101.15;3.1;998.03;54.188;23.024704;72.53761;;NaN;;;235.1613;;0 / 0;255037;2018-06-30 19:59:29:556
0.5339;10.0512;1.7933;0.4125;9.7145;1.2763;-0.1611;0.727;0.5385;0.076;0.6407;-0.2168;29.0;1.74;-29.1;28.44;162.33;-82.19;-24.05;3.1;998.04;54.268;23.024704;72.53761;;NaN;;;235.1613;;0 / 0;255539;2018-06-30 19:59:30:058
0.7326;9.7423;0.2634;1.0484;9.738;0.4913;-0.3157;0.0043;-0.2279;0.1114;-0.6989;0.176;32.0;2.1;-28.5;30.9;123.72;-83.22;-64.89;3.1;998.03;51.434;23.024704;72.53761;;NaN;;;235.1613;;0 / 0;256039;2018-06-30 19:59:30:558
1.6688;8.8804;0.3017;1.8562;9.6255;0.2741;-0.1874;-0.7451;0.0276;0.1224;-0.435;0.0184;31.0;8.7;-29.04;29.64;123.24;-78.97;-81.6;3.1;998.02;50.192;23.024704;72.53761;;NaN;;;235.1613;;0 / 0;256538;2018-06-30 19:59:31:057
-1.2331;11.119;1.8316;1.4155;9.605;1.3819;-1.4419;2.1269;0.8759;-0.4652;0.5784;-0.2981;43.0;5.64;-31.68;26.28;153.13;-78.36;-45.69;3.1;998.01;56.645;23.024704;72.53761;;NaN;;;235.1613;;0 / 0;257038;2018-06-30 19:59:31:557
-0.7063;9.6202;3.8572;0.781;9.7094;1.1351;0.5239;-0.0293;-0.7808;-0.4719;-0.1797;0.4246;48.0;1.86;-31.74;26.94;153.71;-81.92;-34.53;3.1;998.03;57.166;23.024704;72.53761;;NaN;;;235.1613;;0 / 0;257539;2018-06-30 19:59:32:058
2.4924;9.4358;0.6153;1.6038;9.5904;1.2737;0.9916;-0.3174;0.036;0.2904;-0.0697;0.2688;45.0;-3.96;-31.8;28.14;130.22;-77.95;-51.55;3.1;998.01;48.524;23.024704;72.53761;;NaN;;;235.1613;;0 / 0;258038;2018-06-30 19:59:32:557
2.0854;10.4103;0.68;1.8665;9.5926;0.8178;0.219;0.8177;-0.1379;0.241;0.058;-0.1386;42.0;-3.12;-30.3;27.42;121.0;-77.82;-63.8;3.1;998.02;49.774;23.024704;72.53761;;NaN;;;235.1613;;0 / 0;258538;2018-06-30 19:59:33:057
0.8667;11.119;1.4054;1.4665;9.6606;0.8316;-0.4226;1.2572;0.0734;0.0369;-0.2121;-0.2455;39.0;-0.78;-29.88;28.86;125.57;-80.1;-60.44;3.1;998.02;45.879;23.024704;72.53761;;NaN;;;235.1613;;0 / 0;259038;2018-06-30 19:59:33:557
1.8005;9.2946;0.9146;1.467;9.6893;-0.368;-0.3417;-0.9358;1.783;0.2324;-0.5053;-0.3671;31.0;11.22;-26.94;28.92;107.01;-80.95;-101.16;3.1;998.02;58.136;23.024704;72.53761;;NaN;;;235.1613;;0 / 0;259538;2018-06-30 19:59:34:057
0.759;9.522;1.6018;0.5561;9.7864;0.2949;-0.0437;0.066;1.0555;-0.6686;0.3664;0.3213;24.0;20.46;-27.12;25.2;157.73;-86.32;-62.06;3.1;998.01;52.269;23.024704;72.53761;;NaN;;;235.1613;;0 / 0;260038;2018-06-30 19:59:34:557
-0.5196;9.1725;2.3799;0.8604;9.5135;2.2187;-2.06;0.3413;2.4861;0.1524;1.3286;0.0843;35.0;5.4;-33.6;26.1;171.95;-75.96;-21.2;3.1;998.01;46.679;23.024704;72.53761;;NaN;;;235.1613;;0 / 0;260538;2018-06-30 19:59:35:057
0.601;9.8141;1.8532;1.0594;9.6187;1.5903;-0.4585;0.1955;0.2629;0.3851;-0.1345;-0.0391;46.0;2.58;-30.96;26.64;157.23;-78.76;-33.67;3.1;998.01;58.413;23.024704;72.53761;;NaN;;;235.1613;;0 / 0;261038;2018-06-30 19:59:35:557
0.1341;10.0799;4.4725;1.2891;9.242;3.0155;0.5497;-0.1606;-1.5645;-1.828;0.8979;-0.675;46.0;1.5;-36.9;20.1;168.81;-70.46;-23.15;3.1;998.01;56.079;23.024704;72.53761;;NaN;;;235.1613;;0 / 0;261538;2018-06-30 19:59:36:057
-0.4118;9.3951;3.6177;0.2208;8.3098;5.2027;-0.5153;0.5275;-1.7239;0.2379;-0.143;0.1124;60.0;2.16;-40.5;11.94;182.71;-57.93;-2.43;3.1;998.03;55.56;23.024704;72.53761;;NaN;;;235.1613;;0 / 0;262038;2018-06-30 19:59:36:557
1.1253;8.3656;5.2075;0.3833;8.4963;4.8823;-0.6634;-0.0732;1.951;0.3986;-0.0117;-0.0171;66.0;0.36;-40.26;12.72;178.13;-60.04;-4.49;3.1;998.01;53.903;23.024704;72.53761;;NaN;;;235.1613;;0 / 0;262538;2018-06-30 19:59:37:057
0.7255;8.5428;4.8269;0.6541;8.2326;5.2884;0.452;-0.2118;-0.1886;0.1945;-0.0581;-0.1954;166.0;4.02;-40.08;12.9;184.12;-57.09;-7.05;3.1;998.02;56.785;23.024704;72.53761;;NaN;;;235.1613;;0 / 0;263038;2018-06-30 19:59:37:557
-0.4573;8.2818;4.5443;-0.2245;9.0403;3.7937;-0.2328;-0.7585;0.7507;0.1432;-0.1528;-0.0824;41.0;2.82;-36.54;19.86;187.3;-67.2;3.39;3.1;998.0;61.052;23.024704;72.53761;;NaN;;;235.1613;;0 / 0;263538;2018-06-30 19:59:38:057
0.3711;8.957;1.0008;0.403;9.5905;2.0075;-0.0319;-0.6335;-1.0067;0.1389;-1.7765;0.2456;24.0;14.76;-32.4;22.98;197.84;-77.95;-11.35;3.1;998.0;58.813;23.024704;72.53761;;NaN;;;235.1613;;0 / 0;264038;2018-06-30 19:59:38:557
1.688;8.6026;2.344;0.9351;9.5613;1.9692;0.7529;-0.9586;0.3748;-0.1946;0.6639;0.2138;27.0;16.68;-31.98;23.04;189.05;-77.16;-25.4;3.1;998.0;54.993;23.024704;72.53761;;NaN;;;235.1613;;0 / 0;264538;2018-06-30 19:59:39:057
-0.1341;10.4965;3.0527;0.085;9.4234;2.7132;-0.2191;1.0731;0.3395;-0.1928;0.4648;-0.0549;45.0;8.64;-34.5;22.86;194.6;-73.93;-1.8;3.1;997.98;55.083;23.024704;72.53761;;NaN;;;235.1613;;0 / 0;265039;2018-06-30 19:59:39:558
0.838;9.783;2.0471;0.6141;9.442;2.5773;0.2239;0.341;-0.5302;-0.2502;0.119;0.3482;43.0;6.54;-33.84;24.0;182.15;-74.33;-13.4;3.1;998.0;60.719;23.024704;72.53761;;NaN;;;235.1613;;0 / 0;265539;2018-06-30 19:59:40:058
1.5252;9.3784;2.9761;1.1584;9.4064;2.5197;0.3668;-0.028;0.4564;-0.1647;0.1087;0.0965;40.0;3.3;-35.34;23.16;167.54;-73.57;-24.69;3.1;998.0;55.139;23.024704;72.53761;;NaN;;;235.1613;;0 / 0;266038;2018-06-30 19:59:40:557
0.2706;9.7519;1.7861;0.6893;9.456;2.5059;-0.1698;0.327;-1.6416;0.0162;0.2156;-0.0134;42.0;0.42;-34.8;23.58;168.61;-74.63;-15.38;3.1;998.02;49.912;23.024704;72.53761;;NaN;;;235.1613;;0 / 0;266538;2018-06-30 19:59:41:057
2.9737;8.7391;1.2402;1.2049;9.5836;1.6952;0.8733;-1.1821;0.8547;0.2006;-1.0862;0.099;39.0;4.32;-33.66;24.78;159.1;-77.76;-35.4;3.1;998.01;56.307;23.024704;72.53761;;NaN;;;235.1613;;0 / 0;267038;2018-06-30 19:59:41:557
0.8667;10.02;2.1237;0.5179;9.6507;1.6633;0.4805;0.3287;0.5873;-0.0425;0.4513;-0.3653;31.0;4.08;-32.4;26.16;172.88;-79.77;-17.29;3.1;998.0;58.983;23.024704;72.53761;;NaN;;;235.1613;;0 / 0;267538;2018-06-30 19:59:42:057
-0.1748;9.1773;0.577;-0.2509;9.7164;1.3031;-0.1106;-0.6349;-0.8937;-0.3369;-0.4857;0.0587;24.0;7.02;-29.82;28.5;201.76;-82.22;10.9;3.1;998.0;52.171;23.024704;72.53761;;NaN;;;235.1613;;0 / 0;268038;2018-06-30 19:59:42:557
2.6385;11.0975;3.2969;1.4272;9.5796;1.5378;1.2113;1.5179;1.7592;-0.362;-1.2029;-0.4709;23.0;26.16;-31.02;14.58;194.33;-77.65;-42.86;3.1;998.02;57.46;23.024704;72.53761;;NaN;;;235.1613;;0 / 0;268538;2018-06-30 19:59:43:057
0.0215;10.8293;1.4174;1.217;9.5267;1.9826;-1.1954;1.3026;-0.5652;0.3417;-2.1344;-0.1814;47.0;29.52;-24.9;-14.82;255.31;-76.28;-31.54;3.1;998.02;61.387;23.024704;72.53761;;NaN;;;235.1613;;0 / 0;269038;2018-06-30 19:59:43:557
0.917;9.3927;1.8843;0.6677;9.6527;1.5966;0.0362;-0.2983;-0.0906;-0.208;-1.5572;0.1595;40.0;7.5;-22.5;-36.72;320.93;-79.84;-22.7;3.1;998.01;55.062;23.024704;72.53761;;NaN;;;235.1613;;0 / 0;269538;2018-06-30 19:59:44:057
1.6377;9.3975;3.3592;1.6208;9.6013;1.1657;0.1222;-0.1415;1.3555;-0.7041;-2.6494;-0.1942;27.0;-25.92;-22.26;-23.04;353.21;-78.25;-54.28;3.1;998.0;53.986;23.024704;72.53761;;NaN;;;235.1613;;0 / 0;270038;2018-06-30 19:59:44:557
