ACCELEROMETER_X_mean,ACCELEROMETER_Y_mean,ACCELEROMETER_Z_mean,GRAVITY_X_mean,GRAVITY_Y_mean,GRAVITY_Z_mean,LINEAR_ACCELERATION_X_mean,LINEAR_ACCELERATION_Y_mean,LINEAR_ACCELERATION_Z_mean,GYROSCOPE_X_mean,GYROSCOPE_Y_mean,GYROSCOPE_Z_mean,MAGNETIC_FIELD_X_mean,MAGNETIC_FIELD_Y_mean,MAGNETIC_FIELD_Z_mean,ORIENTATION_Z_mean,ORIENTATION_X_mean,ORIENTATION_Y_mean,PRT_X_mean,PRT_Y_mean,PRT_Z_mean,ACCELEROMETER_X_std_dev,ACCELEROMETER_Y_std_dev,ACCELEROMETER_Z_std_dev,GRAVITY_X_std_dev,GRAVITY_Y_std_dev,GRAVITY_Z_std_dev,LINEAR_ACCELERATION_X_std_dev,LINEAR_ACCELERATION_Y_std_dev,LINEAR_ACCELERATION_Z_std_dev,GYROSCOPE_X_std_dev,GYROSCOPE_Y_std_dev,GYROSCOPE_Z_std_dev,MAGNETIC_FIELD_X_std_dev,MAGNETIC_FIELD_Y_std_dev,MAGNETIC_FIELD_Z_std_dev,ORIENTATION_Z_std_dev,ORIENTATION_X_std_dev,ORIENTATION_Y_std_dev,PRT_X_std_dev,PRT_Y_std_dev,PRT_Z_std_dev,ACCELEROMETER_X_median,ACCELEROMETER_Y_median,ACCELEROMETER_Z_median,GRAVITY_X_median,GRAVITY_Y_median,GRAVITY_Z_median,LINEAR_ACCELERATION_X_median,LINEAR_ACCELERATION_Y_median,LINEAR_ACCELERATION_Z_median,GYROSCOPE_X_median,GYROSCOPE_Y_median,GYROSCOPE_Z_median,MAGNETIC_FIELD_X_median,MAGNETIC_FIELD_Y_median,MAGNETIC_FIELD_Z_median,ORIENTATION_Z_median,ORIENTATION_X_median,ORIENTATION_Y_median,PRT_X_median,PRT_Y_median,PRT_Z_median,ACCELEROMETER_X_variance,ACCELEROMETER_Y_variance,ACCELEROMETER_Z_variance,GRAVITY_X_variance,GRAVITY_Y_variance,GRAVITY_Z_variance,LINEAR_ACCELERATION_X_variance,LINEAR_ACCELERATION_Y_variance,LINEAR_ACCELERATION_Z_variance,GYROSCOPE_X_variance,GYROSCOPE_Y_variance,GYROSCOPE_Z_variance,MAGNETIC_FIELD_X_variance,MAGNETIC_FIELD_Y_variance,MAGNETIC_FIELD_Z_variance,ORIENTATION_Z_variance,ORIENTATION_X_variance,ORIENTATION_Y_variance,PRT_X_variance,PRT_Y_variance,PRT_Z_variance,ACCELEROMETER_X_fft,ACCELEROMETER_Y_fft,ACCELEROMETER_Z_fft,GRAVITY_X_fft,GRAVITY_Y_fft,GRAVITY_Z_fft,LINEAR_ACCELERATION_X_fft,LINEAR_ACCELERATION_Y_fft,LINEAR_ACCELERATION_Z_fft,GYROSCOPE_X_fft,GYROSCOPE_Y_fft,GYROSCOPE_Z_fft,MAGNETIC_FIELD_X_fft,MAGNETIC_FIELD_Y_fft,MAGNETIC_FIELD_Z_fft,ORIENTATION_Z_fft,ORIENTATION_X_fft,ORIENTATION_Y_fft,PRT_X_fft,PRT_Y_fft,PRT_Z_fft,OUT
0.35028,9.83042,0.8879199999999998,0.42176,9.74347,0.8920600000000001,-0.054309999999999976,0.10162999999999998,-0.03126000000000003,0.004499999999999999,-0.005229999999999993,-0.0073100000000000005,28.226999999999997,-24.206999999999997,-21.831,279.491,-83.978,-24.191000000000003,-0.06304228521972184,0.03390568031378356,9.881950818394314,0.4335,9.85,0.8025,0.329,9.756,0.943,0.028,0.113,-0.039,0.021,-0.015,-0.0105,27.9,-24.6,-23.450000000000003,278.6,-84.1,-24.4,-0.025067150621583448,0.10108659811987027,9.83232174186077,0.7260176179680491,1.94969542329052,1.0850201627619644,0.34295583155852594,0.046602458089675926,0.37569375347482153,0.6724423796133019,1.9544278428992974,1.0795741347401762,0.2544628263617301,0.36295834072245814,0.18610597491751846,4.157640075812239,1.4003753068374207,6.630168851545186,17.689358919983505,2.5762988957029043,16.755202744222462,0.8410302336494353,0.9096512027752097,1.964959259966949,0.5271015816000001,3.8013122436,1.1772687536,0.1176187024,0.0021717891000000013,0.1411457964,0.45217875389999995,3.819788193100001,1.1654803124000002,0.06475133000000001,0.13173875710000002,0.034635433900000005,17.285971,1.9610510000000003,43.95913900000001,312.91341900000003,6.637316000000003,280.73681899999997,0.7073318539124237,0.8274653107103858,3.8610648933298597,41.28444545136899,983.0589316720508,89.83159014424032,47.02128631304924,974.3501821058879,91.04610771754504,12.330469557096924,12.176940671281947,11.872589894371881,1.201229507362231,9.91586175327672,1.704984092177507,2835.091666129362,2422.092948498774,2228.5037591487107,27963.51448850176,8399.089107384003,2508.9121392354464,14.278638292192186,10.820411243516313,988.2109165431608,0.0
0.14017999999999997,9.87874,0.59842,0.19659999999999994,9.780389999999999,0.47369,-0.058400000000000014,0.14174,0.13113000000000002,0.016189999999999996,0.07866999999999998,-0.0029999999999999983,31.864000000000004,-24.068999999999996,-14.713,249.63300000000004,-86.204,-21.419,0.04244575716591296,0.1701645504042409,9.891427733082867,0.05500000000000001,9.8995,0.47250000000000003,0.238,9.787,0.522,-0.099,0.07550000000000001,0.002,0.0175,0.108,-0.0125,32.8,-24.35,-14.600000000000001,265.35,-86.4,-21.85,0.05138047728029286,0.12102959458384802,9.914675869139135,0.9046138444662452,1.776052254974498,1.0742703307827133,0.2679560038513786,0.022356607524398633,0.4222142748652632,0.9599019949974059,1.7862439733698192,1.122143633007825,0.24370899429442483,0.6484052290813207,0.1728043980921782,3.5205545017795132,1.4780186061075142,7.642547415620005,60.452705572207435,1.7977163291242582,54.25433751323483,0.914009701597425,1.0789975260184723,1.7953428276836974,0.8183262076000001,3.1543616123999993,1.1540567436,0.07180042,0.0004998178999999975,0.1782648939,0.92141184,3.1906675323999996,1.2592063331,0.0593940739,0.42042934109999996,0.02986136,12.394303999999998,2.1845389999999996,58.40853100000001,3654.529611,3.231783999999998,2943.533139,0.835413734614214,1.1642356611539837,3.223255868915294,19.87950194836674,987.8796843577464,63.82387567176261,22.948310062235905,978.0397775882171,53.79275386216634,16.65491766960318,14.412448554712897,15.284327119693392,2.7110258837032624,13.595578166781078,1.8216091655901054,3188.163354300109,2408.279737259538,1493.4542414812506,25090.009660189015,8620.960765562639,2343.622614415931,23.776187403191486,29.638834748343033,989.1464998615629,0.0
0.5078,9.856050000000002,0.9701100000000001,0.45074000000000003,9.722100000000001,0.85721,0.06814,0.14692,0.12077000000000002,0.005619999999999998,-0.040780000000000004,-0.015430000000000006,30.679999999999996,-24.730000000000004,-11.104999999999997,238.25199999999992,-83.376,-24.965000000000003,0.12213692954084837,0.19598453606821542,9.928601914010144,0.6535,9.7975,0.6859999999999999,0.443,9.7305,0.9955,0.0915,0.0085,-0.089,-0.0135,-0.012,-0.0245,30.85,-24.4,-12.8,252.3,-82.95,-30.55,0.329640712631389,0.30092617127395227,9.89839546455596,1.1287802974892858,1.896805722128653,1.3320445104800365,0.47941252841368254,0.07195116399336432,0.6907367558628974,1.108703305848774,1.8573941783046484,1.2628098657755253,0.2691721672090188,0.7412727511516932,0.2025336147408622,4.782509801349078,2.2528426487440263,14.42658223558165,56.85071060241904,3.5932191694913342,54.195622286306495,1.1518715848092997,1.1529710250995564,1.9236532100584953,1.2741449600000003,3.5978719475000003,1.7743425779,0.2298363724,0.0051769700000000056,0.4771172658999999,1.2292230204,3.4499131335999995,1.5946887571000001,0.0724536556,0.5494852916,0.0410198651,22.8724,5.0753,208.12627500000002,3232.003296000001,12.911223999999995,2937.165475000001,1.3268081478910876,1.329342184719122,3.700441672568353,62.26551833116518,985.6133133296993,104.82904119624142,53.774268319725394,972.2192923000624,96.58060518733653,25.215627182000926,14.939230020591207,18.02688377046076,2.3571841522287516,24.699180263791433,4.150091490737847,3077.6561739943054,2477.1747751155513,1452.3762826518832,23928.255265681113,8340.695506050235,2747.3224385053372,26.74916377931603,30.323988239766535,992.8625554947416,0.0
0.5898199999999999,9.78059,1.472,0.5702200000000001,9.652909999999999,1.4377600000000001,0.047680000000000014,0.12399,0.020169999999999993,0.0036099999999999956,-0.0266,-0.0009100000000000014,30.984,-25.191,-12.921000000000001,257.785,-80.29799999999999,-23.742000000000004,0.08229603314220091,0.019184536307084145,9.93765069032349,0.7275,9.7915,1.214,0.6395,9.669,1.5135,0.199,0.11499999999999999,-0.12200000000000001,-0.055,-0.012,0.008,33.2,-24.85,-14.75,262.15,-80.25,-23.65,0.37547102238096586,0.22978166052881205,9.992063436699391,1.1826965746124405,2.1777419043357735,1.553764203474903,0.45693097027888147,0.08351947018510117,0.6189418408865246,1.0703547157835107,2.139036453616441,1.4335292327329778,0.33937471605881303,0.5753056057435909,0.2255286276728522,5.138729804144211,2.2021850512615875,14.119902938759884,31.26631853928441,2.939387010925918,31.860760129036468,1.267051950838736,1.1599274224784266,2.2394714492636605,1.3987711876,4.7425598019000015,2.4141832,0.20878591160000004,0.006975501900000003,0.38308900239999993,1.1456592176,4.5754769499,2.0550060611000003,0.11517519789999998,0.33097654000000004,0.050863161899999995,26.406544,4.8496190000000015,199.37165900000002,977.582675,8.639996000000004,1015.1080359999999,1.6054206461242464,1.3454316254174465,5.01523237206708,67.94158947366043,978.0893957768942,150.53346547837273,63.28522910745214,965.2973850568934,146.29431066164085,25.01022581866429,13.27945443028469,14.085921315743008,2.876937221399724,24.458073769598315,4.3546351990234555,3115.332596455786,2522.9403670053894,1621.613244002437,25811.4512396255,8030.603687875755,2618.8341567413236,21.36362362288281,13.157629406047459,993.7740043732878,0.0
0.64547,9.729809999999997,1.18762,0.6691200000000002,9.670319999999998,1.23637,-0.0007399999999999885,0.08441000000000001,-0.04820999999999998,0.021210000000000003,0.020390000000000002,0.0032399999999999994,32.207,-25.352000000000004,-19.101,260.629,-81.05000000000001,-30.6,0.12479795329739503,0.04937024942035169,9.871517894188738,0.6094999999999999,9.638,0.9085,0.638,9.683,1.091,0.0135,0.0895,-0.2545,-0.0505,0.03950000000000001,0.024,33.4,-25.65,-18.0,264.70000000000005,-80.80000000000001,-32.05,0.2616898608232764,0.18380313191946943,9.947389567025404,1.260890712591698,2.1135720034813104,1.6768825527150075,0.5023492466402234,0.09048843904057582,0.6472336310019744,1.0756149368617005,2.110169448622551,1.537974358011212,0.38891840519574283,0.49659560801521396,0.23428256956077637,3.504861052880699,1.6940177094705948,6.420537282813643,28.460770527165984,3.256055896326106,32.760412085320304,1.3103104718442173,1.1892366657762024,2.1838424059866033,1.5898453891,4.4671866139,2.8119350956,0.25235476560000003,0.008188157600000006,0.41891137309999993,1.1569474923999998,4.452815101900001,2.3653651259,0.1512575259,0.24660719790000002,0.054888322400000016,12.284051000000002,2.8696960000000002,41.223299,810.015459,10.601900000000002,1073.2446000000004,1.7169135326246157,1.4142838472264987,4.769167654185356,72.96445687218686,972.9880718340733,124.95894740535716,74.26030310306956,967.0425317371297,128.23773897430738,5.052789353859007,8.658006175284044,7.69535349533059,3.2998212298187823,9.436903932987745,1.328467554039967,3228.470598428476,2536.695895727217,1940.5107624666628,26080.03343594489,8106.465139602161,3330.03626746086,19.312338755808927,5.5324232417881545,987.1538157391717,0.0
1.1108599999999997,9.73542,0.8493100000000001,1.1848699999999999,9.68091,0.8494000000000002,-0.07996999999999999,0.07784,0.023939999999999993,0.0301,0.0008499999999999946,-0.0028300000000000027,29.891000000000005,-26.070999999999998,-20.094000000000005,245.04599999999994,-81.09100000000001,-53.132,-0.0055240548932303365,0.12636787746015438,9.851091744566663,1.1025,9.729,0.5915,1.2975,9.685,0.8614999999999999,-0.10500000000000001,0.091,-0.2165,0.0025000000000000005,0.015000000000000001,-0.010499999999999999,29.75,-26.3,-18.75,245.45,-81.0,-55.5,0.18488893970589992,0.2521422536122653,9.947389567025404,1.174214656866452,1.872550000293717,1.4076942330989357,0.43996567263821845,0.05611561190969946,0.35833682478919193,1.0248341373607732,1.8780281133146013,1.3946057351093892,0.33347046345965936,0.425687123953732,0.21676139208816683,2.5851535737746802,1.5597624819183207,4.613454670851334,17.640744995606056,2.169843081884034,17.836417129008844,1.3267597513709897,1.0371848609874008,1.9247116201589378,1.3787800603999998,3.5064435036,1.9816030539000005,0.1935697931,0.0031489619000000034,0.12840528000000004,1.0502850091,3.526989594400001,1.9449251563999999,0.11120255,0.1812095275,0.0469855011,6.683019000000002,2.4328589999999997,21.283963999999997,311.1958840000001,4.708219000000002,318.13777600000003,1.7602914378580101,1.075752435861454,3.7045148207748433,114.14695639637739,973.5452029294815,85.21978189083991,121.48659932304336,968.0946401139415,85.74648057455659,13.003014416257098,8.347298788292752,11.023793596227204,3.722558501263537,3.8738444662810374,1.828376472103497,2992.354277879033,2607.7888260835525,2020.1358579076898,24523.48052114186,8109.766743459283,5385.570919380409,14.105672703727475,14.840280162181811,985.1198695951797,0.0
1.3665300000000002,9.780520000000001,0.6599,1.47303,9.656300000000002,0.6732300000000001,-0.14085,0.13054000000000002,0.018770000000000012,0.015080000000000005,0.04074,-0.0029399999999999977,29.427999999999994,-27.912000000000003,-14.835999999999999,223.95100000000005,-80.226,-67.197,0.00953638589097595,0.16403071965419902,9.915934852474726,1.3745,10.049,0.3065,1.458,9.677,0.6255,-0.101,0.2905,-0.221,0.05499999999999999,0.09,-0.04,29.45,-28.55,-15.850000000000001,226.0,-80.7,-66.6,0.3222838564788886,0.24520022626845192,10.246852787352719,1.1656342947511453,1.8016140456823708,1.391869085079484,0.2444533679457086,0.07475232437857696,0.48644378616650036,1.0447072544497813,1.7758431992718278,1.2778929677793833,0.35842044249735533,0.4324086173979423,0.19204847408922568,1.635975549939546,2.4346367285490462,4.468993622729842,13.180694177470318,2.1233756144403655,13.81851985561406,1.2563170028637582,1.0460599641797022,1.8649195348557683,1.3587033091,3.2458131696,1.9372995499999999,0.0597574491,0.00558790999999999,0.23662755709999994,1.0914132475,3.1536190684000003,1.6330104371000003,0.1284652136,0.18697721240000004,0.03688261639999999,2.6764160000000006,5.927456000000001,19.971904000000002,173.73069899999996,4.508724,190.95149100000003,1.5783324116845765,1.09424144865964,3.477924871486655,137.16324179821984,978.0657721783257,70.5219692309549,147.46719959779804,965.6346289865852,71.0367430592342,16.164257808115092,13.120135289351875,9.19684503150957,3.766010321160465,4.640645660091366,1.003984632664983,2943.4898999616007,2795.338359772297,1498.8907627983394,22404.23955018107,8023.0743304739735,6747.077099077005,12.391966772654467,18.35574970147546,991.5974115351038,0.0
1.2241300000000002,9.798419999999998,0.5890100000000001,1.2224000000000002,9.681220000000001,0.7201000000000001,-0.0027599999999999804,0.13996,-0.11623000000000003,-0.012329999999999999,-0.003960000000000002,-0.008820000000000001,31.104999999999997,-29.64,-13.494000000000002,227.372,-81.321,-60.623999999999995,0.14255485937511966,0.06863930167136097,9.923832611529996,1.063,9.9455,0.2405,1.2745,9.698,0.657,0.0025,0.1855,-0.28250000000000003,-0.006999999999999999,0.015000000000000001,-0.0115,31.05,-29.7,-14.0,228.85,-81.45,-59.5,0.33138090907113327,0.15200142400179756,10.045645814139952,1.1948546242535114,1.9567610082991738,1.525167259647282,0.4011746253191994,0.08816570535077675,0.5112013399825943,1.0449074037444657,1.9342251416006362,1.328563411019587,0.37585361658496785,0.4451481982441353,0.1968281676996461,1.703723862602153,1.09453186340097,3.815490007849582,16.605276751683487,2.829038529253357,17.329028362836734,1.275147575974496,1.105311229642486,2.020392714741614,1.4276775731,3.8289136435999995,2.3261351699,0.16094108000000001,0.007773191599999983,0.26132680999999996,1.0918314824,3.7412268984000008,1.7650807371,0.14126594110000001,0.19815691840000002,0.0387413276,2.902675,1.1979999999999997,14.557964000000002,275.73521600000004,8.003458999999998,300.29522399999996,1.6260013405136329,1.2217129143737846,4.081986721780989,124.654641608202,979.8918216391327,63.322897627380286,124.20592810649661,968.1294699739906,75.06152785600814,7.046264762320846,14.476015010260303,12.42535431594321,1.8445062458799297,6.511588150758548,1.5268795321188868,3111.5821760936738,2964.4421855304467,1364.5876678723232,22752.077703002717,8133.117214341785,6117.83217549684,14.900734160292473,8.969309555952687,992.4011606907042,0.0
0.83902,9.82242,0.8531099999999999,0.8066000000000001,9.722610000000001,0.87748,0.02780999999999999,0.11440999999999998,-0.01963999999999998,-0.021240000000000002,-0.03374,-0.006710000000000001,32.868,-29.102000000000004,-15.982000000000001,246.37600000000003,-82.80799999999999,-44.309,0.029502374027337862,-0.032235149467289205,9.913145919514877,0.759,9.777000000000001,0.7849999999999999,0.7415,9.7365,0.8375,0.0155,0.045,-0.069,-0.05,-0.0155,0.0025,33.150000000000006,-29.6,-15.05,246.4,-83.0,-43.55,0.2091526776732437,0.06857798986930463,9.858896553714324,0.9114242478670403,1.647984467038449,1.3148830586405775,0.2819358437659178,0.05371831996628328,0.3722712312279852,0.7723781417803071,1.640816876406383,1.1836936725352551,0.26749243428553265,0.30684437814631704,0.16915166537755402,1.5340065188909724,1.7025850933213293,3.8311455205982456,16.169428685021618,2.14218019783584,14.527209608180092,1.1257092681819991,0.8916367800546612,1.6889467988820779,0.8306941596000001,2.7158528036000003,1.7289174579000002,0.07948782,0.0028856578999999893,0.13858586960000002,0.5965679939,2.6922800219,1.4011307104,0.07155220240000001,0.09415347240000001,0.028612285900000006,2.3531759999999995,2.898796,14.677676000000002,261.45042399999994,4.588935999999999,211.03981899999997,1.2672213564708519,0.7950161475462442,2.852541289454018,85.0446792474923,982.2618752943862,87.42851289288807,81.87090852716968,972.2635299638774,88.71498368113609,5.35049049093604,12.000616001238495,9.720832267211618,3.0016582338211313,5.436607422880762,1.1543070212528372,3288.169358248421,2911.26416715534,1606.2945443709286,24645.52349526053,8281.336901112247,4472.206936137178,7.602146512250222,8.496825777449368,991.3240654772976,0.0
0.5816300000000001,9.816220000000001,1.08337,0.5971500000000001,9.73776,0.93503,-0.026489999999999993,0.06279999999999998,0.14803,-0.01121,-0.004240000000000001,-0.0009899999999999985,33.029,-27.209,-19.006,261.646,-83.41,-33.527,-0.11515772405872886,-0.12525293889952427,9.894639558675308,0.7204999999999999,9.552,0.977,0.584,9.74,0.913,-0.0125,-0.1405,-0.0675,-0.021,0.006500000000000001,-0.002,33.2,-26.7,-20.3,260.8,-83.45,-33.25,0.10452567450523524,0.02492293636976839,9.557349921336176,0.7143528771552614,1.2923935204108692,1.2001820499824185,0.1808080404738683,0.03276587248952774,0.2881538635867998,0.642868470139888,1.2690043498743415,1.225739682436691,0.22587581964433467,0.21115757717875053,0.13236196545835968,1.4746046927905798,2.1753664059187825,3.9998204959722874,13.967601225693691,1.6341664541900247,10.102443813256276,1.037495928758775,0.871648657167476,1.3123133467474244,0.5103000330999999,1.6702810116,1.4404369531000003,0.0326915475,0.0010736023999999907,0.08303264910000001,0.41327986990000004,1.6103720400000001,1.5024377691000004,0.051019885900000006,0.04458752239999999,0.017519689900000003,2.174459,4.732219000000001,15.998563999999996,195.09388399999992,2.6704999999999983,102.05937100000001,1.0763978021910332,0.7597713815418641,1.722166320051426,59.44981383738029,981.6308200626969,110.12203846895163,60.441114740487485,973.777353560053,94.58908014582883,4.6103543987817295,6.82555905830184,16.03819433547296,2.515620522479868,3.4142621051934396,1.0283088832986158,3303.961315357185,2724.484355954624,1917.910649017018,26178.351177335157,8341.36626120616,3395.66588232502,12.747007392300027,14.34921235169618,989.4686831533719,0.0
0.47703,9.85225,1.17793,0.52077,9.730739999999999,1.0246300000000002,-0.03295000000000001,0.10658999999999999,0.13694,0.013869999999999999,-0.002170000000000006,0.0033999999999999946,32.92099999999999,-25.87,-20.266,268.98400000000004,-83.08,-28.029999999999994,-0.11553699322419861,-0.09949904364754245,9.9365434366275,0.624,9.636,0.9795,0.525,9.7335,1.0335,-0.0075000000000000015,-0.10400000000000001,-0.0475,-0.003,0.010499999999999999,-0.0145,33.4,-26.0,-20.25,271.35,-83.1,-26.5,0.08849021623958073,0.13076522640136162,9.792858515646742,0.8481020393207412,1.4710284387121821,1.3781933845074137,0.22342488021704296,0.03749709855442142,0.3331107520029937,0.7797041410047788,1.4546004475112746,1.3827430840181412,0.2464649530866407,0.2740460565306496,0.1673726381461438,2.471691526060645,0.9038252043398659,3.0416844017747797,10.410645705238462,1.7310112651279892,13.27137897884014,1.0691254447433536,1.1499496558489188,1.4969862250335366,0.7192770691000001,2.1639246675,1.8994170051,0.049918677099999996,0.001406032399999993,0.11096277309999998,0.6079385475,2.1158624619000004,1.9119784364,0.0607449731,0.07510124110000001,0.028013599999999993,6.109259,0.8169000000000004,9.251844,108.38154400000003,2.9964000000000017,176.12949999999998,1.1430292165976734,1.3223842109870467,2.2409677579401586,49.58173752197237,985.2298520181181,118.69013520201005,52.85227635036038,973.0752263609,103.65670957943819,6.745831060561168,10.748099733661569,15.13001307572353,2.791137175717057,5.81183082832251,0.7596741179689165,3295.6544282807286,2587.1262712510165,2034.2098146152327,26901.7001948147,8308.286424537195,2885.9143398879187,13.682179681634029,11.908994846517103,993.6584496981494,0.0
0.68053,9.870719999999999,0.9077,0.6979,9.722240000000001,0.8192500000000001,-0.006110000000000005,0.14768,0.04932000000000004,-0.003080000000000001,-0.02073,0.01564,31.726999999999997,-25.636999999999997,-19.543000000000003,253.34400000000002,-83.09299999999999,-44.23400000000001,-0.05778469473139289,-0.00901989060364887,9.956035162333606,0.6964999999999999,9.756499999999999,0.7675,0.6345000000000001,9.747499999999999,0.7865,-0.0675,-0.0625,-0.0785,0.003,0.002,0.0035000000000000005,31.4,-26.0,-18.4,252.85000000000002,-83.6,-44.150000000000006,-0.011842620061654013,0.10874540990452397,9.872427339477944,0.9225054087104313,1.4524230380987488,1.297502065508953,0.4662919578976245,0.07891617324731347,0.5157790684973558,0.797159480844329,1.450867126100802,1.1824689161242254,0.25114201878618403,0.31147362183658506,0.19681039200204853,3.299480413640911,1.4832838568527604,3.5258546481668804,22.294215931492186,2.9525668493702217,25.7441108605444,0.9660784687132745,1.0620802570174415,1.4747323645148396,0.8510162290999999,2.1095326815999997,1.6835116099999996,0.21742819000000002,0.0062277623999999945,0.2660280475,0.6354632379,2.1050154176,1.3982327376000003,0.06307231360000001,0.09701581710000001,0.0387343304,10.886570999999996,2.2001310000000003,12.431650999999997,497.03206400000005,8.717650999999998,662.7592440000001,0.9333076077113854,1.1280144723462346,2.17483554694753,72.03329613361743,987.0826367199337,97.07506299805043,73.16289439964271,972.2312243894044,87.890695511537,5.90599695544163,15.239277319172881,7.919027018121616,3.40729308609213,8.077574426344372,2.5141421455190884,3178.8044404040943,2564.644605855878,1965.7657278438448,25362.004927984464,8310.83478437708,4659.319360597953,8.384298880699221,4.73480341195776,995.6142742531642,0.0
1.12584,9.716059999999999,1.1582500000000002,1.08961,9.62989,1.1409200000000002,0.04988999999999997,0.07983000000000001,0.0037799999999999835,-0.0005600000000000055,0.0012699999999999973,0.004769999999999996,30.238000000000003,-24.546000000000003,-22.599,251.63100000000003,-80.274,-49.458,0.02426542085042828,0.016562656127697927,9.89277051004221,1.1244999999999998,9.424,0.9875,0.902,9.651499999999999,1.1835,0.037000000000000005,-0.307,-0.16450000000000004,0.022000000000000002,0.0065,0.008,30.7,-24.55,-23.0,256.55,-79.69999999999999,-46.150000000000006,0.11502291059548836,0.12558394572570702,9.675885570347575,0.9073098557824663,1.4596735581629203,1.3614194605264023,0.5337949399348031,0.15532062934459154,0.7982948162176678,0.7765455671755521,1.439037623239921,1.113125388983649,0.29412522231185817,0.3799356749503789,0.21938873512557566,3.0105740316424705,1.7474221012680364,4.602966326185756,19.9810244732346,4.95991169276228,20.231219340415443,0.9539778311563548,0.9484751313122458,1.4631306969497155,0.8232111743999998,2.1306468964,1.8534629475,0.2849370379,0.024124497899999993,0.6372746136,0.6030230178999999,2.0708292811000004,1.2390481316,0.0865096464,0.14435111709999998,0.0481314171,9.063556,3.053484,21.187299,399.2413390000001,24.600723999999992,409.3022359999999,0.9100737023377826,0.8996050747177818,2.14075143635656,116.29804154975756,971.694514074145,125.05603980607361,112.60865579075735,963.030005693084,123.4936576480845,5.427295724202191,10.029770971335608,7.185743458881361,3.4212229445066136,5.114919718170207,3.1848838478847865,3025.050205951173,2456.6985180239517,2277.272512397421,25184.647213929853,8033.295507109876,5017.756025599025,5.308914050949393,7.572654488043987,989.2925638922146,0.0
1.012,9.69264,1.5666099999999998,0.98379,9.584529999999999,1.66839,0.03506,0.09874,-0.09151,0.015730000000000004,0.0020700000000000007,0.01081,31.456000000000003,-23.738999999999997,-23.155,269.44199999999995,-78.23899999999999,-29.905000000000005,0.07162850548150196,0.09590301302039564,9.90685472534613,1.0474999999999999,9.34,1.423,0.9319999999999999,9.603,1.6695,0.0805,-0.3285,-0.22800000000000004,0.07,-0.04,0.0205,31.3,-24.1,-23.4,266.9,-78.15,-28.4,0.16533988447028009,0.24973514991548884,9.675885570347575,1.0090941185043147,1.610623205594654,1.4597374003224004,0.5132322728550885,0.12812481843889573,0.5251940383325006,0.8434085346971537,1.5978747549166674,1.3403013802499797,0.4272581855272055,0.4540611909203428,0.24560271557944957,3.0128498137145834,1.779825553249531,4.844840038639046,12.104091704874017,3.444703035096058,13.321143907337687,0.9722062724891999,1.1568014887293574,1.650884335618135,1.01827094,2.5941071103999995,2.1308332779,0.2634073659,0.016415969099999997,0.27582877790000004,0.7113379563999999,2.5532037324,1.7964077899000004,0.18254955709999998,0.20617156509999998,0.0603206939,9.077264,3.1677789999999995,23.472474999999996,146.509036,11.865978999999996,177.45287499999998,0.9451850362673444,1.3381896843264574,2.725419089589331,104.65325053593186,969.2973491617566,158.53564292227935,101.63453031228588,958.4677620186968,167.67498695190403,5.099156515070156,10.608223992528123,14.658160345109726,1.6663852518864974,3.6385117794933732,3.1528844707416224,3148.429397839252,2374.271548122298,2331.5683534954514,26947.390235724608,7825.2469066375115,3036.4802903845025,9.012813902012514,13.267554300194424,990.6862526192114,0.0
0.7253800000000001,9.77236,1.4582400000000002,0.7438400000000001,9.63298,1.5903700000000003,-0.009739999999999997,0.15347999999999998,-0.15131999999999993,-0.03185999999999998,-0.03034,0.021079999999999998,31.748999999999995,-23.81600000000001,-21.096999999999998,271.65400000000005,-79.502,-25.402,0.020578384612122615,0.14648517253645763,9.925849215379651,0.6455,9.600000000000001,1.391,0.7145000000000001,9.6395,1.5535,-0.0615,-0.096,-0.33999999999999997,0.046,-0.033,0.008,31.7,-23.7,-20.9,272.45000000000005,-79.5,-25.55,0.10447372035229531,0.22583321044415833,9.788826278335932,0.9198783917453437,1.7303177368333253,1.442105794454762,0.3161200632671074,0.08155513227259219,0.43347476639361604,0.796208309677813,1.7162669459032298,1.3676387452832712,0.42262801658195825,0.40822861781114755,0.22339089865077313,2.367297826636944,1.757652980539674,3.9894223892689027,12.286264037533948,2.536492854316763,10.510908428865699,1.0478499272909627,1.1070028228919202,1.7898871802006218,0.8461762556000001,2.993999470400001,2.0796691224,0.09993189439999998,0.006651239600000008,0.18790037310000002,0.6339476724,2.9455722295999998,1.8704357376000003,0.1786144404,0.16665060439999999,0.049903493599999994,5.604098999999999,3.089343999999999,15.915491000000001,150.95228400000002,6.433796000000001,110.47919600000002,1.0979894701236756,1.2254552498906799,3.203696117846533,73.14389025664198,977.2465987288798,146.75978476844466,75.36643375023489,963.3029698822953,159.59609897923016,5.327301957604846,15.4798994958285,20.537172578193058,4.143570002883875,4.7440636131270235,2.7159696009185694,3178.359183736247,2382.2494869609086,2124.277995263576,27168.220301197973,7950.821300329313,2558.881691347691,7.555131447139816,15.830127702879864,992.5922172489289,0.0
0.6979099999999999,9.769639999999999,1.18847,0.7821200000000001,9.670789999999998,1.2751799999999998,-0.06354000000000001,0.11059999999999999,-0.08993999999999998,-0.005209999999999999,0.01645000000000001,0.013949999999999994,29.397,-24.961,-20.13,263.967,-80.933,-34.510999999999996,-0.04279074709067698,0.11845826470628813,9.88290783714836,0.6715,9.560500000000001,1.0405,0.8235,9.682500000000001,1.33,-0.0615,-0.2375,-0.365,0.0285,0.010499999999999999,-0.0075,30.5,-24.95,-20.4,269.2,-80.8,-30.55,0.1684751769901243,0.2826369757285532,9.733031667927207,0.9874111007579366,1.763016747056023,1.4729268376603095,0.26582201865157823,0.07302154408118197,0.577214940555076,0.9103113030167207,1.7218586817738557,1.3631719247402363,0.3798341031292477,0.5057602075094482,0.2695458170701226,3.800117235033677,1.6322925595615512,3.7552496588109827,24.152134708965168,2.9381645631244004,23.55875588820428,1.268350618112484,1.0434698156953472,1.792443574337592,0.9749806819,3.1082280504000006,2.1695134691,0.0706613456,0.0053321459000000015,0.33317708760000003,0.8286666683999998,2.96479732,1.8582376964000005,0.14427394589999998,0.2557933875,0.0726549475,14.440891,2.6643790000000003,14.1019,583.325611,8.632810999999998,555.0149789999999,1.6087132904663202,1.088829256267282,3.2128539671841225,70.26423874249771,977.0189966448205,122.26850393967081,78.69366546813744,967.0867548339521,131.30352430320605,10.804602473885602,12.20726012480109,13.913331255338925,3.285704995366261,8.738515198362217,2.3232684067630056,2948.6571941208836,2497.498692099526,2023.3239693167131,26406.254706220185,8094.846413055595,3521.440150525935,12.164134248995005,13.084206261956604,988.3278067278919,0.0
0.67634,9.80933,1.02845,0.7144800000000001,9.70625,1.06083,-0.030600000000000006,0.11756000000000003,-0.02293000000000001,0.019050000000000004,0.05593,0.013519999999999999,26.243,-23.650000000000006,-20.245,266.425,-82.13,-35.751999999999995,-0.04529832449737266,0.05009032998872469,9.900695826315852,0.596,9.588000000000001,0.857,0.7505,9.706,1.1309999999999998,-0.0165,-0.14550000000000002,-0.3785,0.024,0.1345,0.0015,26.299999999999997,-24.5,-20.85,270.6,-82.05,-33.7,0.1936195097755617,0.2347841132114435,9.690196472628474,1.258226634752261,1.7068431975726417,1.3942254220534067,0.32570804349908217,0.04867245114024969,0.46228121430575136,1.1774574726927507,1.6810814276530452,1.3587329484118649,0.36615885555316013,0.7003448472716852,0.2713665594726071,4.37312828533534,3.9201658128196573,7.801440572099489,28.315442341591627,2.347360219480598,24.728620988643907,1.3417952557493658,1.1491025008589297,1.7404662736116183,1.5831342644,2.9133137011000003,1.9438645275000002,0.1060857296,0.0023690074999999935,0.2137039211,1.3864060999999999,2.8260347664000007,1.8461552250999997,0.1340723075,0.4904829051000001,0.07363980960000001,19.124251000000005,15.367700000000003,60.862475,801.764275,5.5100999999999996,611.504696,1.8004145083515057,1.3204365574802464,3.029222849579513,69.91957492216653,980.9615874595884,107.06622064621679,72.39681030066461,970.6271747635601,108.10857295106156,8.172781322716526,12.654517296824576,11.221039712372638,2.43908132607936,12.79583838945973,2.6138995749026557,2632.531797608292,2378.570723927187,2050.6956584602162,26657.010345349652,8213.664763178867,3642.6643448898767,14.030946942027676,10.947935915092014,990.0859421449546,0.0
0.667,9.79441,1.4599799999999998,0.5975400000000001,9.67684,1.3994099999999998,0.055550000000000016,0.15000000000000002,0.08766,-0.0022099999999999993,0.06253000000000002,0.01375,27.706000000000003,-25.265,-7.774,254.483,-80.86400000000002,-24.088999999999995,0.006958560793147543,-0.058017754878523745,9.93413976843134,0.5554999999999999,9.6475,1.1480000000000001,0.5525,9.685,1.3435000000000001,0.047,-0.006,-0.3575,-0.0335,0.139,0.012,29.15,-25.4,-2.9,247.45,-80.9,-22.1,0.12267130323546224,0.22404666870011672,9.792993528808779,1.0961746849841043,1.5550695939089028,1.2209515549766912,0.26479729681399694,0.05537250581290321,0.37383881807538394,1.03160730295011,1.549547856634315,1.344373141802528,0.2809317103852821,0.5788836922042285,0.1578639525034135,4.226838534886328,5.2535202483668035,16.079027458151813,26.46817732674466,1.949231643494431,11.903183565752483,1.1067213471026203,1.0762074068098046,1.594947957526062,1.2015989400000002,2.4182414419,1.4907226996,0.0701176084,0.0030661144,0.13975546190000002,1.0642136275,2.40109856,1.8073391443999998,0.0789226259,0.3351063291,0.024921027499999998,17.866163999999998,27.599474999999998,258.535124,700.564411,3.7995040000000007,141.68577900000003,1.2248321401326385,1.1582223824722844,2.5438589872165576,70.14763698714785,979.4540321595307,149.11261996816515,61.05334862920573,967.6872791541042,141.26996030359294,14.961738301302802,15.557955748392176,16.347352048125632,1.0341789237178676,18.066311158124023,2.6708027604839177,2780.359292013132,2551.8802825692924,1334.2817105861907,25497.962348523943,8086.863823432096,2484.616990287102,4.926824270495961,17.10178603358152,993.424433428837,0.0
0.5279599999999999,9.76121,1.67229,0.5381800000000001,9.66672,1.5193699999999999,-0.02673000000000001,0.11151,0.16785,0.01287,0.10101999999999998,0.02681,25.753,-30.15500000000001,14.039000000000001,216.15200000000002,-80.447,-20.319000000000003,-0.07697486441778993,-0.10635720916097771,9.917612574041737,0.5814999999999999,9.383,1.3045,0.5295000000000001,9.680499999999999,1.451,0.057999999999999996,-0.1285,-0.3645,-0.0155,0.08099999999999999,0.0205,28.4,-31.0,14.1,217.64999999999998,-80.8,-20.450000000000003,-0.02186862170427864,0.2900868223045375,9.532998975693461,0.7228021571633555,1.5926187509570517,1.4115314540951611,0.126648756804005,0.054568320479926824,0.32911683806818515,0.7104441125802929,1.6057151023453695,1.4953377168720117,0.25546325195612773,0.27230148659160863,0.14521609380506004,5.794729588168891,2.2098585927610843,9.37691735060089,20.576897142183515,1.797134107405454,6.4317757268113755,0.9936735882433174,1.1847216049948843,1.6249880381721364,0.5224429584,2.5364344858999996,1.9924210459,0.0160399076,0.002977701600000001,0.10831789309999999,0.5047308371,2.5783209899000004,2.2360348875000002,0.0652614731,0.0741480996,0.021087713899999992,33.578891,4.883475,87.926579,423.40869600000013,3.229690999999998,41.36773899999999,0.9873871999723499,1.4035652813416548,2.6405861242025286,53.0563138419426,976.16283459263,168.274895973081,53.939539153737655,966.6750740191865,152.6569708999541,5.997544617899416,13.102629234468438,18.533094009758912,1.673173028262671,11.162438138537205,2.717319982884087,2603.2688779868877,3018.4733975576373,1518.6409197451992,21649.954939572533,8045.082325843841,2047.5607206535274,10.160548759646844,12.89900699107759,991.7864701433889,0.0
0.64794,9.66404,1.7597399999999999,0.7707500000000002,9.630719999999998,1.6151600000000002,-0.11936000000000002,0.04252000000000001,0.13603,0.014779999999999995,0.031090000000000013,0.011139999999999997,15.427999999999997,-30.529,23.857,186.224,-79.332,-25.090999999999998,-0.1894422136783094,-0.04997592172165586,9.845970783956322,0.7424999999999999,9.382,1.475,0.7090000000000001,9.654,1.5745,-0.1075,-0.174,-0.093,0.0075,0.009500000000000001,-0.015000000000000001,16.0,-31.35,24.55,185.5,-79.8,-24.6,-0.05320548522995561,0.25098572020515075,9.562265819722128,0.7811544382514894,1.630564502986619,1.394983258824277,0.2980722856959365,0.07950812285546677,0.34940943662127955,0.722657256519299,1.6383088443880172,1.3740442020182613,0.2858594262920151,0.284736548233626,0.1643886869586834,6.995728410966223,2.4516645365954943,3.0702525954715845,15.510474654245753,2.3869176776755414,7.10570327272396,1.015122492296814,1.132123192802755,1.6826758922485596,0.6102022564,2.6587405983999997,1.9459782923999998,0.08884708749999999,0.006321541599999998,0.12208695439999998,0.5222335103999999,2.6840558696000003,1.8879974691000003,0.08171561160000003,0.08107490190000002,0.0270236404,48.940216,6.010659,9.426451,240.57482399999992,5.697375999999999,50.491018999999994,1.0304736743668954,1.2817029236819042,2.8313981583544865,66.10203188939025,966.416317282098,176.37857429897457,78.98829812305985,963.0819846149582,162.31487614094036,12.999499035313724,7.95493426108288,14.362638800816255,2.3006961018476737,7.260664367563894,1.4367252952918863,1610.189857003463,3056.628459161183,2392.03260223111,18647.170017756827,7934.271637104051,2522.2111172333084,18.992105347296093,9.54008069119461,984.6133639536098,0.0
0.8343299999999998,9.728359999999999,1.5975500000000002,0.9477399999999999,9.63625,1.4618,-0.09402999999999995,0.09939,0.13599,0.026259999999999995,0.004729999999999996,0.0025099999999999983,12.568999999999999,-29.954999999999995,25.34399999999999,173.83,-79.55300000000001,-33.253,-0.18764235678704172,-0.009580608028360688,9.896505280405707,0.9410000000000001,9.607,1.4895,0.9355,9.651,1.4725000000000001,-0.0335,0.006,0.0405,0.023,0.0085,-0.0285,12.5,-30.2,25.15,174.75,-79.9,-31.4,-0.0176770395419939,-0.021363970486039885,9.865600786123991,0.8187563746927408,1.4982740571737867,1.0728339142197174,0.27794854271969116,0.08157075149831587,0.43975088402412565,0.768545163994934,1.4806766216497105,1.0441828910205337,0.31411751367919616,0.2652400744608552,0.17407099097781917,4.802347238590729,2.4364061648255615,1.9201208295313086,11.332806360297523,2.531697256782493,10.24342184038127,0.9500163410955609,0.8211248177487878,1.5500081864685775,0.6703620010999998,2.2448251503999996,1.1509726075000002,0.0772553924,0.0066537875,0.19338084000000003,0.5906616691,2.1924032578999997,1.0903179099,0.0986698124,0.0703522971,0.0303007099,23.062539,5.936075000000001,3.6868640000000004,128.43249999999998,6.409491,104.927691,0.9025310483485971,0.67424596632298,2.4025253781196083,83.81611877253913,972.8472554601929,161.37590638868008,95.40159288957322,963.6364165150665,148.34422736214427,11.613093154894498,10.510438068581696,15.049145084663538,3.6989797325419893,5.4708499079976605,1.419705633311885,1294.007588285119,2999.3517692748815,2535.529942732147,17392.309886187388,7956.581243334464,3350.241741926935,18.84435205357259,8.373755226024203,989.6538311563993,0.0
0.7680700000000001,9.73155,1.5495700000000001,0.8487899999999999,9.65518,1.3922800000000002,-0.08330999999999995,0.06425,0.17259,0.0064600000000000065,0.026739999999999996,-0.0031899999999999984,13.854,-30.048,25.639,176.26500000000007,-80.217,-32.525000000000006,-0.17261667435703246,-0.07091284631824948,9.894299744674772,0.8405,9.5675,1.4210000000000003,0.8294999999999999,9.667,1.3735,0.0015,0.025,0.0495,0.0125,0.0585,0.006500000000000001,13.3,-30.05,25.55,178.14999999999998,-80.4,-30.15,-0.0028131703890965365,-0.018811973590118103,9.782610534837922,0.9433580153367014,1.6096614698438922,1.1909960642672166,0.266493650768644,0.07030467694257625,0.46019526464317295,0.8383184203511217,1.5797299919606516,1.1308414132406013,0.3019583554068342,0.26457526792956293,0.230964183154012,3.5563301309074222,1.4850239055314902,1.8670241026831977,12.800987266613461,2.3637705049348594,12.377991557599318,1.0230340594477088,0.8966914969289419,1.6765808113643075,0.8899243451000001,2.5910100474999997,1.4184716251,0.07101886589999999,0.004942747600000012,0.2117796816,0.7027777739,2.4955468475,1.2788023019,0.0911788484,0.07000007240000002,0.0533444539,12.647484000000002,2.2052960000000006,3.4857789999999995,163.86527499999997,5.5874109999999995,153.214675,1.046598686790058,0.8040556406646666,2.8109232170349996,77.06195083629797,973.1635385832163,157.10141704852475,85.29071386461223,965.5256104919246,141.87758885417918,8.51301568969791,6.814427849125087,18.600404553783015,2.58425210433831,5.116439323564906,1.75694737753464,1396.3403632200334,3005.9605729793047,2564.420972488503,17641.021695756208,8022.657743837573,3315.5828015850398,17.643107551816126,9.54961032984127,989.4306381917748,0.0
0.75713,9.611040000000001,1.8241899999999998,0.7670100000000001,9.59468,1.7675800000000004,-0.03829000000000005,0.05654,0.04328000000000002,-0.033499999999999995,0.018659999999999996,0.009939999999999997,13.876,-29.376999999999995,25.504,182.79,-78.529,-24.868000000000002,-0.05438337101802448,-0.0531734592304558,9.827399851483861,0.7245,9.5495,1.7345000000000002,0.792,9.6235,1.733,0.0115,0.003,0.004,-0.008,-0.0125,0.016,12.9,-29.9,25.9,181.95,-78.8,-24.85,0.006959043783908353,0.02867612273420378,9.727593382823137,1.0266701578890856,1.5404922649594839,1.2518994663710021,0.273298609400048,0.12183791528091745,0.5562836718797344,0.9412894166514356,1.518451536401475,1.1510370722092318,0.44583363489086375,0.4438169492031596,0.3131560895144784,4.782846850987391,2.309409231816657,2.257827274173115,13.955805243696974,3.087759543746889,10.821209544223787,1.1150446811403294,0.9466369071095041,1.5951195241749205,1.0540516131,2.3731164184000004,1.5672522738999999,0.0746921299,0.014844477600000018,0.3094515236,0.8860257658999999,2.3056950684,1.3248863416,0.19876763,0.19697348439999998,0.09806673639999999,22.875624,5.333371000000002,5.097783999999999,194.76449999999994,9.534258999999997,117.09857600000001,1.2433246409393388,0.896121433901848,2.544406296404025,76.18364728700921,961.1821801283747,183.413001754487,77.04113853743942,959.4774906347552,178.05858279783354,6.89733566589489,7.638035625922649,8.804871300757018,4.411648626720594,11.098951775485821,2.7972314159456073,1416.0593153159666,2940.483967358464,2553.5026236595286,18289.32892682267,7853.689570549338,2510.578584862393,8.177508288210266,7.673029246008196,982.7924994415474,0.0
0.6027600000000001,9.5944,1.95726,0.5844299999999999,9.561309999999999,1.9832999999999998,-0.02626999999999998,0.09948999999999998,-0.08852999999999998,-0.005079999999999993,-0.019280000000000005,0.009599999999999996,18.069999999999997,-29.648000000000003,22.154,197.771,-77.51100000000001,-17.668999999999997,0.006428722412964074,-0.019853211328896586,9.831521759919186,0.5005,9.394,1.7235,0.6605,9.597,1.9055,-0.1005,-0.14700000000000002,-0.369,0.0445,-0.058,0.0145,20.4,-30.3,21.7,198.6,-78.2,-18.450000000000003,-0.0018548958657678134,0.21803439448980322,9.608856795429936,1.3425093230216318,1.3068024410751613,1.5554300409854502,0.4289799821670004,0.12521011900002332,0.5256324476285688,1.1804161626731482,1.287815635058062,1.397468078025398,0.5121333357632561,0.5003780386867512,0.3243905362368021,5.329887428454751,2.4936110362283848,3.623490582297683,17.425557638136002,2.9459088580606148,12.376733777535978,1.1668130227445717,1.5701775265047275,1.2999840425854468,1.8023312824000002,1.7077326200000003,2.4193626123999996,0.18402382509999998,0.0156775739,0.27628947000000004,1.3933823171000004,1.6584691099,1.9529170291,0.2622805536,0.25037818159999997,0.10522922000000001,28.407699999999995,6.218095999999999,13.129684,303.650059,8.678378999999996,153.183539,1.3614526300463246,2.4654574647405045,1.6899585109768005,64.89215314181519,959.5155333605322,197.6500426220256,61.508658023432105,956.153029483822,200.6382087573569,7.523317955232728,10.423203557478203,11.157622182173197,2.9515104816024587,8.417897634167225,1.4845878062278066,1832.8764277985217,2968.4599007575403,2226.3953071790593,19800.758353484947,7752.631010881873,1890.1915247881504,4.122748311519698,9.536993418622789,983.1755075339664,0.0
0.27149999999999996,9.54557,2.22737,0.33039999999999997,9.50532,2.2936000000000005,-0.04006999999999998,0.026640000000000007,-0.028550000000000006,0.011940000000000001,-0.03981,-0.013000000000000005,22.143,-31.014,19.218999999999998,212.278,-76.01100000000001,-9.491,-0.05573486468610533,0.0206354207994688,9.840637270838931,0.0325,9.160499999999999,1.6915,0.3795,9.527000000000001,2.2365000000000004,-0.3835,-0.238,-0.5395,0.0345,-0.047,-0.0165,22.1,-31.4,19.65,210.9,-76.25,-10.7,-0.1550104902121212,0.6311192843461662,9.67436727209946,1.6596438322724547,1.3311201692935166,1.9298594024176992,0.45911360249942496,0.12070400821845144,0.47385738360819074,1.5129901536692165,1.2908085645826806,1.8029935794394831,0.4355435642963859,0.4467807895377777,0.2878563530652051,2.824225734604088,1.5457697111795146,2.08991363457919,11.237495984426426,2.7557900863454754,11.209603873464932,1.283892005183157,2.071571907385494,1.2735732878796486,2.7544176499999997,1.7718809051000002,3.724357313099999,0.21078529999999998,0.014569457599999992,0.22454082000000006,2.2891392050999997,1.6661867504000003,3.2507858475,0.18969819640000005,0.19961307390000002,0.08286128000000001,7.976251000000001,2.389404,4.367739,126.28131600000005,7.5943790000000035,125.655219,1.648378680973228,4.291410167468774,1.6219889196005786,39.18570537284968,954.5752601177257,223.69443465081252,38.282930183261804,950.5498314781667,230.72600968601208,8.691295507666421,6.268175145765532,8.392586039543287,3.2708374045049693,10.106968788871345,1.6284442460964361,2216.9566180244037,3102.255346111519,1923.172080297779,21232.936386720165,7602.366427777333,1081.2100750384022,8.879301718364637,11.902031324373885,984.0700991052122,0.0
0.5442499999999999,9.41541,2.5751399999999993,0.6437999999999999,9.38396,2.6545,-0.032059999999999984,-0.003970000000000006,0.007810000000000014,0.0020100000000000066,0.016040000000000002,0.005270000000000004,24.107000000000003,-31.894000000000002,16.37,213.627,-73.41900000000001,-13.32,-0.060000430100291116,0.06474837175403046,9.820274528975828,0.3185,8.9495,2.164,0.6125,9.3955,2.666,-0.3885,-0.4,-0.44499999999999995,0.0345,-0.010499999999999999,0.0175,24.2,-31.75,16.6,212.45,-73.35,-14.2,-0.14196018587730755,0.6681218455763471,9.722746396913848,1.6380788770691113,1.4255272084039645,1.7478635474201065,0.6419087006732345,0.15625632275207293,0.4643204604580763,1.4785069754316347,1.3541258025383018,1.656945923649894,0.4072435265292746,0.44630776197597105,0.28477706561449084,2.3221220898135395,1.3564527267840925,3.4664823668958706,10.152604148690127,3.105630209796395,11.974197259106766,1.1409113678025533,1.992089921785171,1.277603822251805,2.6833024075000003,2.0321278219,3.055026980399999,0.41204678000000006,0.024416038399999986,0.21559349,2.1859828764,1.8336566891000001,2.7454697939000003,0.16584728989999997,0.19919061840000002,0.08109797710000001,5.392251,1.8399639999999997,12.016499999999999,103.07537099999998,9.644939,143.3814,1.301678749181093,3.9684222564780494,1.6322715266324213,65.05692932618152,941.5620179978599,258.5025900550976,73.61821376070412,938.426779618255,266.45551874290766,5.700245822641207,7.5833417075175555,8.804565990099453,3.6032334636251964,5.558879383077683,3.0511450912388245,2412.3432881028966,3190.0229038830366,1646.9597822816584,21368.08506660017,7343.575851675352,1488.745512153929,7.676317896288379,13.621791650234943,982.0450139216947,0.0
1.16647,9.319650000000001,2.709669999999999,1.2006700000000001,9.31427,2.714689999999999,0.0029300000000000025,-0.001669999999999987,0.039860000000000034,0.009020000000000005,0.03214,0.011229999999999995,23.728,-32.613,15.117,206.05199999999994,-72.054,-23.390999999999995,-0.007691066961080999,-0.031073910192417998,9.81197364234898,1.0675,8.8565,2.5460000000000003,1.157,9.3315,2.7465,-0.2495,-0.383,-0.2,0.064,-0.043,0.010499999999999999,23.65,-32.8,15.2,207.2,-72.15,-22.5,-0.059094106550375725,0.3973384132558758,9.757681190400092,1.5756384004904171,1.559516177376817,1.5830386227442461,0.6038395656960547,0.15958181945321978,0.46205291244618296,1.3635507196653889,1.5154127494184546,1.4828464588081938,0.4404354658744003,0.4448031704023702,0.28629424915635315,2.1814252221884662,1.8321383681370789,3.2453676217032794,10.793817489655824,3.0849447320819214,10.762491300809492,0.9708172559887371,1.8915943393695611,1.4775356043706023,2.4826363691,2.4320907074999996,2.5060112810999997,0.3646222211,0.025466357100000038,0.21349289390000004,1.8592705651,2.2964758010999997,2.1988336204000003,0.19398339960000002,0.1978498604,0.0819643971,4.758616,3.3567309999999986,10.532411,116.50649599999996,9.516884,115.83121899999998,0.9424861445255012,3.5781291447349663,2.1831114621828007,119.36092535612686,931.9951560839667,271.77177543519696,121.54696068330354,931.4479170457801,272.2093512651081,9.512939927918667,8.919131028635755,8.419082023399937,3.8554658860995743,3.3004903841825612,2.1968781863332887,2374.1132416052083,3262.364640877772,1515.1511082439238,20607.83700330058,7206.519013288011,2364.442099894372,7.395849732995827,8.952776144661435,981.2347035070756,0.0
1.3244900000000002,9.409339999999998,2.69387,1.3022900000000002,9.30538,2.70159,0.033310000000000006,0.11457000000000005,0.01760999999999998,-0.00697999999999999,-0.012959999999999998,0.016439999999999996,21.983000000000008,-32.351,15.540000000000003,201.93599999999998,-71.80699999999999,-25.526999999999997,0.06987301242723815,-0.014170662552981448,9.92023818786019,1.1925,9.0765,2.3885,1.3815,9.317499999999999,2.728,-0.10200000000000001,-0.054,-0.203,0.012,-0.063,-0.0025,22.1,-32.349999999999994,16.3,201.55,-71.95,-26.65,0.06025372946282004,0.43459230180223596,9.829822812146597,1.5408323886458253,1.6840427917365994,1.8761243010792221,0.5689374006865782,0.1532257667626435,0.4887559123939065,1.3416499073528831,1.6993258384135752,1.6399981396026035,0.5191415217452752,0.5271255433006449,0.32236830861609206,2.4712772001537995,1.7435879673822023,3.634473827117207,11.20771627049864,2.9403827982084234,10.661030484901541,1.0799739037082388,1.9271863869194819,1.7263533207194057,2.3741644499,2.8360001244,3.5198423931,0.3236897659,0.023478135600000026,0.2388823419,1.8000244738999998,2.8877083051000003,2.6895938979000005,0.2695079196,0.2778613384,0.10392132639999999,6.107211000000001,3.040099,13.209399999999999,125.61290399999996,8.645850999999999,113.65757099999998,1.1663436326908123,3.7140473699277665,2.9802957879589194,135.8850951277196,940.9936935411548,269.93033947837523,132.41534369466007,930.546652991041,270.47144400877863,8.665676160549383,14.11900960654016,9.697832101246595,2.719383648634145,3.9423207442041996,4.0338620697535195,2200.3312379541867,3235.812535251113,1556.3024696394573,20197.468352082375,7181.11289694649,2594.226738589699,10.406364331320209,8.233889911144027,992.0406028494888,0.0
1.3404399999999999,9.435859999999998,2.4645099999999998,1.4115,9.336049999999998,2.51689,-0.08053000000000005,0.14502000000000007,-0.03264,-0.016029999999999992,-0.019480000000000018,0.033159999999999995,21.156000000000002,-32.749,15.219999999999997,198.40600000000003,-72.38699999999999,-29.660999999999998,0.0028020898176162497,0.09198211209113488,9.882976709666906,1.2189999999999999,9.178,2.1465,1.441,9.343499999999999,2.4405,-0.1375,-0.054,-0.258,-0.058,-0.0635,0.069,20.95,-32.5,15.5,199.75,-72.4,-29.65,0.02669402094339557,0.4574243826077614,9.582110034438315,1.3954013352437356,1.763612548265633,1.9173332652149964,0.5626666775276461,0.14797117117871303,0.5865547185898347,1.2550034936604757,1.7755652338340038,1.6413199110472032,0.54071980646172,0.5778042658201824,0.32052116061190095,2.5296371281272734,1.552062820893536,4.022138734554043,13.416741929395526,2.911757373133964,12.711411369316941,1.070422664102622,1.8298972899336556,1.8610905012917345,1.9471448864,3.1103292203999997,3.6761668498999995,0.31659379000000004,0.02189546749999999,0.3440464379000001,1.5750337690999998,3.1526318996000002,2.693931050399999,0.2923779091,0.3338577696,0.10273381440000001,6.399063999999999,2.408899000000001,16.1776,180.008964,8.478331,161.579979,1.145804679824555,3.3485240917065373,3.463657853998319,135.79283087741513,943.5874396802786,247.37811530076254,142.90890551221491,933.6119489709306,252.56969276651665,12.375906306570592,15.310305382267153,6.544885835894129,3.241425855290015,2.955606661948595,4.090120666984407,2116.7933082609684,3275.5408735192814,1524.2622724496205,19847.25741259915,7239.093682939066,3018.5673727193084,9.748793561035653,10.61722996607912,988.3048454160033,0.0
1.3913400000000002,9.42786,2.10995,1.47329,9.37054,2.22487,-0.05664999999999999,0.07447999999999999,-0.08016,-0.0019699999999999917,0.01360999999999999,0.014740000000000001,20.785000000000004,-33.42700000000001,16.757,195.49900000000002,-73.737,-31.480000000000004,-0.03783571873082516,0.13508657301969534,9.824435502237682,1.3094999999999999,9.307,1.98,1.4330000000000003,9.4075,2.1635,-0.28200000000000003,-0.067,-0.2705,0.04,0.005000000000000001,0.0245,20.6,-33.45,17.9,194.05,-73.5,-33.2,-0.08877291767341208,0.3344339997200514,9.737748561540418,1.6196279154176123,1.6854690980258287,1.776227493171975,0.8097139654841085,0.28364750730440064,0.7122899782392,1.3678067215436542,1.6996936105074938,1.5550477209397788,0.5220123648918673,0.5310271159743163,0.349972559495741,2.4450920228081396,2.6605208136753977,4.64125532587898,12.987043504970636,5.516822545632586,13.552276561522792,1.0486900799408652,1.7511749625088928,1.7848438182276198,2.6231945844,2.8408060804,3.154984107499999,0.6556367059,0.08045590840000001,0.5073570131,1.8708952275,2.8889583696,2.4181734144,0.2724969091,0.2819897979,0.1224807924,5.978475,7.078371,21.541251,168.663299,30.435331000000005,183.66420000000002,1.099750883766378,3.0666137493180226,3.185667455465349,145.86157045421638,942.8485792937514,213.82066842469575,153.32436611650076,937.1564540332193,224.49586478063483,9.691499897096126,10.782358646733739,8.255941253171118,4.266194198414488,2.752892898105679,4.1012487247257665,2080.3546500623033,3345.7399144072883,1684.2992458723018,19554.737227210644,7378.836691777425,3206.198172478602,6.397604931065508,13.56849869952727,982.4506987679881,0.0
1.1445299999999998,9.57639,1.8163,1.1969800000000002,9.478879999999998,1.9066000000000003,-0.07138000000000001,0.11254,-0.15505,-0.007309999999999995,0.020490000000000005,-0.010590000000000004,20.516,-31.60099999999999,19.647000000000002,192.7,-76.335,-30.774,-0.05289312475453222,0.07867088027715177,9.875382422058834,0.7745,9.425,1.5525,0.962,9.586,1.79,-0.567,-0.062,-0.2965,0.0285,-0.021,-0.0565,20.4,-30.799999999999997,20.05,193.25,-77.85,-29.95,-0.04756364709688826,0.343104956245446,9.90367517867205,1.7614011550751292,1.5557927811569252,1.6486026780276684,0.7622631826344495,0.2967503422070479,0.7647196872057107,1.50375777158424,1.6318704998865567,1.4383151349756422,0.5292423394816406,0.48275999202502273,0.34660799457023495,2.4611672027718883,3.1317565358756734,4.542630405392893,14.317003876509917,5.882301845366318,13.443084616262743,1.040513852730835,1.8210365414058507,1.6205085946027495,3.1025340290999996,2.4204911779000002,2.71789079,0.5810451596,0.08806076560000001,0.5847962,2.2612874355999995,2.6630013284000005,2.0687504275,0.28009745390000007,0.2330572099,0.12013710190000002,6.0573440000000005,9.807898999999999,20.635491000000002,204.97659999999996,34.60147499999999,180.71652400000002,1.0826690777247658,3.316174085135383,2.626048105181378,122.80998074751285,957.7390331548975,186.1960663422454,127.37174142039801,948.0304716717745,194.44260873553057,10.480473419777784,12.34322758581067,16.241255575122917,4.66378224155991,2.695503969573698,3.207845913248717,2053.8064488512287,3165.617094043569,1975.4873095016576,19280.51290207611,7640.405648839985,3148.416578463238,6.540537046852149,8.87205474107254,987.5491660553947,0.0
0.968,9.596870000000001,1.84268,1.11291,9.504230000000002,1.92134,-0.16399999999999998,0.12141,-0.15366,-0.0030199999999999906,0.021509999999999994,0.002010000000000002,20.541,-31.375999999999998,20.443,191.00799999999995,-76.615,-31.294,-0.08503292086833295,0.11484714984412463,9.85372925027201,0.623,9.376999999999999,1.542,1.033,9.571,1.813,-0.473,-0.0585,-0.36250000000000004,0.007000000000000001,0.0185,0.0095,20.6,-31.1,21.5,194.0,-77.4,-28.6,-0.1315192662064938,0.5940384037512432,9.744453973078429,1.5783071564179134,1.6155089641038824,1.893709042487784,0.44418590916416967,0.2553195587885896,0.8046464219767587,1.4788080876165102,1.685542803342591,1.7326091551183722,0.5699991224554648,0.5025596978469324,0.29461552895256554,2.1292766377340455,2.635189556749191,4.478978789858242,12.810219982498351,5.017297579374778,11.633914388545241,1.0580201986365334,2.05091324638148,1.6362797810793734,2.4910534799999997,2.6098692130999996,3.5861339376,0.1973011219,0.06518807710000005,0.6474558644000001,2.1868733600000003,2.8410545419000006,3.0019344843999995,0.32489899959999996,0.25256624990000004,0.0867983099,4.533819000000001,6.944223999999999,20.061251000000002,164.10173600000005,25.173275000000004,135.347964,1.1194067407228898,4.206245144183022,2.6774115219691623,97.23175341909155,959.7177593832913,186.96015107616304,112.3629442086997,950.4843161045077,195.2986166447677,18.479302817697636,13.140238029603974,16.82577660271664,5.305687941774398,2.216192072105899,0.9452628457732277,2054.451255336894,3140.765847463443,2047.7881221619584,19104.91255360695,7664.39554894505,3164.1182124957277,9.6685015343905,16.918548466290407,985.380434645969,0.0
0.52318,9.558680000000003,1.8617799999999998,0.64607,9.50951,2.06446,0.008680000000000014,0.050200000000000015,0.03138999999999999,0.020499999999999997,0.033009999999999984,-0.001210000000000005,17.182,-32.169000000000004,22.780000000000005,197.72899999999993,-76.683,-15.645,-0.020341118463082893,0.23639089482295872,9.78816596866451,0.415,9.3975,1.663,0.453,9.595500000000001,1.9569999999999999,-0.09,-0.1075,-0.12050000000000001,0.051000000000000004,0.038000000000000006,0.005,18.45,-31.6,23.95,198.3,-78.05,-13.55,-0.09746684339911556,0.24684072872599438,9.638517373470602,1.2597784835438333,1.3702044291272741,1.9667515276719632,0.6808591668619878,0.25740390420504516,0.7283537522385671,1.5383922573908126,1.5044003855357124,1.7508701773403987,0.48352117843999354,0.42302298980079084,0.3029780617470513,4.3751201126369095,2.283930603148878,5.220747072977199,10.64549947160771,4.956088276049973,15.94080534352013,0.9866388206904945,1.9189236329051553,1.3858959131937012,1.5870418276,1.8774601775999995,3.8681115716000005,0.4635692051000001,0.06625676990000005,0.5304991884000001,2.3666507376000006,2.2632205200000004,3.0655463778999996,0.23379273000000006,0.1789484499,0.09179570590000002,19.141676,5.216338999999998,27.256199999999993,113.32665900000002,24.562810999999996,254.10927499999997,0.9734561624935297,3.6822679089219195,1.920707482207003,61.532840783695875,955.896684158808,188.6715179226886,77.21438072702051,951.0076678106924,207.64458259682422,15.731924324086274,11.140689012507542,13.769902857709047,4.776593400052189,3.7565513085564084,2.2484348073971776,1734.1246415788157,3218.1093412764762,2292.00050415058,19776.74968010601,7670.791995117485,1862.625331686669,7.677024250974603,31.59152213018589,978.8362113188176,0.0
0.08399999999999999,9.660089999999999,1.7510699999999997,0.12678,9.61085,1.86025,0.047560000000000026,0.06873000000000003,0.12591,0.023509999999999996,0.014840000000000002,-0.002189999999999997,11.825,-30.945,26.879,196.608,-78.75200000000001,-4.13,-0.01398493551545141,0.09374048171695445,9.829884669981267,0.1245,9.607,1.7805,0.042499999999999996,9.626,1.838,-0.0125,-0.0645,0.109,0.044,0.009000000000000001,0.01,11.7,-31.1,27.1,198.2,-78.85,-1.3,-0.01754732263749608,-0.09494711116705112,9.73166100730735,0.7223121347450837,1.0587144194257487,1.2666340375578102,0.3533073047645633,0.08933211908378749,0.4389259248438169,1.216440317648178,1.1834872779628856,1.0517098848541835,0.3090820439624405,0.23795254652976505,0.23541940000773087,3.294521968358991,1.6202700392218576,1.7112740867552456,12.70457933187872,2.4476306910970043,11.784867415461237,0.6553579714793238,1.1883625712725183,1.0771715865870588,0.52173482,1.1208762219000001,1.6043617851000005,0.12482605160000002,0.007980227499999989,0.1926559675,1.4797270463999999,1.4006421371000004,1.1060936819,0.0955317099,0.0566214144,0.055422293899999996,10.853875,2.6252750000000002,2.9284589999999997,161.40633599999998,5.990895999999999,138.8831,0.42949407078149426,1.412205600801431,1.1602986269504816,20.62652671489291,966.0158924023054,176.4323024603627,23.750564609901982,961.088475833805,186.45116956973285,12.252904163358156,7.699272811274402,15.799157956093838,3.0673320932910793,3.3155314374523583,2.6477605053478803,1190.7999957781676,3095.0197587733865,2688.922249462072,19670.446024870907,7875.555601591202,783.020700194215,4.5260540157314475,22.68006413277911,983.0044022260934,0.0
0.2275,9.685410000000001,1.64129,0.30734,9.64294,1.65018,-0.09907000000000002,0.049909999999999996,-0.017380000000000017,0.0010600000000000004,0.0007299999999999967,0.0010000000000000022,7.938000000000001,-29.976,28.081000000000003,183.21099999999998,-79.73899999999999,-11.857000000000001,-0.051523666669142286,-0.001667250187328042,9.846650656141453,0.18,9.589,1.6845,0.29800000000000004,9.654,1.6195,-0.07100000000000001,-0.012,0.059,0.0165,0.009000000000000001,0.017,7.9,-29.8,28.2,184.1,-79.9,-10.1,-0.02455213098168966,-0.03160352979376779,9.736737982541516,0.7958498664949313,1.2793083216723011,0.9487757300331834,0.42694550518772295,0.07105685329368312,0.42264058915347924,0.641360947595034,1.2502568863637586,0.9114328256103134,0.31465202430621675,0.3244825682529032,0.2523314883243865,3.2886404485744563,1.5355858816751344,1.4932980278564625,17.194283323244388,2.232213923440135,15.774423951447481,0.6410630502257688,0.8231279905051393,1.2943144999732863,0.63337701,1.6366297819,0.9001753859,0.18228246439999998,0.005049076400000006,0.17862506760000005,0.4113438651,1.5631422819000003,0.8307097955999998,0.09900589640000002,0.10528893710000001,0.06367118,10.815156,2.358024,2.229939,295.64337900000004,4.982779,248.832451,0.4109618343647665,0.6775396887530286,1.675250024841098,34.90598064271007,968.5481151814784,165.96415096764298,40.01483088650435,964.2990254994925,166.1840238056292,11.097713688471407,6.283470227515376,8.249522117294052,2.379304920480489,3.354957204536509,2.861508795954942,806.401313395605,2998.623904721117,2809.180059093731,18345.865370734155,7974.501712343767,1491.5297156086808,6.3898975975738415,6.193460274769461,984.6693431207399,0.0
0.40153,9.71212,1.5251500000000002,0.45049,9.66415,1.54839,-0.05479,0.027239999999999993,-0.06387000000000001,-0.006280000000000001,-0.034460000000000005,-0.012840000000000002,9.783999999999999,-30.263999999999996,27.552999999999997,182.39899999999997,-80.37,-16.69,-0.040277512635181936,0.031160358640231253,9.843645334774378,0.35350000000000004,9.6155,1.5985,0.46299999999999997,9.6685,1.5550000000000002,-0.018,-0.093,0.020999999999999998,-0.0205,-0.0395,0.002,9.8,-30.3,28.0,186.5,-80.5,-16.25,-0.01976367541514752,0.05646712482497529,9.70471153975681,0.8175310691955382,1.411738306344345,0.9943049067061874,0.27875908935853555,0.049055351390037076,0.3062368003686037,0.7335011151320767,1.401487460664561,1.0069947532633923,0.28202790925722226,0.38691620333090215,0.2443139668541281,5.412720572872757,1.3936656700945171,2.1113718289301864,15.137301575908435,1.6833597357665413,10.936183063573871,0.8414080182760466,0.8602576619339255,1.454176976528212,0.6683570490999999,1.9930050455999995,0.9886422475000001,0.0777066299,0.002406427500000013,0.0937809779,0.5380238859,1.9641671023999998,1.0140384331,0.07953974159999999,0.14970414840000001,0.0596893144,29.297543999999995,1.9423039999999994,4.457891000000001,229.137899,2.8337,119.60009999999998,0.707967453219224,0.7400432449160241,2.114630679064732,43.13022822117027,971.2344144213944,152.5834844497985,46.370351175526714,966.4159955146365,154.9696181059633,10.072150369685561,7.026802391397983,8.419546668345207,0.7886365736815317,5.979368631017471,2.2656048293147557,1017.0131437608708,3027.0969944062567,2757.87996299765,18250.272107562883,8037.121314524239,1703.4475746096175,7.625791436632936,4.462684216172509,984.3820443479239,0.0
0.3127,9.677010000000001,1.8923400000000004,0.37719,9.60782,1.87817,-0.06641,0.06384999999999998,-0.005450000000000013,-0.0008699999999999974,0.004640000000000003,0.00682,11.912,-31.265,25.703999999999997,190.68300000000002,-78.66900000000001,-12.009999999999998,-0.07833001645284096,-0.008788927924374114,9.873111184207048,0.3735,9.779499999999999,1.854,0.3735,9.625,1.7985000000000002,-0.022,0.1005,-0.0315,-0.0345,-0.001,0.0045000000000000005,12.4,-31.1,26.25,190.75,-78.95,-12.149999999999999,-0.015729188069241645,0.06005850330999418,9.943444424475338,0.8870338268634406,1.707635051730902,1.257020415267787,0.17870409592396028,0.07549905694775269,0.39129122287626134,0.7996388321611201,1.6704662126185013,1.1925707725330181,0.23388688099164517,0.33106532648406417,0.14110870844848664,5.182475856190745,1.1808789099649464,2.3287730675186022,10.634350520835769,2.220841957456676,6.6209289378455045,0.9417960063676819,0.943292732805806,1.8289021625499315,0.7868290100000003,2.9160174699000003,1.5801003244,0.0319351539,0.005700107600000003,0.15310882110000001,0.6394222619,2.7904573675,1.4222250474999998,0.05470307309999999,0.1096042504,0.019911667600000002,26.858056,1.3944750000000001,5.423184,113.089411,4.932138999999999,43.8367,0.8869797176101147,0.8898011797642456,3.344883120179816,32.727730798304115,967.7206477641647,190.32222798971247,37.88651198791534,960.7891052261774,188.8014147386979,9.23651911762142,6.875675839731885,5.569854147116835,0.9628533010352285,5.709468874026693,1.846140711939427,1235.0376163351882,3127.138612497827,2574.0094248999053,19079.274020910867,7867.694056279024,1217.3630024759034,10.97196592498811,5.54555341917083,987.3145263142387,0.0
0.28119,9.722620000000001,1.4431,0.33895999999999993,9.64679,1.5011999999999999,-0.06447000000000001,0.06751999999999998,-0.05028999999999998,0.01261,0.04069,0.014110000000000001,4.5360000000000005,-30.128999999999998,28.711,168.003,-80.41900000000001,-21.796000000000003,-0.012937348617938396,0.08152040145803151,9.873509284395363,0.363,9.7925,1.33,0.33699999999999997,9.654499999999999,1.67,0.0785,0.1005,-0.1585,-0.008,0.06,-0.004,2.8499999999999996,-30.45,28.1,178.39999999999998,-80.0,-10.75,0.12454478538727468,0.10802091584534507,9.997081175798751,0.9193101728470103,1.8969501352434124,1.4392550677346945,0.22388764682313314,0.10838305171935327,0.8240791830886156,0.8498059126059314,1.8163687977941045,1.1798591212089689,0.29598732726250293,0.3495044404582008,0.17449199953006442,7.057924907506455,2.3720579672512225,4.533384938431767,36.52683247969909,3.9460282563610707,29.809994699764708,0.9082621188708686,0.9673124668042082,1.9880440702119184,0.8451311939,3.5984198156000002,2.0714551500000002,0.0501256784,0.011746885900000005,0.6791065000000001,0.7221700891,3.299195609600001,1.3920675459,0.0876084979,0.1221533539,0.0304474579,49.814304,5.626659000000001,20.551578999999997,1334.209491,15.571138999999993,888.635784,0.8249400765757998,0.9356934084348424,3.952319225104771,29.656034313290093,972.2964273443849,154.27952900263696,34.956412983128764,964.6991000689236,157.6913249780145,12.120870233080327,6.810045064262185,10.062997280323323,1.7635941435248486,5.860639693879857,1.9153932186455935,624.20557624293,3016.2157006897387,2883.3941214438123,16906.31957644832,8045.345182339387,2660.5117152692515,8.852810186699497,14.013936468331439,987.3520248718354,0.0
0.2915499999999999,9.916549999999999,0.44835,0.28259000000000006,9.76193,0.5314,-0.017009999999999997,0.13086000000000003,-0.05367,0.010410000000000004,-0.03667,-0.006520000000000006,0.845,-26.38,33.518,149.05800000000002,-85.12700000000001,-33.625,0.08216776997821915,0.15446531637247524,9.949692811104482,0.237,9.838000000000001,0.3605,0.287,9.781,0.372,0.17550000000000004,-0.0145,-0.2835,0.005,-0.013,-0.01,0.45,-26.0,33.8,158.4,-85.85,-20.1,0.21412704433992125,0.11397288866041166,9.883407854251796,0.9879948823248023,1.7400356799502703,1.0573306235515927,0.3816254995411077,0.04714705823272537,0.6039537233927779,0.8869222795149528,1.682884898143661,1.003855189307701,0.3531687159135135,0.36643730855359147,0.2021280030079949,4.396143196029902,3.020993214159873,2.619709144160855,54.64134914146977,2.544950097742586,53.43642273767959,0.8561517875761189,0.9706280029277564,1.7446135431187169,0.9761338875,3.0277241674999997,1.1179480474999999,0.1456380219,0.002222845099999997,0.36476010000000003,0.7866311299000001,2.8321015804000003,1.0077252411000002,0.12472814189999999,0.1342763011,0.040855729599999994,19.326075,9.1264,6.862876000000001,2985.677035999999,6.4767709999999985,2855.451275000001,0.7329958833697838,0.9421187200675247,3.043676414833243,37.04437522388172,991.6688926883251,55.47219763887966,36.24754860874227,976.1959524964201,63.331900603865684,7.090131902137789,14.538842309803503,11.210906743719772,2.0517550897060546,5.098617591250734,1.985377500731287,199.6012538130658,2643.3525587722197,3354.00250442388,15224.616116324536,8513.757489259831,4560.119047400455,10.04362075825894,16.764650676493837,994.9868964905564,0.0
0.26031999999999994,9.91082,0.37324999999999997,0.27907000000000004,9.781229999999999,0.39382999999999996,-0.06006000000000001,0.12775000000000003,0.019700000000000023,-0.002339999999999995,-0.03763999999999999,0.0011199999999999943,7.176000000000001,-24.891,32.57899999999999,159.98,-86.20800000000001,-33.364,-0.010690348666999217,0.09033068854931217,9.934224393143774,0.189,9.661999999999999,0.13749999999999998,0.3145,9.788,0.359,-0.021,-0.064,-0.22099999999999997,0.012,-0.0195,0.019,8.2,-24.8,32.349999999999994,164.55,-86.3,-32.9,0.0996016004305803,0.15621552927744983,9.768124919823126,0.9735565918835947,1.697853629615934,1.268597992864564,0.3551515522984519,0.02059556020116957,0.37308789996460623,0.8583065165778482,1.6970098253987806,1.2577825129965832,0.32575460764201014,0.3662220233683387,0.19835827585457583,5.988908414728012,2.224459260134921,2.7633781862061517,49.875478945068785,1.6054083592656418,48.35636570297648,1.0344477250365949,1.077106754399198,1.7157989752919878,0.9478124376,2.8827069476000005,1.6093408675000007,0.1261326251,0.00042417709999999995,0.13919458110000002,0.7366900764,2.8798423475,1.58201685,0.10611606439999999,0.1341185704,0.039346005600000004,35.867023999999994,4.948219,7.636259,2487.5634,2.577336,2338.3381040000004,1.0700820958333868,1.160158960372374,2.943966123613035,34.52732946440845,991.0854958196867,41.470555299821115,35.53869018250251,978.123396946118,43.25723882887098,6.742720622999702,13.013650797218046,8.009980136343687,2.1490360763193905,4.039135452634321,2.0896167332069138,803.9139754101241,2492.254870856151,3262.2677144576437,16260.227289465305,8621.069811407144,4356.020721994079,7.736245462083849,10.812850207163487,993.4246116784794,0.0
0.38014,9.810500000000001,0.82049,0.40653,9.73959,0.89205,-0.04028999999999999,0.08551999999999998,-0.017949999999999997,-0.005699999999999995,-0.003209999999999994,0.0036999999999999976,8.756000000000002,-26.182,29.617000000000004,166.07699999999997,-84.00400000000002,-30.877000000000002,-0.025340198575935835,0.07227417512554535,9.868463809847448,0.4585,9.7305,0.7745,0.37400000000000005,9.7595,0.8495,0.037,-0.0405,-0.191,0.019000000000000003,0.0,-0.0075,8.25,-26.6,29.2,171.85,-84.35,-23.25,0.060663071005460166,0.2559585282669943,9.784347449364319,0.7286510964789664,1.6495244860262004,1.3299090457245561,0.19531525567656,0.06002167858365841,0.5557954187468622,0.6620955413684644,1.6635007452958956,1.2357013180781187,0.30223019372656995,0.3240426297572589,0.18599567199265687,3.9342679115688095,3.6042302923093024,2.2379032597500723,21.70669875867816,3.015125868019443,21.652301748313043,0.974916442930022,0.9723660281121982,1.6720468349765811,0.5309324204,2.720931030000001,1.7686580698999999,0.0381480491,0.0036026018999999986,0.30890854749999996,0.4383705059,2.7672347296,1.5269577475,0.09134309000000002,0.10500362589999998,0.03459439,15.478464,12.990476,5.008211,471.18077100000005,9.090983999999999,468.822171,0.9504620706953268,0.9454956926266922,2.795740618355202,38.23538215970601,981.0545663408863,88.68128683606184,41.41396416500124,973.9659361871375,95.227960971659,6.060833342323884,8.682549563417819,6.601029148717125,3.3888425447937687,1.8930550862555082,1.187445888650973,903.7910254551331,2628.9332477133216,2964.8294498878013,16634.360464533274,8402.377686797288,3220.1581667622813,9.618885579450994,7.669322488401614,986.8484018738651,0.0
0.3680400000000001,9.789679999999999,1.0578800000000002,0.40098999999999996,9.71907,1.07967,-0.01970000000000001,0.07234000000000002,-0.017379999999999996,-0.02242,0.0006299999999999972,-0.007490000000000004,7.63,-26.945000000000004,29.455,167.542,-83.009,-27.375,-0.07400679374341597,0.012233489719781594,9.863526461577965,0.353,9.5045,1.052,0.37400000000000005,9.7395,1.0445,-0.009,-0.2405,-0.068,0.0029999999999999996,-0.030000000000000002,-0.0175,7.25,-27.65,29.25,175.15,-83.19999999999999,-17.9,0.03440805814264872,0.11757972728103087,9.621888179294515,0.672284640907406,1.768240627742729,1.1639110299331303,0.19660887543546962,0.06590648754106071,0.584266070467899,0.6200584730491149,1.7803061265973332,1.0809811078830194,0.33498322883392234,0.2933787536615424,0.1907975102038808,3.391356660689053,4.357668528008986,2.1079551703013037,26.196011833865096,3.080879582197266,25.847496493857967,0.8007989273026173,0.9532613215584288,1.78352501771408,0.4519666383999999,3.1266749176000004,1.3546888856000003,0.03865504990000001,0.004343665099999991,0.3413668411,0.38447251,3.1694899044,1.1685201555999998,0.11221376359999997,0.0860710931,0.0364036899,11.501300000000004,18.989275000000003,4.443474999999999,686.2310360000001,9.491819,668.093075,0.6412789219690225,0.9087071471793222,3.180961488812009,37.252070975677924,978.9809734298072,108.55267923210792,40.8432033282274,971.9122044707608,111.52711862092005,5.554070116837117,7.62749343954069,13.525545083680486,4.030001632225358,1.6560919159402636,1.2653303556473003,789.0326744512255,2705.9422317824547,2947.789616160601,16792.8193831269,8302.22665496561,2912.8905875849628,12.186110345317283,10.28958386037608,986.3656214593608,0.0
0.3281,9.77647,1.2891,0.3978600000000001,9.706889999999998,1.1450399999999998,-0.07352999999999998,0.06603999999999997,0.12635000000000002,-0.054029999999999995,-0.005190000000000005,-0.0021599999999999996,10.963999999999999,-28.705000000000005,28.901999999999997,177.283,-82.77699999999999,-23.343000000000007,-0.17416524508250197,-0.12848084408352453,9.890292622166326,0.2935,9.4815,1.1615,0.3615,9.739,1.0925,-0.048,-0.131,0.045,-0.049,-0.018,-0.0115,11.3,-29.4,29.15,183.45,-83.25,-16.7,-0.002809068170078353,-0.09632956681741978,9.62164795013998,0.9169284541336908,1.9302442356085407,1.416958570318836,0.23386603088092978,0.1057199976352629,0.6415618430050216,0.7876965844155985,1.9303654261305032,1.3078121606331699,0.3536021621823034,0.368101309288625,0.2155950704445721,3.5968741985229338,3.743083621828398,2.350105529545429,23.724932265445986,3.601384594846821,21.66184782053461,0.9899245634473667,1.0632569673511272,1.9869502354347264,0.8407577900000001,3.7258428091,2.00777159,0.0546933204,0.011176717899999992,0.41160159840000005,0.6204659091000001,3.7263106783999995,1.7103726475000003,0.1250344891,0.13549857389999997,0.0464812344,12.937503999999999,14.010674999999999,5.522996000000001,562.8724109999999,12.969971000000001,469.235651,0.9799506413164595,1.130515378620716,3.9479712380941145,33.6655358087567,977.6595292232038,130.51630942144368,39.902588439355654,970.6946122445602,117.62526138217196,9.963013780504829,7.060800192967476,14.387586669872844,8.29304700634599,3.2442418551169947,0.6186355206397144,1113.5595827311408,2876.565805118459,2891.887035803106,17762.305563589343,8278.849441800763,2491.617418998543,18.744261973121244,13.814167195778348,989.0334283935996,0.0
0.13588000000000006,9.614899999999999,2.07519,0.20108999999999994,9.535359999999999,2.0126999999999997,-0.059289999999999995,0.08159000000000001,0.06069999999999998,-0.028839999999999998,0.0020599999999999902,-0.010580000000000003,11.509,-31.98,26.659999999999997,191.273,-77.77600000000001,-9.039000000000001,-0.11721240986107662,-0.05812509409709384,9.898897037286156,0.127,9.389,1.8565,0.1775,9.622,1.7835,-0.013999999999999999,-0.0915,0.003499999999999996,-0.028999999999999998,0.0285,-0.0135,11.350000000000001,-31.7,27.2,194.3,-78.85,-8.45,0.054569457156938686,0.06842871180140342,9.63886929830216,0.9617392711124986,1.7329065208487155,1.597102211475521,0.3823616375893377,0.23111129440163675,0.9777146465099109,0.7950975700503681,1.7052886036973331,1.3267957529326055,0.3146100672260823,0.34081795199196885,0.21299897558439101,2.5817085428064885,2.881804989932525,3.072881383978236,12.049181341485404,5.79213466694275,13.488127334808194,0.927323547982939,1.083929107667215,1.7915665565437973,0.9249424256000001,3.0029650099999996,2.5507354738999997,0.14620042190000004,0.05341243040000001,0.95592593,0.6321801458999999,2.9080092219,1.7603869699999997,0.09897949440000002,0.1161568764,0.045368563599999995,6.665219000000002,8.304800000000002,9.4426,145.182771,33.548823999999996,181.929579,0.8599289626436663,1.1749023104482452,3.209710726526199,21.485860449254453,961.6150252526285,216.58176767565675,28.646206819885435,953.6566709455058,211.09925139199547,8.967588089477639,9.36294594100467,13.292851506115182,7.272862342244255,2.9196210847139685,1.5624557333265099,1156.3387782412412,3202.9177386851975,2672.8922834228924,19133.023710036727,7786.590989683031,1170.7476380817468,13.417901775921711,11.684346338296736,989.8963834983828,0.0
-0.028489999999999974,9.581439999999999,1.94882,-0.03826,9.54129,2.03292,0.03481000000000003,0.054540000000000026,-0.10029000000000002,0.02104,-0.0017399999999999972,-0.010319999999999996,11.861,-31.101000000000003,28.035,200.15200000000002,-77.774,1.168,0.003437094830426568,0.08107067402178454,9.828769006792278,-0.0225,9.313500000000001,1.8245,-0.0475,9.608,1.9405000000000001,0.081,-0.13749999999999998,-0.08449999999999999,0.014499999999999999,0.022,-0.019,11.95,-30.45,29.4,199.1,-78.35,1.25,0.13735505517195523,0.15679414907191036,9.634317893285536,0.8252495076641974,1.6541261398091744,1.4680464528072672,0.28908364256733726,0.22323791322264236,0.9310330786819553,0.7504649984509604,1.6000075401072336,1.1298572502311963,0.256196444940206,0.2935914378860528,0.17477007066428735,3.037627198982785,3.2821790018218087,3.669942097635874,10.335970975191445,5.599332460213451,8.934269751915933,0.7392987643470158,1.0723722755177818,1.693282183526452,0.6810367499000001,2.7361332864000003,2.1551603876,0.0835693524,0.0498351659,0.8668225936,0.5631977139,2.5600241284000003,1.2765774059000001,0.0656366184,0.08619593240000001,0.030544577599999997,9.227179,10.772699000000003,13.468474999999998,106.83229599999999,31.352524000000013,79.821176,0.5465626629650244,1.149982297299185,2.867204553048109,8.42260650059584,958.2494282651635,203.73824945245522,10.196683313416587,954.2301468863936,210.83956316571258,4.481469196738463,5.759650412249581,14.334359486031467,2.6410505798862256,2.716458904639104,1.4608660094879218,1193.99260068873,3116.1189558073715,2814.203206782594,20015.820180978375,7784.7486255772255,238.43856397422812,4.229512441122156,13.776901282903447,982.8801887472263,0.0
0.18751999999999996,9.77327,1.0214800000000002,0.19230999999999998,9.722309999999998,1.07434,-0.0007700000000000084,0.055870000000000024,-0.046470000000000004,-0.0009100000000000029,-0.005610000000000001,0.008140000000000001,14.344999999999997,-28.501999999999995,28.530999999999995,190.40499999999992,-83.244,-15.222000000000003,0.010634936433197325,0.044178794265544406,9.84122539430835,0.2515,9.588000000000001,0.911,0.209,9.745000000000001,1.046,0.034,-0.088,-0.101,0.024,0.0195,-0.008,14.0,-28.35,28.5,191.4,-83.5,-13.0,0.09363156585726105,0.22212769455374523,9.720656498111591,0.7951843997463733,1.8150668133983388,1.2711302724740687,0.3166495442914769,0.07564465546223344,0.5922520277719612,0.7356948396584008,1.7824073028070775,1.1666299623702454,0.2537846368478597,0.26951526468829184,0.1620338865793202,3.024644607222475,1.7433863599328752,2.5711357412629927,17.68862558256011,3.3448264528970704,20.385899931079816,0.8318880649150425,1.0808989596145469,1.850888199552011,0.6323182296000001,3.2944675371,1.6157721696000003,0.10026693389999998,0.0057221139000000025,0.3507624643999999,0.5412468971,3.1769757931000004,1.3610254691,0.0644066419,0.0726384779,0.026254980400000003,9.148475,3.0393960000000004,6.610738999999998,312.887475,11.187863999999998,415.5849160000001,0.692037752548094,1.1683425608958098,3.4257871272408846,20.053424104722264,977.3654184657012,107.47288233893794,22.97330410787511,972.2426762237764,114.03908561662661,5.532185068186213,8.206523437200483,13.014488902977464,2.8897574849231935,3.231213699797158,1.1630538618043158,1445.537072468129,2851.805816918349,2856.884670676649,19062.662685659176,8327.15011823157,1900.2754524906627,10.429487019681138,13.797093014252052,984.1349773575433,0.0
0.4467399999999999,9.69455,1.56554,0.49837000000000004,9.619589999999999,1.544,-0.012670000000000013,0.040510000000000004,-0.005629999999999999,-0.008159999999999995,0.01305,0.008230000000000005,12.247999999999998,-30.841999999999995,25.58,181.19299999999998,-80.286,-23.202,-0.049592666148422566,-0.01316237861159167,9.87991849076143,0.425,9.559000000000001,1.4485,0.4925,9.658999999999999,1.5815,-0.0305,-0.123,-0.14049999999999999,0.008,0.0135,-0.0155,12.25,-31.0,26.45,183.5,-80.5,-18.9,-0.021985421614815925,0.20015944891769966,9.720656498111591,0.6655799368971393,1.8706823801757475,1.5128845059686478,0.2076008986011381,0.18580807813440198,0.9615332651551894,0.6502430784714283,1.8112210880784265,1.1584721201220167,0.2566759716062257,0.22322770325387484,0.1730095289283223,3.875267216592941,3.0733753431691357,2.6526590432997605,9.935091896907648,5.604730501995613,13.205831893523404,0.7367544529681868,0.9761879108438729,1.9377534786235802,0.4429966524,3.4994525675,2.2888195283999995,0.04309813310000002,0.034524641900000035,0.9245462199999999,0.42281606110000003,3.2805218298999996,1.3420576531000001,0.06588255439999999,0.0498306075,0.029932297099999994,15.017696,9.445636000000002,7.036600000000001,98.706051,31.413003999999997,174.39399599999996,0.5428071239684521,0.9529428372777251,3.754888543917786,45.96204698778343,969.5802071582076,169.55753290581066,50.46019833524456,962.0354912427119,167.44312265707427,4.359663021616556,7.7805404164995515,3.361712462157538,3.7482498247308538,3.034842566595184,1.1351054401821428,1250.5644314034662,3090.8115580502763,2563.754545123896,18123.49239996405,8037.371713536692,2431.057424218224,7.9492379586537325,4.585135048327096,988.0101121067709,0.0
0.44536000000000003,9.689620000000001,1.6377200000000003,0.5201499999999999,9.61475,1.5712599999999994,-0.04370999999999997,0.05270000000000001,0.08125999999999997,0.013170000000000006,0.03420000000000001,0.004579999999999996,9.645,-30.709,27.572,178.54300000000003,-79.92099999999999,-16.828000000000003,-0.07043789905911248,-0.05526741151806135,9.88494221935212,0.498,9.59,1.4725000000000001,0.5495,9.666,1.5219999999999998,-0.067,-0.0405,-0.0405,-0.004999999999999999,0.021,-0.018000000000000002,10.1,-30.75,28.0,182.2,-80.4,-18.5,-0.06494041727678451,0.0504967569355651,9.742788834732767,0.7194785406111847,1.7841290187651788,1.4561430841782,0.2682910127082158,0.18098781036301878,0.9398190849307115,0.6642274052611801,1.7029729328442071,1.111133408911819,0.2623722567269642,0.2539917321489028,0.1979413640450121,2.5407626807712678,3.1286129514530874,3.8500929858900808,30.05250157640791,5.29458770821676,31.048765128423383,0.7686848993707225,0.9110739122812501,1.8572279524899924,0.5176493704,3.1831163556,2.1203526816,0.07198006750000001,0.032756587500000045,0.8832599123999999,0.44119804589999995,2.90011681,1.2346174523999998,0.0688392011,0.0645118,0.03918078360000001,6.455475,9.788219,14.823215999999997,903.1528509999999,28.032659,964.0258159999998,0.5908764745205778,0.830055673639463,3.449295667510169,46.09824566008483,969.089885111856,173.5137500124611,52.691041898656685,961.5403905356917,167.89515615541353,8.242205440727949,8.397387317359783,11.017034021128465,1.8620438458228032,4.630889528287873,1.5501594214266965,973.6983155440606,3076.850398473533,2767.4360878198813,17858.839816497886,7999.009412517277,1810.633826244628,7.749375660921974,9.758426057188352,988.5140401283074,0.0
0.52278,9.90618,0.82281,0.65462,9.741689999999998,0.7372700000000001,-0.14369,0.1528,0.12895,-0.006270000000000006,0.01295,0.00553,8.39,-28.253,30.695999999999994,156.26399999999998,-83.80999999999999,-37.337999999999994,-0.12962338534777001,0.013249866475146855,9.9673549042867,0.619,9.7925,0.625,0.675,9.752,0.6935,-0.10200000000000001,0.122,-0.0405,-0.015,0.015000000000000001,-0.013999999999999999,8.350000000000001,-28.2,30.7,153.10000000000002,-84.05,-42.45,0.01150617422068129,0.1053694555094375,9.866035217955615,0.9086814687226763,1.7545578439025602,1.1107811818265558,0.33775718437954805,0.043700273454521994,0.42752739923892596,0.8211670682023239,1.736422408286647,1.0557695427980482,0.2752238672426503,0.2761528698022166,0.18974501073809558,2.886052667572094,1.4327215360983445,1.013204816411766,35.66697778057457,2.3019339695134606,37.66794334709555,0.9935841351225634,0.8446810132861668,1.7762011353525955,0.8257020116000001,3.0784732276000004,1.2338348339000003,0.1140799156,0.0019097138999999996,0.18277967709999998,0.6743153539000001,3.0151627799999994,1.1146493274999998,0.07574817710000001,0.0762604075,0.0360031691,8.3293,2.052691,1.0265840000000004,1272.133304,5.298899999999999,1418.873956,0.9872094335672523,0.7134860142061457,3.154890473227849,55.479912370541534,990.6225066218498,83.71598640945571,67.64029171210922,974.1716582989242,77.021028813548,14.650660323999869,15.349366685033699,15.433944114746211,2.589296621028152,2.7542395825615897,1.8318113023992555,851.6263982287338,2826.1874990958445,3069.80500910796,15663.467333022341,8381.944639878062,3955.6121189569303,13.579121004273526,8.180017829818448,996.7408743915324,0.0
0.54201,9.844820000000002,0.80324,0.6331500000000001,9.73734,0.8463600000000001,-0.07512999999999997,0.09741999999999999,-0.052010000000000015,-0.012559999999999995,-0.012639999999999998,-0.002419999999999996,6.513999999999999,-28.567999999999998,29.950999999999993,156.183,-83.38,-38.254,-0.08042647602851506,0.11960144028885286,9.900012234816234,0.6205,9.596,0.7675,0.6545000000000001,9.744,0.907,-0.089,-0.20600000000000002,-0.182,-0.0055,0.001,0.019000000000000003,6.35,-28.65,30.3,156.85,-83.5,-38.599999999999994,0.06865167645112444,0.16391482066973723,9.716923834238871,0.9692030901209508,1.753684563312342,0.9941996793401214,0.3406063527005919,0.033568205194797,0.34726127109137866,0.8835117730398391,1.7537696837384318,1.0487821269930184,0.2837669226671777,0.2769467645595449,0.1686191080512526,1.954124868067545,0.9900383830943119,1.4811141076905587,22.115388556387607,1.6702095676890367,22.89559529691246,0.9833942014824839,0.8421891322291384,1.7763123283840374,0.9393546299000001,3.0754095475999996,0.9884330024000002,0.1160126875,0.0011268243999999962,0.1205903904,0.7805930531,3.0757081035999994,1.0999439498999999,0.08052366640000001,0.0766995104,0.0284324036,3.8186039999999997,0.9801759999999996,2.193699,489.090411,2.7895999999999987,524.208284,0.9670641555093721,0.7092825344448691,3.1552854879691203,57.64686120780234,984.4849171040253,81.02524693766478,66.57222177637989,973.7353154692497,86.52895988939409,9.513814751776994,10.031134558210717,10.087540084575439,2.8857257819753634,2.132237584349343,1.7811286853929016,654.8694575531797,2856.9942274671166,2995.703900790418,15666.30298258789,8338.417370378042,4044.12681784749,10.23564158840619,12.818675652479278,990.0043949432384,0.0
0.48038000000000003,9.83559,0.9080100000000002,0.50825,9.725670000000001,1.0640500000000002,0.009699999999999985,0.12935000000000002,-0.16621000000000002,-0.0007799999999999979,0.0226,-0.0003200000000000068,5.9049999999999985,-28.957000000000004,29.938,167.79,-82.889,-25.038,0.032558493628659466,0.14195444274671273,9.903202306796128,0.516,9.8335,0.9075,0.4745,9.7335,1.0905,-0.0805,0.10200000000000001,-0.16749999999999998,0.0225,0.048,0.0075,5.95,-29.0,30.1,167.6,-83.0,-24.0,0.1101817402981302,0.23834522195711022,9.850647188881648,0.9633720234675699,1.780642300379276,1.1481241265211704,0.2951425206573936,0.04364104833754569,0.31897875712968726,0.8760322197271055,1.7771454941844238,1.1066919290841513,0.28284499571319976,0.3138170804784214,0.18822602795575324,2.51667935979139,1.2619235317561837,1.721904759270965,12.768214440555111,2.034497235191043,12.909475434733976,0.9340313845894005,0.9538480010464092,1.8259714496253012,0.9280856556,3.1706870018999997,1.3181890099000002,0.0871091075,0.001904541099999999,0.1017474475,0.7674324499999998,3.1582461074999997,1.2247670259,0.0800012916,0.09848116,0.035429037600000005,6.333675,1.592451,2.9649560000000004,163.02730000000008,4.139178999999999,166.65455599999999,0.8724146273979926,0.9098260091002307,3.334171734846724,50.00521868563179,983.5626088338372,91.58411244205303,52.253165906060715,972.5683881191088,106.96171055146552,4.136119974389421,13.384767755406557,18.01461511938219,2.561643517902893,3.588457513036081,0.9222811037683505,594.140238044529,2895.869190827522,2994.67731890492,16788.962099186378,8289.221870843025,2556.501467263518,7.28458853482284,15.09206431623975,990.3230573990869,0.0
0.5065900000000001,9.79037,1.3286000000000002,0.55828,9.68048,1.36188,-0.03924,0.14288,-0.04970999999999998,-0.017280000000000004,0.009770000000000004,-0.00943,8.768999999999998,-29.979,28.699,174.66800000000006,-81.22399999999999,-23.06499999999999,-0.011242428622814833,0.030731585885220503,9.917123956619335,0.5135000000000001,10.009,1.1795,0.5525,9.6785,1.451,-0.11050000000000001,0.419,-0.0765,-0.0475,0.0275,-0.021,8.4,-30.15,28.85,172.5,-80.75,-21.8,0.12123571493668878,0.13672324487614418,10.220087731492978,0.9824232193408297,1.9125692230871016,1.4450073356215185,0.2599625773068116,0.06876415926920072,0.46880252303075326,0.9116828518733913,1.9397204813065205,1.3723774283701988,0.320780799924185,0.38173574249734593,0.24197438934730262,4.599188950238944,1.7419124547462193,2.5849756285118044,15.703552973769982,2.753620162622289,11.443700232005382,0.9469440980913351,1.1693223046796108,1.9924463780346213,0.9651553818999998,3.657921033099999,2.0880461999999995,0.06758054159999999,0.004728509600000003,0.21977580559999996,0.8311656223999999,3.7625155456,1.8834198059,0.10290032160000001,0.14572217710000002,0.0585516051,21.152539,3.034258999999999,6.682098999999998,246.60157600000002,7.582424000000002,130.95827500000004,0.896703124910012,1.3673146522212365,3.9698425693432813,51.79728350036007,979.0431863712892,136.24703104836274,56.45571171838011,968.0526466673,137.78425385484456,8.251128964222259,14.787332661556373,17.475719852754192,3.87308097515865,4.806774480076006,1.4347031857380685,915.9278608725708,2998.729905285402,2873.9478154722947,17485.617301544666,8123.231579464844,2339.803087172382,10.168129514815652,14.605660783711357,991.7147083534002,0.0
0.38351999999999997,9.70589,1.6626899999999998,0.44483999999999996,9.653559999999999,1.5732899999999999,-0.08253000000000005,0.0649,0.053390000000000014,0.0024599999999999895,-0.05309,-0.005419999999999997,16.012,-30.673000000000002,25.113000000000003,196.45299999999995,-80.17299999999999,-13.781999999999996,-0.045243920905414604,-0.0983785295827254,9.872542715029631,0.427,9.682500000000001,1.6115,0.4865,9.656500000000001,1.61,-0.0645,-0.017,-0.06,-0.08549999999999999,-0.016,0.004,16.65,-30.85,25.65,195.7,-79.9,-16.05,0.04565414209329135,0.012650757746765608,9.824490889739462,1.0275844537555052,1.9964156375614772,1.5470079682729498,0.4017774189772242,0.0700060454532321,0.3734201466177206,0.8925062067571295,2.020174628590311,1.572097871603419,0.3986156901076524,0.35587149632978476,0.26812072579343804,4.937616429007016,1.4685949067050448,3.0642667964784005,15.668787157913659,2.4729276172181023,14.007543539107777,0.8965975041650578,1.3455710049702436,2.111277281306731,1.0559298096,3.9856753978999997,2.3932336539000003,0.16142509439999997,0.004900846399999999,0.13944260589999996,0.7965673291,4.081105529999999,2.4714917179,0.1588944684,0.12664452190000003,0.0718887236,24.380055999999996,2.156770999999999,9.389731,245.510891,6.1153710000000014,196.21127600000003,0.8038870844750109,1.8105613294166316,4.457491758561942,45.826794404958505,970.5967004879416,167.09916435085051,50.212875606679354,965.3590642758146,157.7331518836006,10.162731234931341,9.636402012289011,12.891687498726567,2.140495734730211,7.023566752273736,1.8797973517252002,1620.129642388992,3067.768850605163,2515.74130738647,19661.370182606195,8017.768898811639,1610.1307442774169,9.167077023280118,14.23036056021958,987.2657441298425,0.0
0.82015,9.75343,1.6034399999999998,0.8748400000000001,9.609330000000002,1.5561099999999999,-0.05848999999999997,0.11098999999999991,0.02267999999999998,0.011809999999999985,-0.048780000000000004,0.004879999999999992,21.75,-31.242000000000004,20.764,197.886,-78.92300000000002,-25.953000000000003,0.01366106894220046,-0.019859931821797225,9.962409976716582,0.9244999999999999,9.5485,1.616,1.0339999999999998,9.626000000000001,1.5305,0.074,0.0645,0.022000000000000006,-0.025,-0.0115,0.007000000000000001,22.1,-31.15,20.65,195.6,-78.75,-29.450000000000003,0.07854305194745828,0.1758682708612337,9.784740416005263,1.2440617297787118,2.4866030895782303,1.6323044956134871,0.6703063735337744,0.10999064096549298,0.42824663209417074,0.988047605077812,2.461930297530781,1.5754579453606496,0.5088695057674414,0.4305147983519266,0.32434470182199676,2.9598141833567864,1.820504325729549,3.9014489616038808,13.993305685219628,3.1828243746710245,20.915025484086797,1.1372923674696767,1.1700764586833854,2.618331275039781,1.5476895875000003,6.1831949251000005,2.6644179664000003,0.44931063439999996,0.012097941099999983,0.1833951779,0.9762380699,6.0611007899,2.4820677376,0.2589481739,0.1853429916,0.10519948559999998,8.7605,3.314236,15.221304,195.81260399999996,10.130370999999998,437.4382910000001,1.293433929104782,1.3690789191650519,6.855658665851445,90.7602863588325,975.3651604191883,161.25389119521344,95.88231167939074,960.9438827855369,155.9976069838844,7.475820965556255,11.583683632824572,6.085606781936533,2.235291727178005,5.56423875625915,1.6122327356405026,2180.2667944649666,3125.1530473617045,2087.278368657296,19803.190453329327,7893.438771667345,2872.13580038185,6.0096535415103265,8.65840470165306,996.2633538137197,0.0
0.9936600000000001,9.78077,1.5494699999999997,1.06161,9.593839999999998,1.6095199999999996,-0.029129999999999993,0.15954,-0.07822999999999994,-0.00989,-0.07217000000000001,-0.024530000000000003,28.246,-30.441,10.881000000000002,210.449,-78.41600000000001,-33.19899999999999,-0.0031896233682215712,0.1472209898327144,9.979658991109476,0.911,9.7445,1.6145,1.0485,9.599499999999999,1.625,0.045,0.2635,0.1745,0.0020000000000000005,-0.043000000000000003,-0.002,27.45,-30.45,14.149999999999999,204.60000000000002,-78.1,-31.65,-0.03220418156976412,0.15675124002944113,10.027381420232821,1.1512303177036298,2.40185316726481,1.522336549222937,0.4549383671443858,0.10234888568030431,0.44044324220039976,1.0289234923452764,2.3907222399099397,1.4412474725389808,0.5189071573027298,0.4712757378647876,0.3318274990111579,5.16585752803927,2.3670697074653293,8.8916668291159,24.395300756498166,2.94308409665779,12.216361937991195,1.2463453970847536,0.9704174073443659,2.5205263645341884,1.3253312444000003,5.7688986370999995,2.3175085691,0.20696891789999994,0.010475294400000001,0.1939902496,1.0586835531,5.7155528284,2.0771942771000003,0.2692646379,0.2221008211,0.11010948909999999,26.686084,5.603019000000001,79.061739,595.130699,8.661744,149.239499,1.553376848834352,0.9417099444769609,6.353053154311932,102.05955207650402,978.1106675124513,154.98453848500927,108.72001697721042,959.3888349873605,161.00170915698905,4.907796897452838,17.531468869428558,8.478627108984842,1.6402502938612276,8.551488111288164,2.894245810376758,2843.1318581953356,3046.508817012354,1208.7449433787574,21098.394046549398,7842.041450734397,3372.06420422625,5.885672945833901,15.307402794921245,997.9928269942193,0.0
0.7155600000000001,9.734339999999998,1.5005800000000002,0.7875399999999999,9.634710000000002,1.55953,-0.054509999999999996,0.11022000000000003,-0.05811000000000001,-0.017669999999999995,-0.07238000000000001,-0.020789999999999996,33.766,-27.555,-3.343,241.82500000000005,-79.593,-26.541999999999998,-0.0581557763540588,0.13832126394423022,9.88507111461995,0.6825,9.7125,1.4555,0.8065,9.6355,1.6215,-0.0805,0.034499999999999996,-0.024,-0.0375,-0.043000000000000003,-0.0335,34.0,-27.4,-6.45,242.9,-79.25,-26.9,-0.08292339558776651,0.2358671594059364,9.897333401155826,1.0080938678516003,1.9836627597452146,1.4667087248666657,0.36224437662992093,0.07245982266056145,0.3919886083803967,0.954263291707273,1.9748516733162518,1.4054152901900563,0.45694632190225587,0.45796864041110935,0.24904799918891138,2.1398700895147815,2.1102310300059566,8.925102296332518,17.161791136125622,2.5445728521698885,10.793694270267247,1.1265591492488993,1.1211905148188943,2.088108681378328,1.0162532463999998,3.9349179444000004,2.1512344836000006,0.1312209884,0.005250425900000013,0.15365506909999999,0.9106184299,3.9000391316,1.9751921379000001,0.20879994110000005,0.20973527559999997,0.0620249059,4.579044,4.453075,79.657451,294.527075,6.474851000000002,116.50383599999999,1.2691355167564038,1.2570681705198572,4.36019786524754,73.07114663613986,973.4385969905484,150.3088600920829,80.45364079256417,963.4726519219531,156.11395290510958,8.44072047322075,11.822594996993832,9.70018889963678,2.3937299377095544,9.321368530325833,3.545541562735388,3377.562535254761,2757.6504889004104,674.605167514779,24200.953633529494,7959.625464317863,2691.363260372941,7.666767972500993,14.819576815362582,988.5104822316496,0.0
0.60063,9.746609999999999,1.3446500000000001,0.7000500000000001,9.65391,1.40989,-0.11062999999999999,0.10037000000000001,-0.03243,0.013460000000000001,-0.015489999999999995,0.006999999999999999,35.476000000000006,-26.319000000000006,-7.985,248.91300000000004,-80.205,-27.603000000000005,-0.03141973529421345,0.10749417465566273,9.882218110453596,0.6715,9.3915,1.2534999999999998,0.7794999999999999,9.657,1.4369999999999998,-0.049,-0.2405,-0.18600000000000005,0.0085,0.0605,-0.0245,35.7,-26.4,-8.3,248.8,-80.1,-29.25,0.0753744144318617,0.2944618971354418,9.6288245545579,1.0600034307019954,1.985202976498877,1.3501264487076756,0.5035072069990657,0.07763428301981032,0.4845618824257641,0.9205698197855501,1.9429193171874122,1.2891423447781085,0.445125272704213,0.48791291220872607,0.21561159523550674,1.6978880999641879,1.621215284902039,4.424576250896802,17.232264244724195,2.6665848945795823,19.383779069108275,1.0202431220450412,1.0696193805853071,2.0486501513602073,1.1236072731000002,3.941030857900001,1.8228414274999998,0.25351950749999996,0.006027081900000008,0.23480021790000002,0.8474487931000002,3.7749354730999998,1.6618879850999997,0.19813650839999997,0.2380590099,0.04648835999999999,2.882824,2.6283389999999995,19.576875,296.95093099999997,7.110675000000001,375.7308910000001,1.0408960280802126,1.1440856193236961,4.1969674426682,65.84422189567587,974.6661953420099,136.50207786336694,75.28093661517019,965.3945960246499,142.13853262068582,11.486546131481123,10.82611050104565,7.045785310372023,1.5242827742116158,6.945898000380873,1.188245597326161,3548.8859711981977,2632.8150971170553,832.6566045840301,24905.371318083748,8021.078150273551,2927.2552767748925,8.363288967489055,14.791771231985045,988.2236221373215,0.0
0.4921999999999999,9.767879999999998,1.0264099999999998,0.5972000000000001,9.69843,1.15693,-0.12996999999999997,0.06695,-0.0724,0.02514000000000001,0.015880000000000002,0.010379999999999999,36.654999999999994,-26.618999999999996,-2.81,239.697,-81.818,-29.849,0.004544554690828935,0.1735063612303714,9.853354964810308,0.602,9.6455,0.854,0.616,9.72,1.1075,-0.069,-0.1505,-0.35050000000000003,0.037000000000000005,0.10400000000000001,0.0015,36.3,-26.8,-2.8499999999999996,237.89999999999998,-82.0,-30.9,0.07179607048568584,0.3254058035045673,9.706496475132045,0.9923636329491322,1.769529458811014,1.2391685607293303,0.42296921873819604,0.06994715934189176,0.4809429541016273,0.8757417593674519,1.7506522006098186,1.18171683579443,0.3798890369568461,0.4303966375333339,0.19815639177175184,1.723680654877811,1.7494967847927017,4.397578879338039,17.373781712684202,2.593467948519897,19.212545354533322,0.9863689507284915,1.016940928812178,1.798053140880084,0.9847855799999999,3.1312345056,1.5355387218999998,0.17890295999999994,0.004892605099999996,0.23130612509999998,0.7669236291000001,3.0647831275000006,1.3964546800000002,0.14431568039999998,0.18524126559999998,0.0392659556,2.971074999999999,3.0607390000000008,19.338700000000003,301.848291,6.726076000000002,369.1218989999999,0.9729237069612252,1.0341688526933754,3.2329950974287347,53.61415588012452,976.7926507531295,105.25341239759727,63.25344217283629,969.8453665462475,116.79622875014961,15.440026987107128,7.211565568926193,14.618385957888275,4.038765045523873,2.908947515312401,1.9180481383447345,3666.7769598328805,2662.96626373016,366.3339337653592,23985.57648161465,8182.211596719932,3120.2308349407544,9.964871197419182,20.668923358507712,985.3368091212109,0.0
0.59774,9.76196,0.80187,0.6795300000000001,9.72674,0.9524900000000001,-0.1081,0.019370000000000012,-0.06728000000000002,-0.0016000000000000003,-0.012179999999999998,-0.00377,33.723,-26.153,-2.386,233.183,-82.945,-36.943,0.04042944580735363,0.207381526405572,9.827964849543687,0.6105,9.760000000000002,0.6599999999999999,0.648,9.7405,0.9195,-0.128,0.101,-0.28700000000000003,0.035500000000000004,0.0155,0.025,35.7,-26.9,-1.8,232.3,-83.45,-36.75,0.0471315642658172,0.33260736832259574,9.887457761480619,0.9953507685233381,1.9141819136121832,1.359061327939251,0.23672787985364122,0.04757176053080231,0.3639796558875235,0.8883550134940423,1.9047026311474449,1.3252690072585263,0.3311784413273303,0.42949794830709026,0.19423366623734414,6.246932927445275,3.598262219460944,4.735504619362122,13.88635340901275,2.1290079849544954,12.864091534189267,1.0773796660708121,1.095048233651773,1.950539051048301,0.9907231524,3.6640923984,1.8470476931,0.056040089099999996,0.0022630724000000007,0.13248118990000005,0.7891746300000001,3.6278921130999997,1.7563379416,0.10967915999999998,0.18446848759999998,0.0377267171,39.024170999999996,12.947491,22.425003999999998,192.83081100000004,4.532675,165.484851,1.1607469448628545,1.199130634023868,3.8046025896644067,59.97357138311842,976.1983566742142,81.53730738268816,68.2184834956882,972.6742546583084,95.45059293024407,12.646565523505856,3.0917904865813677,15.004955899375718,1.693383027426361,5.834528115469593,1.3386845048700349,3396.2738536704637,2623.3748287112057,358.9845622175966,23323.99496247342,8294.56625690769,3712.1017836052424,9.39596025399616,21.870077397195725,982.8025361676409,0.0
0.55637,9.85073,0.7039899999999999,0.7027499999999999,9.740089999999999,0.7596600000000001,-0.13868,0.12292,-0.03640999999999999,-0.013150000000000005,-0.031349999999999996,0.0006500000000000062,33.42300000000001,-26.247,-4.948,227.84199999999998,-83.66799999999999,-46.87300000000001,-0.022197291725716602,0.2085088414418237,9.910553947041533,0.47650000000000003,9.885000000000002,0.63,0.6980000000000001,9.747,0.7845,-0.135,0.277,-0.0345,0.02,0.0395,0.0225,35.9,-26.95,-5.0,229.60000000000002,-83.9,-43.2,-0.004751636211894242,0.26710872751180503,10.039400578126035,1.1291215138770494,2.1783676955693223,1.3505923181700688,0.21671725242813503,0.045665324919461604,0.42456076643985835,1.0032079832218241,2.192192690800697,1.3232437122087526,0.35919925876872294,0.47561584025345494,0.245200137642702,5.963234944222808,3.4825695972945034,3.7692301601255394,19.06101875556498,2.305640041290053,17.99442610921504,1.1787288052032925,1.0774064856291985,2.207504773396487,1.2749153930999997,4.7452858171,1.8240996099000002,0.046966367499999995,0.002085321900000001,0.18025184439999994,1.0064262575999998,4.8057087936,1.7509739219,0.12902410749999998,0.22621042749999998,0.0601231075,35.560171,12.128290999999999,14.207096,363.3224359999999,5.315975999999998,323.799371,1.3894015962159816,1.1608047352758601,4.873077324568276,56.40393556264145,985.0953204735946,72.38486032083559,70.3870262051573,974.0099571127598,77.25351817623329,15.571834354317659,14.451970065175072,8.437508292269897,3.0315697645510267,5.055422494611462,1.0832068486965858,3362.6287524075447,2630.4841147914885,526.6427355991315,22796.63756136173,8367.092533296453,4721.939787694766,8.495549228204816,21.76088863928295,991.0780622893026,0.0
0.56533,9.80983,0.65577,0.7745200000000001,9.741480000000001,0.65621,-0.18534999999999996,0.10185000000000002,-0.022370000000000004,-0.013970000000000003,-0.02038,0.008759999999999997,35.751000000000005,-27.501000000000005,-6.558,224.21400000000003,-83.74600000000001,-52.935,-0.09801301384534901,0.19452102684737865,9.863796585504248,0.426,9.7665,0.5135000000000001,0.766,9.748999999999999,0.6675,-0.2215,0.12400000000000001,-0.2075,0.026000000000000002,0.0325,0.0195,35.849999999999994,-27.6,-5.6,227.64999999999998,-83.65,-49.25,0.008508062308110647,0.22423416491039178,9.850321804342371,1.1548128164771987,2.18417199439513,1.2834565037818773,0.2788411547817144,0.04238525215213426,0.40475919495423446,1.0168332643555678,2.21399279300995,1.2075857042462865,0.4410062687763066,0.5113307105973589,0.2746824391911503,1.2490392307689937,1.3875514404878833,3.2405302035315144,18.499491993025106,2.1834568921780892,18.921619248890938,1.214710026477213,0.9914096810027261,2.2211519094865433,1.3335926411,4.770607301099999,1.6472605970999998,0.0777523896,0.001796509600000002,0.1638300059,1.0339498875000002,4.901764087499999,1.4582632330999998,0.1944865291,0.2614590956,0.0754504424,1.5600989999999997,1.9252989999999999,10.501036,342.231204,4.7674840000000005,358.02767500000004,1.4755204484242717,0.982893155585927,4.933515805015717,57.311607758553734,981.003058168271,65.84467927400544,78.12677242216978,974.1485063403763,66.23991627570099,19.54817813117014,12.106176801863217,10.789677319363166,2.7013652815508733,4.244786478286971,1.4078349938738015,3575.532940448534,2750.5546129045288,676.9791229733753,22427.612745024933,8374.751345924104,5322.394896825005,12.508094940719344,20.550399289842886,986.3977054176685,0.0
0.73205,9.833820000000001,0.76862,0.8853300000000001,9.71953,0.8232100000000001,-0.15225999999999998,0.13810999999999996,-0.059869999999999965,-0.00656,-0.022230000000000007,-0.002289999999999999,34.66,-27.697,-10.063,234.092,-82.596,-47.86000000000001,-0.06352480067696219,0.17943232384792915,9.905341377470972,0.8,9.783000000000001,0.527,0.861,9.721,0.8485,-0.1815,-0.0335,-0.40900000000000003,-0.018500000000000003,0.018000000000000002,-0.012,34.45,-27.65,-10.75,235.35000000000002,-82.4,-45.8,0.10507599148821539,0.32158498566536287,9.885865033984587,1.0916052525982092,2.168684460127844,1.4345350729766073,0.32371574119897223,0.043801017111478185,0.3641436885351715,0.9454999695399255,2.1649487333191058,1.4053995208124983,0.4168938310889237,0.4844059218259001,0.24080416503873017,1.1861703081766966,1.4773256242277804,3.8899011555565264,18.36623902708445,2.073784945456014,16.084023128558353,1.2581724848441997,1.0697686843310985,2.2144870031283577,1.1916020274999999,4.703192287599999,2.0578908756,0.10479188109999998,0.0019185291000000046,0.1326006259,0.8939701924000001,4.6870030179,1.9751478131,0.17380046640000002,0.2346490971,0.057986645899999995,1.4069999999999994,2.1824910000000006,15.131331,337.31873599999994,4.300584000000003,258.6958000000001,1.582998001619028,1.1444050379754893,4.9039526870244154,74.98430050750137,983.4029222532445,77.39247259504309,89.69630723438684,971.9537566994877,83.0994693789974,16.549042455938626,15.000322108322623,10.445788396747695,1.9355048603528549,3.971636422687123,1.2093070805576096,3466.511541978389,2770.3518748799816,1031.7056257282195,23428.29539787001,8259.793033872718,4840.086223685716,9.341763506208173,20.870941501235464,990.5463551361191,0.0
0.6209699999999999,9.8683,0.4169500000000001,0.63426,9.74951,0.52205,-0.029050000000000024,0.13116000000000003,-0.09774999999999999,-0.013129999999999996,0.0015299999999999969,0.0024400000000000064,34.661,-26.672000000000004,-11.631999999999998,226.42500000000004,-84.44099999999999,-59.395,-0.0009492325330736762,0.08364958415828028,9.917387949116446,0.8105,9.811499999999999,0.16649999999999998,0.597,9.7715,0.6074999999999999,0.07600000000000001,0.0455,-0.4095,-0.033,0.009500000000000001,-0.013,34.6,-26.4,-12.1,236.0,-85.25,-49.7,0.17380310999389703,0.1942249505869511,9.866944259506756,0.9920325342951208,2.0383321883343744,1.5533734668456263,0.3950734519048325,0.049697182012665514,0.5325389258073067,0.8865131400605407,2.027133842251172,1.4729896223327577,0.30674284523033296,0.4134844726226125,0.19409205650927602,1.1764263682866007,1.4567827566250222,2.827220543219082,38.62291903779413,2.8498805238114815,38.4540436755356,1.2828777538972795,1.1022879918096806,2.066953237113819,0.9841285491,4.15479811,2.4129691275000003,0.1560830324,0.002469809900000005,0.2835977075,0.7859055475,4.1092716144,2.1696984274999997,0.09409117310000001,0.1709694091,0.0376717264,1.3839790000000007,2.122215999999999,7.993176000000001,1491.729875,8.121819000000004,1478.7134749999998,1.6457753314445287,1.2150388168878186,4.272295684415296,64.45778952321682,986.8431974163086,52.57984755273472,67.45113752021749,974.9552030572864,59.96021297760746,8.533645777928838,14.451675164696368,11.414626716897489,2.0992276139911366,4.379787352380732,1.1983714904982972,3466.717929524117,2668.1227165163514,1169.8479737602495,22677.768376410757,8445.786026620608,6070.854678637438,7.342814147386939,13.707219908943054,991.7502886433457,0.0
0.48612,9.82634,0.38018,0.42663999999999996,9.745970000000002,0.5952400000000001,0.05580000000000001,0.07249000000000003,-0.19831,-0.030629999999999994,0.005339999999999988,0.01347,31.81,-24.296000000000003,-14.0,237.93899999999994,-84.64099999999999,-53.854,0.09678721681024563,0.10965949267526481,9.867505829481988,0.6335,9.748,0.2455,0.4145,9.776,0.43350000000000005,0.1755,-0.011500000000000007,-0.321,-0.012,0.001,0.0055,33.75,-24.75,-13.0,251.64999999999998,-85.5,-47.0,0.2396364042615811,0.20918255364128452,9.815178977161953,0.875861556183396,1.7996630363487494,1.2527735579904293,0.27594385370940955,0.08558696805004845,0.7528303011967572,0.7845808435081754,1.7876594557968808,1.084442194817225,0.3525455050060914,0.36923835716241615,0.1957372961394941,5.458671999671715,2.0379852796328044,4.9896693277210264,46.019363087726454,3.395705964891542,43.485134057514415,1.0413887372257336,0.8620087504274546,1.8156419051214947,0.7671334656000001,3.2387870444,1.5694415875999999,0.0761450104,0.007325129100000015,0.5667534624000001,0.6155670999999999,3.1957263299000003,1.1760148738999998,0.1242883331,0.13633696439999998,0.0383130891,29.7971,4.153384000000001,24.896800000000002,2117.781779,11.530819,1890.956884,1.084490502020608,0.7430590858135018,3.2965555276332106,49.72822699488329,982.6694925443675,52.161382580948924,43.895791592225194,974.605658591659,71.16647269112028,6.694860109600208,9.25346543746388,21.111476271066852,3.256997012376925,7.312330216002525,1.8037444118187986,3200.9036552726516,2432.0227947774943,1435.7322706179916,23882.72056488313,8466.029451932243,5630.8991036634025,14.745045001283591,15.34763075831458,986.7691405423999,0.0
0.43363,9.810529999999998,1.2120900000000001,0.40742999999999996,9.684520000000001,1.30204,0.02710000000000001,0.12309,-0.09815000000000002,-0.00266999999999999,-0.01502,0.013669999999999998,31.333000000000006,-22.228,-14.790999999999999,268.775,-81.645,-21.863000000000003,0.05805730681789197,0.06505225763778967,9.924809999572572,0.523,9.6235,0.8534999999999999,0.4015,9.704,1.3435000000000001,0.1325,-0.126,-0.3415,0.021,0.008,-0.002,32.5,-22.15,-14.2,270.05,-81.9,-17.0,0.2058489983556558,0.3288574151302396,9.820965878228751,0.9303072896091914,1.6957404958011708,1.552097336477323,0.30630717441809946,0.09735784303280351,0.6451569099064196,0.8254933010024976,1.6666947476667704,1.3742716425437875,0.3860825832642545,0.3670773754945951,0.20580748552955988,5.361885023011962,1.4978037254593808,4.818009858852512,16.578428001472275,3.3391129061473794,20.124028697057653,0.9548856300237368,1.2715524177131803,1.7365487490616272,0.8654716531,2.8755358291000004,2.4090061419,0.09382408510000001,0.009478549600000007,0.4162274384,0.6814391900000001,2.7778713818999994,1.8886225475,0.1490597611,0.1347457996,0.0423567211,28.749810999999994,2.2434160000000003,23.213219,274.844275,11.149674999999997,404.9765309999999,0.9118065664258289,1.616845550992234,3.0156015578675017,46.188892060277176,981.0861736691103,129.1821001438525,42.810228898866825,968.4629548058891,135.076332445628,5.7445545361538155,12.886500164740761,15.98050881197989,3.350558108105921,7.70894272356814,2.1638636550458483,3152.710722260931,2223.8381881814444,1507.5331517524223,26888.860527629146,8166.2236656677205,2478.798059111996,13.515056737480778,12.762818463196504,992.5088760754016,0.0
0.20233999999999994,9.748669999999999,1.6130499999999999,0.24123999999999995,9.646790000000001,1.5790800000000005,-0.033670000000000005,0.11140999999999998,0.01370999999999996,-0.0010300000000000142,0.015989999999999997,0.005569999999999991,34.74,-20.978,-12.149,274.04200000000003,-80.284,-9.731,-0.04319739485002093,-0.014507911842418082,9.914069140527019,0.309,9.566500000000001,1.494,0.2285,9.6765,1.512,0.0865,-0.1265,-0.2415,0.009000000000000001,0.012,0.013,34.05,-21.7,-11.8,271.75,-80.7,-9.75,0.05024861507884143,0.2293667929533611,9.761192723423369,1.0487319030143023,1.7406438237330462,1.680644848711351,0.43897833932894686,0.11385194728242463,0.5942480741239302,0.8821451587465639,1.7223093572003842,1.5360886777461775,0.37731767663336424,0.44698546945063,0.23004639771141822,3.5196306624417284,2.8868869046084917,3.935746307881137,15.519865849935691,3.3530201311653345,17.33966375106507,1.0342882065124122,1.397711942449862,1.8219470338691037,1.0998386044000001,3.0298409211,2.8245671075,0.19270198240000003,0.012962265899999997,0.35313077360000006,0.7781800811000003,2.966349521900001,2.3595684259,0.1423686291,0.1997960099000001,0.0529213451,12.3878,8.334116,15.490099,240.8662360000001,11.242743999999998,300.66393899999997,1.0697520941306622,1.9535986740669664,3.319490994224425,32.91066680477226,974.8824629265895,164.1399307536494,35.551851603927474,964.6926463617721,160.31658222113222,6.5801926673459,11.95688876006626,6.242570576018948,3.25763202859155,7.1533397329796715,2.1236935400183663,3476.615563617946,2104.095725790393,1231.4783145445901,27414.170459282486,8029.869869321655,1413.2561407828982,8.213178114438403,5.416113288802084,991.4121989433962,0.0
0.24075000000000002,9.64797,2.0287599999999997,0.29144000000000003,9.543259999999998,2.0653300000000003,-0.035939999999999986,0.09855999999999998,-0.05549,-0.0013100000000000045,0.06495000000000001,0.004750000000000008,35.216,-23.729,-8.275,266.43399999999997,-77.32300000000001,-8.494000000000002,-0.03711924555432851,0.07136563547708488,9.900887474773981,0.243,9.437999999999999,1.9525000000000001,0.294,9.553,2.0985,0.09,-0.1265,-0.124,0.0245,0.0335,0.0225,35.5,-25.799999999999997,-7.800000000000001,261.04999999999995,-76.95,-7.2,0.1580922338044676,0.20803439375111465,9.77932543548895,1.0261621740738647,1.6835557041868263,1.5860794817410635,0.4774248489553094,0.1508070701260388,0.7043630463759438,0.8820228321307788,1.6738212647711226,1.4243931374097534,0.39828745134638627,0.46243910680218214,0.23754201207365402,3.1668508016640127,4.4801405111893535,5.127716353309727,18.169635219233218,4.033084551556042,16.664572121719775,1.0426604269923143,1.1985555171665416,1.7613772411950748,1.0530088075000004,2.834359809100001,2.5156481224000005,0.22793448639999997,0.02274277239999999,0.49612730110000003,0.7779642764000001,2.8016776264000005,2.0288958099000003,0.15863289390000002,0.2138499275,0.05642620749999999,10.028944000000001,20.071659,26.293475000000004,330.1356440000001,16.265771,277.70796399999995,1.0871407660157952,1.436535327730356,3.1024497857999727,39.309051510095664,964.8394587005008,205.86857068221917,41.51734884801933,954.3565321510142,209.88168430364252,6.383639952566066,10.681072170630856,7.882703356752769,4.112696714725249,8.24738037728801,2.7356773267327497,3521.964139851257,2390.0683720893976,860.067096550232,26663.680900281597,7735.329110578809,1272.9748653857391,6.340733328432015,8.055422691949047,990.0949986767107,0.0
0.20698999999999995,9.570630000000001,2.39593,0.24638999999999997,9.50811,2.32209,-0.05092000000000001,0.04233000000000001,-0.00018000000000000793,0.01601,0.15008000000000002,0.030960000000000005,31.583000000000002,-27.993000000000002,2.853,246.99,-76.004,-5.629000000000001,-0.046725337352596534,-0.05614461817076264,9.885925408712449,0.188,9.2795,2.1445,0.153,9.52,2.2664999999999997,0.009,-0.34199999999999997,-0.1085,0.024,0.1775,0.038000000000000006,35.0,-27.2,-1.5,255.75,-76.1,-3.25,0.06097093587233221,0.14494900345428186,9.838312228722835,1.0263808698041874,1.6530720471594695,1.63846828626617,0.3708049054422015,0.1062626834782559,0.4054792249918607,0.8536941452300114,1.5762612096667228,1.4801727627544021,0.3770346004016077,0.4289962396105589,0.21907030469691685,8.942114459119834,2.8875683541693,11.517668644304713,24.354102323838585,2.4998767969642026,8.915259895258242,1.0399627451283975,1.4587581700178445,1.7042924215710453,1.0534576899,2.7326471930999996,2.6845783250999995,0.1374962779,0.0112917579,0.16441340189999998,0.7287936935999998,2.4845994011,2.1909114076,0.14215508989999998,0.18403777360000004,0.04799179839999999,79.96141099999998,8.338051,132.65669099999997,593.1223,6.249384,79.481859,1.081522511254992,2.12797539859381,2.9046126582244978,32.61025068602709,957.0943645437878,239.9555236396458,32.17383390864753,950.8174672969463,232.53816945853865,10.364459788583638,7.626054961834238,8.415663048202486,3.8862174041130055,18.53705267547683,4.291467479732155,3202.2656495985043,2804.5711337792263,720.7116038327141,24740.828434868785,7600.842497035939,740.4348746320268,10.089524715355386,17.233006546779908,988.6016151263229,0.0
0.11140999999999998,9.642540000000002,2.0049600000000005,0.11389,9.59231,1.9758600000000002,-0.016970000000000006,0.03679000000000002,-0.047880000000000006,0.008650000000000001,0.13587000000000005,0.037369999999999994,14.402999999999999,-30.894000000000002,20.600999999999996,207.107,-78.224,-3.0899999999999994,0.013036563405963826,-0.023292685094106043,9.86561928444657,0.14150000000000001,9.3845,1.8290000000000002,0.0865,9.592500000000001,2.0335,-0.006,-0.1485,-0.16249999999999998,-0.0215,0.14250000000000002,0.024,6.4,-32.25,28.799999999999997,187.35000000000002,-77.85,-2.6,0.03191258117102687,0.08428023195683804,9.627491245086626,0.9756966239051972,1.7295440579528467,1.448026352798871,0.23932738643957988,0.08285610357722595,0.41958298392570686,0.7755079426414665,1.6624882874474631,1.2356092285184666,0.3732880489648711,0.43318637224640383,0.21105888538509818,16.059635456634748,3.6059622848831907,12.86637862803672,37.63238300984938,2.497523573462321,6.813582024163209,0.923068960517217,1.3349926512263972,1.7565657569509965,0.9519839018999998,2.9913226484,2.0967803184000005,0.0572775979,0.0068651338999999945,0.1760498804,0.6014125691000001,2.763867305899999,1.5267301656000003,0.1393439675,0.18765043309999996,0.044545853100000005,257.91189099999997,13.002964000000002,165.54369900000006,1416.1962509999998,6.237624000000002,46.4249,0.8520563058703354,1.782205378828485,3.0855232584928274,19.095497372704827,964.3167609432694,203.3930365866486,14.168700368264073,959.2399805182993,198.65515598434072,9.911850268536782,7.406036816981004,12.214812382816262,2.7520647341508466,18.062679940336857,4.4047726344484195,1798.7876948583637,3097.872327898557,2231.138903883574,20858.198325586003,7823.377150327155,378.0898585931535,9.815627765563782,18.968919485107843,986.5787886570348,0.0
