ACCELEROMETER_X_mean,ACCELEROMETER_Y_mean,ACCELEROMETER_Z_mean,GRAVITY_X_mean,GRAVITY_Y_mean,GRAVITY_Z_mean,LINEAR_ACCELERATION_X_mean,LINEAR_ACCELERATION_Y_mean,LINEAR_ACCELERATION_Z_mean,GYROSCOPE_X_mean,GYROSCOPE_Y_mean,GYROSCOPE_Z_mean,MAGNETIC_FIELD_X_mean,MAGNETIC_FIELD_Y_mean,MAGNETIC_FIELD_Z_mean,ORIENTATION_Z_mean,ORIENTATION_X_mean,ORIENTATION_Y_mean,PRT_X_mean,PRT_Y_mean,PRT_Z_mean,ACCELEROMETER_X_std_dev,ACCELEROMETER_Y_std_dev,ACCELEROMETER_Z_std_dev,GRAVITY_X_std_dev,GRAVITY_Y_std_dev,GRAVITY_Z_std_dev,LINEAR_ACCELERATION_X_std_dev,LINEAR_ACCELERATION_Y_std_dev,LINEAR_ACCELERATION_Z_std_dev,GYROSCOPE_X_std_dev,GYROSCOPE_Y_std_dev,GYROSCOPE_Z_std_dev,MAGNETIC_FIELD_X_std_dev,MAGNETIC_FIELD_Y_std_dev,MAGNETIC_FIELD_Z_std_dev,ORIENTATION_Z_std_dev,ORIENTATION_X_std_dev,ORIENTATION_Y_std_dev,PRT_X_std_dev,PRT_Y_std_dev,PRT_Z_std_dev,ACCELEROMETER_X_median,ACCELEROMETER_Y_median,ACCELEROMETER_Z_median,GRAVITY_X_median,GRAVITY_Y_median,GRAVITY_Z_median,LINEAR_ACCELERATION_X_median,LINEAR_ACCELERATION_Y_median,LINEAR_ACCELERATION_Z_median,GYROSCOPE_X_median,GYROSCOPE_Y_median,GYROSCOPE_Z_median,MAGNETIC_FIELD_X_median,MAGNETIC_FIELD_Y_median,MAGNETIC_FIELD_Z_median,ORIENTATION_Z_median,ORIENTATION_X_median,ORIENTATION_Y_median,PRT_X_median,PRT_Y_median,PRT_Z_median,ACCELEROMETER_X_variance,ACCELEROMETER_Y_variance,ACCELEROMETER_Z_variance,GRAVITY_X_variance,GRAVITY_Y_variance,GRAVITY_Z_variance,LINEAR_ACCELERATION_X_variance,LINEAR_ACCELERATION_Y_variance,LINEAR_ACCELERATION_Z_variance,GYROSCOPE_X_variance,GYROSCOPE_Y_variance,GYROSCOPE_Z_variance,MAGNETIC_FIELD_X_variance,MAGNETIC_FIELD_Y_variance,MAGNETIC_FIELD_Z_variance,ORIENTATION_Z_variance,ORIENTATION_X_variance,ORIENTATION_Y_variance,PRT_X_variance,PRT_Y_variance,PRT_Z_variance,ACCELEROMETER_X_fft,ACCELEROMETER_Y_fft,ACCELEROMETER_Z_fft,GRAVITY_X_fft,GRAVITY_Y_fft,GRAVITY_Z_fft,LINEAR_ACCELERATION_X_fft,LINEAR_ACCELERATION_Y_fft,LINEAR_ACCELERATION_Z_fft,GYROSCOPE_X_fft,GYROSCOPE_Y_fft,GYROSCOPE_Z_fft,MAGNETIC_FIELD_X_fft,MAGNETIC_FIELD_Y_fft,MAGNETIC_FIELD_Z_fft,ORIENTATION_Z_fft,ORIENTATION_X_fft,ORIENTATION_Y_fft,PRT_X_fft,PRT_Y_fft,PRT_Z_fft,OUT
0.7322692307692307,9.696,1.0746538461538462,0.8804615384615384,9.69126923076923,1.163576923076923,-0.10899999999999997,-0.06149999999999999,-0.1492307692307692,-0.012115384615384608,-0.08696153846153845,-0.02384615384615385,25.68846153846153,-24.792307692307688,-25.638461538461538,271.8769230769231,-81.29230769230769,-37.126923076923084,-0.10892404159131376,0.17495247130726926,9.786002962099952,0.577,9.414,0.8465,0.834,9.703,1.0779999999999998,-0.125,-0.45749999999999996,-0.2575,0.010499999999999999,-0.11449999999999999,0.026500000000000003,24.5,-24.95,-26.8,271.45,-81.35,-35.8,0.06899850932158069,0.41619183108637814,9.458368652646545,0.6628848117649393,2.2685129490483407,1.1362269187740386,0.21145143664485136,0.04013684063714238,0.2713178909121072,0.6467311294859355,2.2655305075785734,1.1393787884933786,0.22823155025662945,0.3068283760783281,0.23026067039631615,2.640706042399809,0.813313770903228,3.143990228390193,6.781326605653525,1.463379407378971,8.282351844192924,0.9662672297783743,0.8001133441187628,2.279893306481112,0.439416273668639,5.146150999999999,1.2910116109467455,0.044711710059171586,0.001610965976331364,0.07361339792899409,0.41826115384615387,5.132628480769229,1.298184023668639,0.052089640532544376,0.09414365236686392,0.05301997633136094,6.973328402366862,0.6614792899408284,9.884674556213017,45.98639053254435,2.141479289940828,68.59735207100593,0.9336723593435737,0.6401813634369097,5.197913488937378,19.40112223130964,252.20827085453425,28.317186288460544,23.12073446994891,251.9734326715126,30.432243583238375,4.103768294290481,6.75124248547155,6.183887590268563,1.378771334188458,3.1836567601902166,1.4146239852213969,669.4689034458634,644.6919586535647,668.7969096842988,7069.4854792063925,2113.660906031676,973.9175908335184,4.233824439641536,5.625936420148253,254.55888541145683,0.0
0.5976153846153847,9.868692307692308,1.0086923076923076,0.6521923076923077,9.718538461538461,1.0668846153846154,0.0011538461538461444,0.10273076923076926,-0.063,-0.007269230769230772,-0.044576923076923076,-0.016269230769230765,24.757692307692306,-24.25769230769231,-26.942307692307697,281.46153846153845,-82.5,-31.130769230769236,-0.04909783510989255,0.12433925212075586,9.935772868449813,0.577,9.9645,0.9299999999999999,0.6085,9.713,1.0434999999999999,0.078,0.24799999999999997,-0.1545,0.041,-0.015,-0.0245,24.65,-24.200000000000003,-26.85,283.25,-82.3,-30.55,0.08149875195094847,0.1394995613298362,9.988931478267013,0.603669489100622,1.6313854840696411,1.0419462842064353,0.29513934378276424,0.04055881841818513,0.25950045604274097,0.6042596673303045,1.6204215395928097,1.0022675828800949,0.26704026744644677,0.26953409561356956,0.1470678958043915,1.3313304730240223,0.6634253055881079,1.5274848801777372,8.532159836717197,1.8010680591932537,10.03316689135701,0.8631928199972883,0.8236878421482615,1.6480785315196949,0.364416852071006,2.661418597633137,1.0856520591715977,0.0871072322485207,0.0016450177514793134,0.06734048668639053,0.3651297455621302,2.6257659659763317,1.0045403076923078,0.07131050443786982,0.07264862869822485,0.021628965976331356,1.7724408284023667,0.4401331360946743,2.3332100591715963,72.79775147929001,3.2438461538461536,100.66443786982248,0.7451018444948709,0.6784616613028595,2.716162846056114,15.96604006124036,256.6078763450232,26.669112369997098,17.62356325401766,252.68271050872656,27.96815832344085,2.8085668438784555,4.220056528221985,2.4604866242194157,1.8371485020446887,2.1955517917067047,0.9505529887895714,644.0811303307173,630.7399748725431,700.9287344713183,7319.014541283355,2145.1850079743253,824.6511727986798,3.73703007245675,4.444449701366831,258.3546316769223,0.0
0.40607692307692306,9.851346153846153,1.0150384615384616,0.3608461538461538,9.730576923076924,1.1118846153846154,0.06815384615384613,0.14838461538461536,-0.11834615384615385,0.016192307692307683,-0.09607692307692309,-0.02592307692307692,24.730769230769226,-22.957692307692312,-27.761538461538464,295.12307692307695,-82.91923076923078,-19.138461538461538,0.04655041231532179,0.09826011194541444,9.915052704448511,0.528,9.5795,1.111,0.37950000000000006,9.7315,1.117,0.20700000000000002,-0.161,-0.2145,0.041,-0.096,-0.053500000000000006,24.8,-23.25,-27.7,291.5,-82.6,-21.25,0.09190800452699169,0.2944045719309727,9.73234430878275,0.6450187190531714,1.6103466407126255,1.1326124831478102,0.21883708241304364,0.029237979879868987,0.266199076303529,0.5828088941502109,1.5621824003844769,1.0465389089134824,0.31466967041532606,0.33109688601524795,0.16970198382343524,1.7346622882964484,1.4892365305037956,2.2918042813262494,11.485385620005829,1.5397350498279359,11.321629297094495,0.7442869814410721,1.019357008092142,1.6196157364498078,0.4160491479289941,2.5932163032544375,1.2828110369822487,0.04788966863905326,0.0008548594674556238,0.07086194822485208,0.33966620710059175,2.440413852071006,1.0952436878698224,0.09901700147928995,0.1096251479289941,0.028798763313609473,3.0090532544378705,2.217825443786982,5.252366863905326,131.91408284023666,2.3707840236686364,128.1792899408284,0.5539631107426628,1.039088709946563,2.6231551337558536,11.73009582072199,256.17326813698804,26.7668306600104,10.073044831139347,252.99534877527046,29.188000402405688,4.214949584616371,6.589394811976227,3.852548183657288,2.0085608182052543,3.0875919977129826,1.458694159696255,643.5688579166399,597.4328457784834,722.7367683339189,7675.792605426642,2156.025801054749,536.2942964213696,2.9878917933371714,4.335117740279074,257.83156238694454,0.0
0.03846153846153846,9.936846153846155,1.0002307692307693,0.274,9.74203846153846,1.0244615384615385,-0.2313461538461538,0.25923076923076926,0.027269230769230764,0.012192307692307686,0.15019230769230768,-0.0014999999999999992,25.896153846153844,-22.373076923076926,-26.711538461538467,296.65384615384613,-83.49615384615385,-15.71923076923077,-0.21621249487849234,0.146432666617307,9.987356001995183,0.1295,9.8995,0.982,0.2515,9.748,0.995,0.026500000000000003,0.2335,-0.172,0.031,0.14800000000000002,-0.0215,24.45,-22.45,-28.65,294.15,-83.69999999999999,-12.7,-0.05744843955945851,0.4625886524580336,9.992972660305472,0.8067851792415296,2.0387802479444135,1.3173448327161812,0.2535316699986565,0.029061580201134498,0.27037527065589506,0.7813705878532479,1.9899147122754224,1.2937097391042762,0.29169438949679055,0.46721746042441925,0.2432637457575625,3.829689761408756,1.0857672552367652,4.807552305653848,12.002827576137431,1.482326853095593,15.228970853424004,0.9781287328614005,1.0991728290216707,2.0749433713978895,0.6509023254437871,4.156624899408284,1.7353974082840236,0.06427830769230768,0.0008445754437869726,0.07310278698224851,0.6105399955621301,3.9597605621301772,1.6736848890532543,0.08508561686390534,0.21829215532544374,0.05917725,14.666523668639057,1.1788905325443788,23.112559171597635,144.06786982248516,2.1972928994082843,231.92155325443784,0.9567358180490488,1.2081809080595027,4.30538999450804,6.660938103025844,258.38190347523636,26.445542893489247,8.19396400302078,253.29341843284945,26.977696969338638,9.44985292090736,8.780963330500787,3.0007037374591823,1.790294180545002,6.699161403281407,0.9137839617316622,676.405675000744,581.9321431490025,699.2847595455441,7715.139616390623,2171.0302689396435,473.46577584920755,8.665788326952768,3.8910204770529737,259.6962242893522,0.0
-0.10580769230769228,10.026807692307692,0.8509615384615385,0.14161538461538462,9.776076923076925,0.6477307692307691,-0.25346153846153846,0.32538461538461544,0.22100000000000003,0.04538461538461537,0.23961538461538462,0.01615384615384615,30.72307692307692,-23.842307692307692,-18.657692307692308,286.59615384615387,-85.92307692307692,-12.330769230769231,-0.24707995740333644,-0.14392443326935858,10.05201975619001,-0.14250000000000002,10.3445,0.833,0.08349999999999999,9.776499999999999,0.686,-0.22800000000000004,0.644,0.375,0.0465,0.2155,-0.003,32.650000000000006,-24.0,-15.8,289.15,-85.35,-11.15,-0.14593173338323073,-0.15084866637980815,10.332558381901215,0.7542081440532268,2.1235936888504456,1.1386736711147496,0.19221684007772954,0.024223197840282342,0.3477261917628148,0.8163745949562252,2.1826114929125806,1.216250069175427,0.22435927179467463,0.4036742857726794,0.20219063592174066,3.965360367007857,1.065245756015981,6.264133132790637,11.735104495265178,1.992159186624419,15.538234956459185,0.8849193261914118,1.0388023755154157,2.1587507034079856,0.568829924556213,4.509650155325444,1.296577729289941,0.03694731360946745,0.0005867633136094592,0.12091350443786983,0.6664674792899408,4.763792928994083,1.4792642307692307,0.05033708284023668,0.1629529289940828,0.04088105325443788,15.724082840236687,1.134748520710059,39.23936390532545,137.71267751479297,3.968698224852067,241.43674556213017,0.7830822138670622,1.0791103753764706,4.660204599464473,7.0505871975395396,260.7906251382604,22.808175810214273,4.591225220704179,254.17832128112082,17.83297700136895,10.499517376920819,11.681082463212263,7.098935030819152,1.6731622518600946,7.645754411885338,0.7868586410736923,801.3988712849592,620.1337676602241,496.3896708899464,7452.688237131645,2234.2443633362554,360.5541017351186,10.173950215463647,5.524865805088667,261.443858887932,0.0
0.1346153846153846,9.861076923076924,0.7146153846153845,0.1281923076923077,9.787615384615385,0.5203076923076924,-0.016038461538461536,0.10819230769230771,0.1392307692307692,-0.0008076923076923062,0.009384615384615387,0.019192307692307693,33.223076923076924,-25.10769230769231,-13.057692307692305,272.18461538461537,-86.83076923076922,-17.246153846153845,-0.02568996903485379,-0.2222422442765532,9.884231348098227,-0.020499999999999997,9.940999999999999,0.7085,0.11399999999999999,9.788,0.57,-0.139,0.16949999999999998,0.1705,0.006999999999999999,-0.016,-0.001,33.2,-25.4,-13.1,272.95,-86.7,-15.25,-0.1746232905108394,-0.12387715179140302,10.023532709931551,0.6317372918525229,1.9192717954609948,0.8506218122383304,0.11308472631369715,0.014670947017508118,0.2680111606790298,0.6335712260833111,1.9975385241154784,0.9622839141131616,0.25006399476791924,0.28980949670205464,0.10355044078603551,0.5918079810128724,0.7342830500788752,0.9572288034992057,20.51904729209297,1.5306532619388435,20.227537033407447,0.6074092608019289,0.8637004577946086,1.9268842226477683,0.3990920059171597,3.683604224852071,0.7235574674556214,0.012788155325443789,0.00021523668639053035,0.07182998224852072,0.4014124985207101,3.9901601553254435,0.9259903313609466,0.06253200147928994,0.08398954437869821,0.010722693786982247,0.35023668639053235,0.5391715976331359,0.9162869822485209,421.0313017751479,2.3428994082840218,409.1532544378698,0.3689460101079457,0.7459784807946164,3.712882807488894,6.759430041987821,256.4011685213625,18.877080267194646,3.6875847233048087,254.4780816231674,14.116174547581428,5.267010002215289,3.9273452456860687,4.854424315087601,1.4935008583966352,2.7616226313134726,0.72526717852284,863.8280842419205,652.872020572544,339.651805551451,7078.259738103433,2257.7150580859793,471.40279208125963,4.668515509445003,6.222551420773926,257.0047468190415,0.0
0.3485769230769231,9.81003846153846,0.5568461538461539,0.30688461538461537,9.782653846153845,0.5685,0.05484615384615385,0.04734615384615384,-0.04846153846153846,-0.03392307692307692,-0.05915384615384615,0.0005000000000000015,32.07692307692308,-25.407692307692308,-14.53076923076923,259.1423076923077,-86.17692307692307,-32.31923076923077,0.03058074629740463,0.01199119558068982,9.832484344676953,0.256,9.83,0.7040000000000001,0.28600000000000003,9.784,0.579,-0.025,0.085,0.002,-0.0125,-0.016,0.0,32.8,-25.5,-13.8,266.75,-86.2,-28.4,-0.1816065589201541,-0.03721896303777977,9.828398201351014,0.557776090523575,1.7273596677002832,0.7750077266268776,0.13278708432416764,0.010777263487732953,0.1828318374059364,0.5477884693023318,1.711537791270396,0.7848666339806367,0.2389154860352414,0.2704426133222938,0.13018485378048458,1.305699839551923,0.5158436532091994,2.294101002197598,17.624418660940133,1.1256819103608313,19.21023403595012,0.7044522843716454,0.6301564162637328,1.729677196259468,0.3111141671597633,2.9837714215976323,0.600636976331361,0.01763240976331361,0.00011614940828402188,0.03342748076923076,0.3000722071005917,2.9293616109467453,0.6160156331360948,0.05708060946745563,0.07313920710059173,0.01694809615384615,1.7048520710059174,0.26609467455621283,5.2628994082840235,310.6201331360948,1.267159763313611,369.03309171597635,0.49625302095642954,0.3970971089583509,2.9917832032600136,9.728084462705317,255.11789854230926,15.16396776686344,8.235710823204547,254.3490085441404,14.914436092267394,3.7211703187666023,5.496801555656616,4.734874266932824,1.9399260603308015,3.2544534880436546,0.531774847426903,834.3057419405138,660.6247004026588,379.78091976095266,6740.678477944227,2240.615329882539,877.8294226811794,2.973111683086574,4.570624932690224,255.7028776026789,0.0
0.30146153846153845,9.833461538461536,0.3046153846153846,0.36642307692307685,9.789269230769232,0.3114615384615385,-0.04961538461538461,0.07646153846153846,0.010192307692307693,0.05023076923076923,-0.05392307692307693,-0.017769230769230766,30.77307692307692,-25.08846153846154,-16.6,239.19230769230774,-86.77692307692308,-56.88076923076923,0.10019725410519141,0.2322925010694049,9.838689721264805,0.529,9.6345,0.196,0.34650000000000003,9.793,0.327,0.22649999999999998,-0.265,-0.133,0.0625,0.036,-0.029,30.7,-24.95,-16.35,247.2,-87.05,-51.2,0.2101486023796639,0.054089175223936393,9.61837308559156,0.7696017566932428,1.5181445971156629,0.8896043665552024,0.11823678103928804,0.011762252833363887,0.3041434670031728,0.7608129294442015,1.5163976855786885,1.00981967237228,0.21698552019969297,0.3422718131585483,0.1271196612803215,1.1380001663876078,0.7239458772146535,1.533974225036693,27.554267058589943,1.242301738494903,30.09708673904361,0.7371867045462009,0.9154169196667226,1.524412716259087,0.5922868639053254,2.3047630177514784,0.7913959289940828,0.013979936390532546,0.0001383505917159768,0.09250324852071007,0.5788363136094675,2.2994619408284027,1.0197357707100592,0.04708271597633137,0.11714999408284023,0.01615940828402367,1.2950443786982233,0.5240976331360943,2.3530769230769226,759.2376331360948,1.5433136094674584,905.8346301775148,0.5434442373596877,0.8379881368121107,2.3238341294924076,11.646861855716,255.68171449401285,8.524212161611398,9.658078328796057,254.52104014316268,9.233826629027446,9.288964376486263,2.8945519434612614,4.376386357461596,1.4702917464460747,3.934630834884868,0.6386455279940675,800.2759637513942,652.350511478233,432.3143169972603,6232.3998903781985,2256.259173655126,1547.1123820368568,4.181543513099082,11.326194371935141,255.8221516624373,0.0
0.3150769230769231,9.886730769230768,0.21346153846153848,0.14780769230769233,9.79630769230769,0.011538461538461543,0.16080769230769226,0.15011538461538462,0.24769230769230763,0.0396153846153846,-0.1466538461538462,-0.02096153846153846,31.746153846153845,-24.138461538461534,-10.703846153846154,202.7653846153846,-87.48461538461537,-29.623076923076926,0.2232840420883539,0.608507668009661,9.8672208048277,0.2645,9.8285,-0.04700000000000001,0.2925,9.798,0.029,0.0685,-0.024,-0.0745,0.0235,-0.017,-0.0455,31.25,-24.45,-15.2,218.5,-87.65,-57.75,0.2101486023796639,0.729244218562705,9.779599723997414,1.1975209624976517,1.3500357704005277,0.9648746921738767,0.334780871987216,0.007268314960626423,0.2601915316379353,1.2870317376766518,1.3527089722514105,1.192656723106694,0.23045975402410734,0.993602921087141,0.1378040640154404,1.9645376769162932,1.2800471514984013,9.368543141370273,74.91950522603315,0.8994409835226763,88.97535228145752,0.9251960061129572,1.2517688811424634,1.3692421515078383,1.434056455621302,1.8225965813609466,0.9309831715976332,0.11207823224852073,5.282840236686588e-05,0.06769963313609469,1.656450693786982,1.8298215636094675,1.4224300591715975,0.053111698224852066,0.9872467647928994,0.0189899600591716,3.859408284023666,1.638520710059171,87.76960059171597,5612.932263313609,0.8089940828402392,7916.613313609468,0.855987649727367,1.566925331796655,1.874824069465814,18.29309753255539,257.0683948084324,6.286487425872112,6.945223311092953,254.70401193289342,3.4433802019819653,19.65739029794051,4.998373748324518,7.4508203755017846,1.8997586459200089,17.380259800613338,2.0321772689607593,825.9761258376592,627.9688430175743,324.33408654576635,5331.570018037899,2274.623042589646,1648.0019782919373,7.539536438065189,17.943605702080205,256.5596767214394,0.0
0.2179230769230769,9.942230769230768,0.3892692307692307,-0.025307692307692312,9.786576923076924,0.21815384615384617,0.2366153846153846,0.2208461538461538,0.18711538461538463,-0.02934615384615384,0.1265,-0.019653846153846157,33.23461538461539,-22.72307692307693,-10.23076923076923,212.14230769230772,-86.80000000000001,9.099999999999996,0.5156670544710339,0.5769377200900817,9.927409279975477,0.195,9.989,0.41100000000000003,-0.119,9.7965,0.14150000000000001,0.0685,0.247,-0.010500000000000002,-0.07150000000000001,0.452,-0.0735,33.95,-22.549999999999997,-9.8,227.25,-87.2,19.799999999999997,0.391397404083232,0.729909927927326,9.941180520616381,1.280325677410512,1.4351476822343006,0.9966441598489135,0.33112172630791853,0.023317496034132287,0.48487228233578666,1.3661118626605127,1.3899277704616853,1.1270347864033805,0.2820073570109192,1.079885437299859,0.22392975243068672,3.4228802882157043,1.4679414399102975,10.41215152637936,99.10734729061336,1.6852299546352714,87.36238408975657,0.9896594077819284,1.21447186250475,1.4603299823117495,1.6392338402366866,2.059648869822485,0.9932995813609466,0.10964159763313612,0.0005437056213017749,0.2351011301775148,1.8662616213017753,1.9318992071005914,1.2702074097633136,0.07952814940828404,1.1661525576923075,0.05014453402366865,11.716109467455624,2.154852071005917,108.41289940828402,9822.266286982249,2.8399999999999985,7632.1861538461535,0.9794257434112773,1.4749419048157562,2.132563657238635,15.21837795107077,258.5052103311851,12.157518319777093,5.606281936316524,254.45118107156568,8.616734471209476,18.58131142511556,6.163270216384118,5.821449428673894,1.731620337320959,19.259227117804947,2.632688933027199,866.0710653069424,591.3705959228679,325.90550881913333,5640.646231245646,2256.8917953405225,1398.4848053945711,15.18370834737337,18.965269475416157,258.1179145608488,0.0
-0.2617692307692308,9.928961538461538,0.9486153846153846,0.11542307692307692,9.73573076923077,0.9359230769230771,-0.4012692307692307,0.20473076923076924,0.007038461538461545,-0.027576923076923075,0.4380384615384615,0.04088461538461538,34.215384615384615,-23.78461538461539,-9.507692307692308,248.1192307692308,-83.92307692307692,-6.096153846153846,-0.06529961990326573,0.25636131870501433,9.96634687719962,-0.377,9.9665,0.5985,0.135,9.75,0.9644999999999999,-0.5905,0.153,-0.296,-0.0535,0.5405,0.021,35.5,-23.6,-8.5,256.25,-83.7,-9.0,-0.18106274253117055,0.5868037657979747,9.89839546455596,0.94006936354932,1.7440779905102435,1.2594875354964836,0.2962404393883355,0.0662254643636231,0.635946533981309,0.9913535253027436,1.6936351790815178,1.2147707438274808,0.29250958867609045,0.5289272511246216,0.22724492495358345,3.4227398278271286,2.4500694350745227,9.394143964641076,64.93633579977077,3.184856921349443,48.79819101919212,1.1222233609303207,1.149251593434481,1.7567865744331637,0.8837304082840236,3.0418080369822493,1.586308852071006,0.08775839792899408,0.004385812130177514,0.4044279940828402,0.9827818121301775,2.868400119822485,1.4756679600591711,0.08556185946745563,0.2797640369822485,0.05164025591715977,11.715147928994083,6.00284023668639,88.24994082840236,4216.727707100591,10.143313609467452,2381.2634467455623,1.2593852718177447,1.3207792250116934,3.0862990681086098,11.843165861495176,258.2206713825357,25.957573109368916,5.740473851210283,253.13109387694837,26.04533119176525,14.5956515246445,8.078278870713971,7.653643972366525,2.2643524461213542,13.749312639593775,2.43106307167923,891.591378357007,619.8897282835491,286.65194070820127,6497.8761906434465,2182.5331733638254,445.4408432761361,13.240376188558255,11.70986593003107,259.18910404437395,0.0
0.35146153846153855,9.997961538461539,1.3924615384615384,0.3172692307692308,9.682384615384617,1.439653846153846,0.08311538461538463,0.2891538461538462,-0.12503846153846154,-0.009115384615384614,0.16107692307692306,0.05057692307692307,32.66538461538461,-27.0,4.7153846153846155,242.06538461538463,-81.16538461538461,-13.511538461538462,0.005604376533251909,0.14932944822238844,10.093002512125137,0.5025,9.785499999999999,0.97,0.4455,9.694500000000001,1.4485000000000001,0.2265,0.0085,-0.384,-0.079,0.1495,0.0065,31.1,-27.55,9.1,251.7,-81.4,-16.15,0.07583596805788935,0.46974892899316384,9.834532699273216,1.0871330408559525,2.1419704889292444,1.2494332016733776,0.3068415473939287,0.05843476107399726,0.3873187856481743,1.0938153172381764,2.088405458943915,1.2294418834066767,0.28495550623306853,0.5350220644678644,0.1662047331263748,2.5670908868409343,2.1896610204813403,9.348907476594105,16.879913924035286,2.2289946522509463,13.296191673473704,1.215195571881051,1.123869472911137,2.1729876092856606,1.18185824852071,4.588037575443787,1.561083325443787,0.09415173520710061,0.0034146213017751457,0.15001584171597637,1.1964319482248522,4.361437360946746,1.5115273446745563,0.08119964053254437,0.2862486094674556,0.027624013313609468,6.589955621301774,4.794615384615385,87.40207100591716,284.9314940828403,4.968417159763316,176.78871301775146,1.4767002779193144,1.263082592141557,4.721875150109011,17.823282756820376,260.1485147580954,36.7368607518731,9.721351067646056,251.7430167910259,37.793420663003985,15.35085031875993,12.4794919216309,9.812253016542773,1.4756400591115661,9.097264298258068,1.737114400731748,850.4431595959326,702.8679817015822,206.26845075527805,6300.446307804185,2110.489641999168,420.3019091546357,14.732892622727395,7.512063036073432,262.6504056928134,0.0
1.3508076923076924,9.86076923076923,1.6209615384615383,0.6342307692307692,9.660692307692308,1.5004230769230769,0.7899615384615383,0.19853846153846158,0.09257692307692302,0.0036538461538461508,-0.42369230769230776,-0.08423076923076923,32.04615384615385,-27.030769230769234,1.8461538461538467,237.75384615384615,-80.22307692307693,-21.719230769230766,0.5917354373889426,-0.24454976551494326,10.046621154971607,1.2345000000000002,9.5785,1.245,0.7150000000000001,9.6655,1.5444999999999998,0.6435,-0.098,0.039,-0.046,-0.405,-0.0685,30.95,-27.35,8.9,238.3,-80.1,-25.4,0.67744418152375,0.032625163067491476,9.874403652506265,0.8061989647165638,2.287709356669181,1.315176457326288,0.34902009063754347,0.04068430923281695,0.2512446207731732,0.8362982758639514,2.1919228515123996,1.3173167708839324,0.2859764571143377,0.5383438827503054,0.21454483262735694,2.1372575470647437,1.9495106349995457,12.728019689138629,16.082102588549763,1.4486884498925472,13.710664553011538,1.16201258261672,1.1139234658029633,2.316155599573814,0.6499567707100593,5.2336141005917165,1.7296891139053256,0.12181502366863906,0.0016552130177514743,0.06312385946745562,0.6993948062130178,4.804525786982248,1.735323474852071,0.08178253402366864,0.28981413609467455,0.046029485207100596,4.567869822485205,3.8005917159763323,162.0024852071006,258.634023668639,2.0986982248520714,187.98232248520708,1.3502732421595793,1.2408254876664857,5.364576761437133,35.75923924060505,256.4721316817672,42.45332556291231,17.14984890745188,251.17807060355838,39.02819493472312,22.621705818103038,8.589915507422694,7.729502758975397,0.6139395079304861,12.711827577842005,2.975027885329381,834.0799069626387,703.4488326458948,219.53938199698203,6188.107495840249,2085.810220117631,593.1321027164826,17.864207581330763,8.829361315445958,261.31951858596125,0.0
1.1473076923076924,9.552,1.5290384615384616,1.0245384615384616,9.656115384615386,1.3155384615384615,0.12715384615384612,-0.11657692307692304,0.28311538461538455,0.018923076923076928,-0.47173076923076923,-0.08626923076923076,28.01153846153846,-24.51923076923077,-20.096153846153847,259.78846153846155,-79.99615384615385,-37.96153846153846,0.009108755589937734,-0.19328049587473606,9.735064658888776,1.1084999999999998,9.7125,1.1875,0.998,9.6725,1.3075,0.132,-0.088,-0.010000000000000002,-0.013,-0.4215,-0.08499999999999999,28.6,-24.25,-25.15,259.45,-80.35,-37.2,0.4241203890248215,-0.07674578230770523,9.966940361624046,0.9033023077417646,2.1640295924323856,1.4617512805580222,0.20867313983821878,0.0426067229464633,0.3193946474636079,0.9581645391182397,2.1223558059759355,1.4396781778985053,0.27721054523688765,0.5153136130770127,0.22875760730390646,6.027713364317091,1.567462238722989,12.922653953700864,16.911792129095947,1.3591515365875446,9.863806291498886,1.2911522887353313,1.0861224761853712,2.207943160898682,0.8159550591715975,4.683024076923077,2.136716806213018,0.04354447928994081,0.0018153328402366825,0.10201294082840237,0.9180792840236687,4.504394167159763,2.07267325591716,0.07684568639053255,0.26554811982248516,0.05233004289940828,36.33332840236686,2.456937869822485,166.99498520710057,286.00871301775163,1.8472928994082838,97.29467455621301,1.6670742327064842,1.1796620332750423,4.875013001759263,30.836303048432423,248.49109556533764,40.32170532243819,26.871693523457747,251.05934463655504,34.42276499872255,11.00916088531385,10.114256586151294,8.171963293654848,1.4891157549427168,14.650897791170333,3.5876432653242216,736.1332859644806,637.8396546878736,563.991637982449,6759.41004445549,2079.937836575522,998.8729333262336,8.846673587274337,8.082857943327632,253.25549948147315,0.0
0.7185000000000001,9.697653846153845,1.1582307692307692,1.0903846153846153,9.67873076923077,1.0839615384615386,-0.3740769230769231,0.004461538461538466,0.08503846153846155,0.06807692307692309,0.03407692307692308,0.017115384615384612,23.176923076923075,-24.023076923076925,-30.1,271.3961538461539,-80.80000000000001,-45.01538461538461,-0.3096813876937216,0.23505585796299946,9.787113042645876,0.7095,9.757,0.8955,1.0495,9.688,1.0474999999999999,-0.4880000000000001,0.079,-0.10600000000000001,0.0225,0.095,0.0385,22.5,-24.1,-31.200000000000003,273.15,-81.0,-45.1,0.003808361144318092,0.39531302743024027,9.992063436699391,0.7669418917914287,2.019668040932007,1.2552176736662146,0.1751388629110488,0.04811888937613691,0.3071673911941464,0.7138087399014972,1.9882227322752588,1.2573256257986396,0.27862270091910246,0.43979207701585205,0.22271892029107293,2.1976049362024335,1.1184837581117408,2.617838215604036,10.007554099441805,1.675157857085071,7.277927235969799,1.1036182325229031,0.858895745963914,2.0617105811627945,0.5881998653846154,4.07905899556213,1.5755714082840238,0.03067362130177514,0.002315427514792902,0.09435180621301774,0.5095229171597633,3.9530296331360955,1.5808677292899407,0.07763060946745562,0.19341707100591715,0.0496037174556213,4.829467455621302,1.251005917159763,6.853076923076923,100.15113905325448,2.806153846153847,52.968224852071,1.2179732031569765,0.7377019024349083,4.2506505204786285,19.604670275751317,252.18934963886628,31.00739530417342,28.46422720478908,251.64801366206055,28.491711989057347,11.585413433678468,5.752137501061852,4.529423976162728,2.5577323327517436,4.309057289177898,1.5388374328623227,603.727806872495,624.8229011846258,783.9403189650083,7057.922258548759,2100.933303287541,1173.3653731037805,8.790424141855409,8.286051319245264,254.53730549754354,0.0
0.5335769230769232,9.985307692307693,1.4176538461538462,0.6988461538461539,9.681923076923077,1.2386153846153847,-0.15326923076923077,0.3076153846153847,0.14611538461538462,0.008038461538461538,0.27399999999999997,-0.004307692307692304,28.71923076923077,-24.79615384615385,-21.603846153846153,267.7846153846154,-81.17692307692307,-33.146153846153844,-0.15616855272981167,0.0006029336881514866,10.126880050449437,0.5905,10.166,1.0655000000000001,0.8055000000000001,9.684000000000001,1.2240000000000002,-0.29500000000000004,0.4575,-0.06,-0.0045,0.248,0.024,27.8,-25.05,-22.15,267.25,-80.65,-36.55,0.20399040058518159,0.16763829826775928,10.273774054702521,1.0011244898027618,1.9295029405608937,1.775703196403041,0.3984789051754465,0.05433933486535758,0.49763201394381285,0.9012172775535024,1.8680457924901726,1.628700126503036,0.30255914625449437,0.5270357599894834,0.20828194080117776,5.090792535455875,1.4726952709052696,7.90790649964329,15.619088230743923,1.941907803465386,21.75880424403367,1.2311042021215415,1.3281549035842923,2.005359970895071,1.00225024408284,3.7229815976331357,3.1531218417159765,0.15878543786982247,0.0029527633136094663,0.24763762130177513,0.8121925813609467,3.489595082840237,2.6526641020710056,0.09154203698224853,0.2777666923076923,0.04338136686390532,25.916168639053254,2.1688313609467453,62.53498520710059,243.95591715976332,3.7710059171597603,473.44556213017756,1.5156175564813172,1.7639954479150006,4.021468612868279,15.608316287422495,259.7190954555233,38.81267098889889,19.25060196681969,251.73098658151238,33.032012881713115,8.518049774429114,10.947018179455778,8.102222311014705,2.5358383443607044,8.928260363443565,1.657425154400682,751.561129714045,645.1267346091954,578.3738064946069,6966.111370445668,2110.800203473728,922.3081690310456,6.911500903805459,8.15771594242925,263.43379717960335,0.0
0.2168076923076923,9.687192307692307,1.9366153846153848,0.23630769230769227,9.59273076923077,1.891346153846154,0.01169230769230769,0.08015384615384616,0.046576923076923085,-0.03969230769230769,0.1348076923076923,-0.014346153846153849,34.25769230769231,-23.846153846153847,-15.273076923076921,275.41153846153844,-78.58076923076922,-11.584615384615384,-0.03914554761048379,-0.02859235734090653,9.916338072470937,0.3615,9.698,1.658,0.11649999999999999,9.6175,1.867,0.33999999999999997,0.0645,-0.279,-0.07100000000000001,0.10450000000000001,0.0010000000000000009,34.8,-23.049999999999997,-14.9,282.75,-78.6,-3.0,0.29400231651358993,0.29239845253585756,9.926079935737642,1.172354567632387,2.2343765439023096,1.8679566803765322,0.30245568896448655,0.10710439109446447,0.6440801396808947,1.0499990757955922,2.2322729480941392,1.7466446332474361,0.3138940008776565,0.6064101188539985,0.1949331132441414,1.834744391529382,1.7486765917359357,2.4727060375080967,17.174317295200208,3.2052864063521,20.651237480292934,1.2914714301747652,1.413387790172259,2.343847541296173,1.3744152322485208,4.992438539940829,3.4892621597633138,0.09147944378698224,0.011471350591716,0.4148392263313609,1.1024980591715976,4.983042514792899,3.0507674748520706,0.09852944378698224,0.36773323224852067,0.037998918639053254,3.366286982248522,3.0578698224852086,6.114275147928994,294.957174556213,10.273860946745561,426.4736094674556,1.6678984549576534,1.9976650454080211,5.493621296840116,12.336434734108256,251.87475434365734,52.11441400056907,7.520951701703894,249.4177420118865,50.27593990099242,7.72348818877894,3.265088342521384,5.436860152383547,3.1422084370886654,6.4601562260593335,1.630903607185338,890.9990538285347,620.7018446722615,398.7345989913792,7164.326361367687,2043.8234970534356,399.3791645016676,7.109235624017533,6.366829909265304,257.83956016566003,0.0
0.007615384615384613,9.446653846153847,1.5346923076923078,0.16657692307692307,9.608384615384615,1.6982307692307694,-0.12034615384615382,-0.15915384615384615,-0.16926923076923073,0.032,0.0023076923076923166,0.04157692307692307,35.53846153846153,-23.711538461538467,-13.873076923076924,263.39230769230767,-79.5,-8.069230769230769,0.23393615113592664,0.20363867980802836,9.624729944002388,0.279,9.4265,1.3335000000000001,0.14600000000000002,9.582,2.0295,0.168,-0.3265,-0.253,-0.059,0.026500000000000003,0.066,35.55,-23.15,-15.3,281.20000000000005,-77.75,-4.1,0.29400231651358993,0.22978166052881205,9.465702416985172,1.1929423571386932,2.375525301296661,1.708850710705675,0.22303296980783308,0.129426568703611,0.9335200260590313,1.1145728033752074,2.3920698744024325,1.454227618351519,0.4334122216160428,0.4248001131057695,0.24189272464604303,0.9393438475368457,1.5475357391366849,3.9648996196729676,50.12042362056935,4.7828218255946595,49.60969019200529,1.2533000767918752,1.0742888338138168,2.47477900585477,1.4231114674556216,5.643120457100592,2.92017075147929,0.04974370562130178,0.016751236686390537,0.8714596390532545,1.2422725340236684,5.721998284023669,2.114777965976331,0.18784615384615383,0.18045513609467456,0.05851209023668639,0.8823668639053248,2.3948668639053254,15.720428994082843,2512.056863905326,22.87538461538463,2461.1213609467454,1.57076108248652,1.1540964984570503,6.124531127819524,6.1802763881794744,245.8200765269593,43.92809707834167,4.664349502211832,249.8281219261177,47.033141773064834,6.413500102330218,12.333997842605548,8.92613013297657,4.179120882217162,2.225592578010631,2.544620307980648,924.0669984548315,616.9107570441411,366.816388058587,6880.760375300364,2068.690182537885,298.60032146448515,13.309935193635543,6.757548381178015,250.5061294784039,0.0
0.3573846153846155,9.803307692307694,0.9559615384615386,0.40642307692307694,9.715307692307691,1.041923076923077,-0.01669230769230767,0.15849999999999995,-0.05830769230769233,0.04407692307692308,-0.0678076923076923,0.006500000000000006,35.15,-25.54615384615385,-12.52692307692308,250.05384615384614,-82.83076923076922,-21.388461538461538,0.3506237605017635,0.06888187292514114,9.908873164795324,0.49950000000000006,10.587499999999999,0.9664999999999999,0.39749999999999996,9.734,0.9265000000000001,0.168,1.0525,-0.166,-0.0475,-0.0455,0.074,35.25,-25.4,-13.8,266.3,-82.95,-21.65,0.5295056230567922,0.05040972166447744,10.782127218963252,1.2677167566723764,2.360221530822099,1.8301866336265615,0.29605069382389476,0.07328698553304483,0.6638127008239206,1.1068871031733984,2.350962867389903,1.766330175799765,0.4752012466861498,0.3446668423978737,0.25464821133960774,1.136543342433877,1.669230769230769,3.3852119229545456,46.97492973564345,3.339019804439302,50.37418697128274,1.3065195469483324,1.2803129366151702,2.45237004302589,1.607105775147929,5.5706456745562125,3.3495831139053256,0.08764601331360947,0.005370982248520723,0.44064730177514794,1.2251990591715978,5.527026403846155,3.1199222899408285,0.225816224852071,0.1187952322485207,0.06484571153846154,1.2917307692307687,2.786331360946745,11.459659763313612,2206.644023668639,11.149053254437872,2537.558713017752,1.7069933265580757,1.6392012156641609,6.014118827930806,13.023773560683706,254.88926407867322,28.41042529127064,11.447361149181853,252.60118248561545,29.35591864182035,4.953668116513694,4.887959238450979,4.426265765313473,3.317238789792297,3.161128277976568,2.077788606526343,914.0357210832143,664.6588109283294,330.83388869759847,6530.678458371947,2154.3870673775605,653.9950559954364,15.825791340335002,7.276056526387477,257.6474399073981,0.0
0.7664615384615385,9.964,0.8650000000000001,0.601,9.73326923076923,0.9711538461538461,0.13869230769230773,0.3201153846153846,-0.011769230769230839,0.013653846153846157,-0.13173076923076923,-0.008038461538461534,33.3423076923077,-26.115384615384617,-19.71538461538461,262.9115384615385,-83.1730769230769,-32.57692307692308,0.21728478475068133,-0.030193160913393986,10.052541490323367,0.7150000000000001,10.689499999999999,0.5205,0.616,9.738,0.931,0.018000000000000002,0.9269999999999999,-0.37050000000000005,-0.021,-0.183,0.036,33.5,-26.1,-17.549999999999997,265.65,-83.35,-32.05,0.42043932170870735,0.12008305985722963,10.746751031421672,1.0046880201094661,2.070977286953414,1.5920976004098397,0.21054252265552878,0.03280895479580075,0.2927986565106436,0.9217579679499874,2.052422664652361,1.670907959249708,0.3817961540592543,0.45440261355663497,0.2304050748588452,1.4681681618531612,1.3248199609735973,6.541447282091227,13.2271668843703,1.6161582396601206,13.157077875609465,1.1820637111511376,1.1683715715027543,2.1415000663929247,1.0093980177514792,4.288946923076923,2.5347747692307694,0.04432815384615385,0.0010764275147928974,0.08573105325443785,0.84963775147929,4.212438794378698,2.791933408284024,0.14576830325443788,0.20648173520710056,0.05308649852071006,2.1555177514792905,1.755147928994084,42.79053254437869,174.9579437869823,2.6119674556212997,173.10869822485208,1.3972746172204,1.3650921290958158,4.586022534360901,22.131928167656326,259.2309836725147,23.988161864252852,15.957212329335846,253.06545945519534,25.596669112112128,8.010466618332899,13.346392912230112,6.7962446425021925,1.6944970096726366,7.295978099722022,1.5693336007663699,867.2507972160311,679.1583538248125,524.5698527507927,6837.641612854867,2162.621080064441,867.769446835616,7.26507892530813,6.877256913685571,261.5845168920795,0.0
0.8790384615384614,9.774692307692307,0.7743461538461538,0.7879230769230768,9.7145,0.9959230769230771,0.06476923076923079,0.07249999999999995,-0.20173076923076927,-0.001115384615384618,-0.042269230769230774,0.01784615384615385,31.907692307692304,-26.076923076923077,-23.984615384615385,262.28846153846155,-82.52307692307691,-39.35769230769231,0.2748156839558132,0.09868554610487079,9.858481138805256,0.7185,9.771,0.5075000000000001,0.7295,9.7255,1.0385,-0.2385,0.2335,-0.46399999999999997,-0.0395,-0.051500000000000004,0.036,31.85,-26.3,-25.3,263.15,-82.8,-42.0,0.05993018325524091,0.12008305985722963,9.947389567025404,1.1092434178570418,2.1005154453359,1.3954098637568184,0.24667900710108814,0.048724697575728004,0.3502203617369326,1.0470510716987793,2.1497631399045587,1.404009794993564,0.37260438154687475,0.5511586786518511,0.21417869827062494,1.0978731455805728,0.9923971337150852,4.332586037824053,11.512879975290451,2.1419451426408767,11.237888286332744,1.3747945235099932,0.8180972320150277,2.1615802443310437,1.2304209600591718,4.412165136094674,1.9471686878698224,0.0608505325443787,0.0023740961538461546,0.12265430177514794,1.0963159467455623,4.621481557692308,1.9712435044378696,0.138834025147929,0.3037758890532544,0.0458725147928994,1.2053254437869816,0.9848520710059167,18.77130177514793,132.54640532544386,4.587928994082845,126.29013313609468,1.890059981873069,0.66928308103065,4.672429152682255,26.40809028532517,254.1719859736239,20.64379847339668,20.676499128299202,252.57801688038117,26.35836353216558,11.19375848971933,5.078199592026144,6.833371395954101,2.1704276868045955,8.490388488600797,1.7246350601877631,829.7249108278567,678.0701685853792,628.3450815772095,6820.588065740893,2145.8263097217873,1028.2108844614997,13.645283097548226,4.777112321753924,256.3687295857686,0.0
1.1921153846153847,9.6065,0.9573461538461537,1.232653846153846,9.662423076923076,1.0262307692307693,0.03415384615384618,-0.055115384615384594,-0.13984615384615387,0.015576923076923075,-0.020576923076923083,-0.014038461538461538,29.388461538461538,-26.396153846153844,-23.476923076923075,252.45,-80.45769230769231,-49.72692307692308,0.07532838740262923,0.07174662571717931,9.74787267408486,1.2665,9.399000000000001,0.6295,1.3595000000000002,9.6445,1.0485,-0.0285,-0.17049999999999998,-0.357,-0.0855,-0.053500000000000006,-0.0025,30.25,-26.5,-24.549999999999997,249.4,-79.6,-48.900000000000006,-0.07376535592808661,0.15255938002142883,9.588413392567489,1.4139982136568816,2.015134758807422,1.4881803018944801,0.3644264136238557,0.05667869839781977,0.31390227627918604,1.2888733807926893,2.061117533447909,1.3664640695072952,0.39463587628606583,0.49298924727522614,0.2389258785560639,2.439156052515031,0.9415538585970814,3.8734111077275877,11.006580199694534,2.184063445986557,11.970558681528987,1.548073102300468,1.1183041482855416,2.0538633209847563,1.9993909482248524,4.060768096153846,2.214680610946746,0.13280661094674556,0.0032124748520710174,0.09853463905325444,1.6611945917159767,4.248205486686391,1.8672240532544377,0.15573747485207104,0.24303839792899407,0.05708557544378699,5.9494822485207095,0.8865236686390527,15.003313609467456,121.14480769230778,4.7701331360946755,143.294275147929,2.396530330066195,1.2506041680726505,4.218354541286532,33.67466564358005,249.84962859892147,25.71471561961068,32.66870633756086,251.22463058336936,26.999010839780357,9.499032691574598,5.2916749953332305,8.060194979568127,1.5741731413892495,5.246103424198951,2.4633867264289737,765.2688578613717,686.4036683077652,614.0586173408539,6565.303331646499,2092.1826101520182,1304.313043281239,10.090496030786138,5.816149002386459,253.51922629295268,0.0
1.282576923076923,9.632461538461538,0.895423076923077,1.4161153846153847,9.662076923076924,0.8285384615384614,-0.09369230769230769,-0.016269230769230814,0.04523076923076923,0.03934615384615385,0.04942307692307692,0.002153846153846155,28.16923076923077,-26.61538461538461,-22.47307692307692,242.01153846153846,-80.31538461538463,-60.31153846153846,-0.11088110861436885,0.10946673594517119,9.769277615119094,1.4625,9.633,0.6225,1.4075,9.668,0.8165,0.066,0.07450000000000001,-0.23099999999999998,0.07300000000000001,-0.059500000000000004,0.0085,28.2,-26.9,-22.950000000000003,245.6,-80.35,-60.65,0.21213352238366365,0.23181470413809224,9.817014576999389,1.3412258793609133,1.3289805876561418,1.4113506398830251,0.21480283032855912,0.046762018674695274,0.27436727641405034,1.1742937245337257,1.3277131744727997,1.1630560310496425,0.32597840210519047,0.43481836818792446,0.2552863689614367,1.66381610271948,0.7969616860264256,3.10861800759755,9.635963363402148,1.6351175699183291,8.219738294686522,1.372227832360411,1.2771013428227456,1.3457445742903618,1.7988868594674554,1.7661894023668638,1.9919106286982247,0.046140255917159756,0.0021866863905325496,0.07527740236686391,1.37896575147929,1.7628222736686392,1.3526993313609468,0.10626191863905324,0.18906701331360945,0.0651711301775148,2.768284023668639,0.6351479289940829,9.663505917159762,92.85178994082843,2.6736094674556217,67.5640976331361,1.8830092239045522,1.6309878398396598,1.8110284592319468,34.41285426940459,250.48389320381773,24.675527593403352,36.94619431596999,251.21500045944987,21.729664258364558,7.108235413715466,3.029582208099761,6.115420178454075,1.6629884260903158,3.5699528912102676,1.6839212845057476,732.8640061750933,692.0614714831478,586.80367443602,6293.024959805092,2088.339423435061,1568.519179210487,5.8587918694911805,9.07397392782994,254.02764760249914,0.0
1.4059615384615385,9.860615384615384,0.7835,1.4113846153846152,9.667115384615386,0.7763076923076924,-0.04500000000000001,0.15961538461538463,0.05330769230769231,0.0148076923076923,0.05161538461538461,0.01288461538461539,28.311538461538458,-25.657692307692308,-17.75,234.5,-80.48076923076921,-61.73846153846154,-0.004326123692920975,0.09764253498981158,9.996860257370022,1.4955,10.1215,0.6275,1.3849999999999998,9.6725,0.749,0.0625,0.4455,-0.031,0.0555,-0.0005000000000000004,-0.037,28.0,-26.15,-17.45,233.1,-80.55,-62.15,0.22606127065239975,0.17865683702299107,10.259447788973837,1.1844021043018103,1.5773698672869507,1.190358163618122,0.2226408071178391,0.04699863085000616,0.26657568837599593,0.9560420412384513,1.5311101572419497,1.1191445486218745,0.23183465912498422,0.38329403022936254,0.20866891827874437,1.3086478409402709,1.6779504615689014,3.1878676258590164,7.806998832408696,1.6007256120919362,8.344047944174013,1.241117859775302,1.0170714503136924,1.6151212955293244,1.402808344674556,2.4880956982248525,1.4169525576923074,0.049568928994082835,0.0022088713017751507,0.07106259763313609,0.9140163846153846,2.3442983136094675,1.2524845207100592,0.05374730917159763,0.14691431360946747,0.0435427174556213,1.7125591715976327,2.8155177514792893,10.162500000000001,60.949230769230745,2.562322485207104,69.62313609467458,1.5403735418532263,1.0344343350431975,2.6086167992723235,38.571945233155745,256.43524377892356,20.980920230497336,36.873928008025125,251.3462400680777,20.514584949998834,8.628840251077955,5.600364934816767,3.963364848177163,1.4456677752395313,3.986956077310526,1.3678720207849433,736.3658108234297,667.6088749067766,464.9091257314427,6097.438126366239,2092.667656269836,1607.5910493401338,5.162293874973685,11.024776462224105,259.95702362959884,0.0
1.4813461538461539,9.823846153846155,0.975923076923077,1.5015384615384615,9.645307692307693,0.8533461538461539,-0.05392307692307693,0.18588461538461545,0.1681153846153846,0.01607692307692308,0.002730769230769229,0.0036153846153846175,28.353846153846156,-24.81153846153847,-17.357692307692307,234.04615384615389,-79.7653846153846,-61.45769230769231,-0.05728548233446803,0.04364958713240582,9.986266126431216,1.512,10.1025,0.661,1.51,9.6475,0.8665,-0.025,0.49949999999999994,-0.021,-0.022500000000000003,0.066,-0.021500000000000002,27.950000000000003,-24.8,-17.9,233.45,-79.75,-62.15,0.221887020635135,0.11956210939056429,10.273615265023452,1.026626474740961,1.9136690633502096,1.1820131758694545,0.1659228807815966,0.04671333957955217,0.35153990279118796,0.9835177806486627,1.8928994513286321,1.2059664597620474,0.26892377002199014,0.3705353255963497,0.16945230255218335,1.4082806672925046,1.7270087352406858,2.586677862986403,7.507187877127174,1.5444546729141615,10.061739147610428,1.1963904042401967,0.8464553734610942,1.9721757338395507,1.0539619186390532,3.6621292840236683,1.3971551479289939,0.027530402366863913,0.002182136094674555,0.12358030325443788,0.967307224852071,3.5830683328402366,1.454355102071006,0.07231999408284023,0.1372964275147929,0.028714082840236688,1.9832544378698218,2.9825591715976327,6.690902366863905,56.357869822485206,2.3853402366863894,101.23859467455623,1.4313499993580214,0.7164866992611605,3.8894771251455706,40.44466906155733,255.45892006454616,25.409449755217768,39.1121951251697,250.77893131364382,22.889179067455352,10.875059510168507,6.263084330648847,7.818679223921778,1.9153531601804927,4.943526129860418,0.831385434848245,737.5944082963059,645.7299251970534,453.6239811369715,6086.053634540511,2074.030373432025,1605.832403901476,9.443009744565343,10.17976065863042,259.6550111118707,0.0
1.1900384615384616,9.644269230769229,0.7388846153846154,1.4629615384615384,9.667153846153846,0.6166538461538461,-0.30388461538461536,0.016923076923076905,0.14234615384615384,0.0445,0.07346153846153845,-0.002884615384615383,29.042307692307688,-26.49615384615385,-18.042307692307688,228.45769230769233,-80.47692307692309,-68.1423076923077,-0.18009967386306672,0.26742113581428806,9.748058813219256,1.2465000000000002,9.436,0.413,1.4605,9.6665,0.546,-0.2745,-0.028,-0.1095,0.0765,0.11,0.0010000000000000009,29.35,-26.95,-18.45,229.75,-80.30000000000001,-67.8,0.18488893970589992,0.47167350804673824,9.59186764139711,0.9921442776892277,1.8335572101517332,1.2961404935399878,0.2360623256634424,0.049273719245496644,0.3702209259667376,0.9191837652932618,1.8640843065095387,1.3040391671296856,0.29826359663378815,0.3216689926436839,0.1720356239770117,1.5660270841854451,2.1101368474089304,2.315694459207079,10.727863543735898,1.740315553240869,11.098515946423547,1.2712963033969997,0.8134533588374385,1.8957405570324877,0.9843502677514795,3.361932042899407,1.6799801789940831,0.055725421597633135,0.0024278994082840262,0.1370635340236686,0.8448987943786983,3.474810301775148,1.7005181494082842,0.08896117307692308,0.10347094082840239,0.02959625591715976,2.4524408284023673,4.452677514792899,5.362440828402367,115.08705621301776,3.0286982248520715,123.17705621301774,1.6161942910308762,0.6617063670039106,3.5938322595778467,33.0540180010715,250.84429151812424,19.69018226950388,38.229620401102636,251.3474428737315,17.11072212712066,12.23578497390832,7.351826137537178,6.2203806293878765,2.0385436656228553,4.313123924916161,2.123460993959198,755.531482247477,689.6868147832492,470.4916005440222,5941.986661942641,2092.617653555217,1779.4697969233346,7.44832075190813,10.409580105992896,253.57217878485358,0.0
1.1911153846153846,9.714423076923076,0.3576538461538462,1.4416923076923078,9.688346153846155,0.3201153846153846,-0.26611538461538464,0.01723076923076923,0.03334615384615386,0.023461538461538464,0.023807692307692307,0.005000000000000001,29.21538461538461,-28.692307692307693,-15.457692307692307,216.2076923076923,-81.18846153846154,-77.27692307692307,-0.12372334049471564,0.2880308623001819,9.793170513509098,1.263,9.436,-0.038,1.451,9.690000000000001,0.26,-0.018000000000000002,-0.040499999999999994,-0.296,0.05499999999999999,0.0715,0.014,29.2,-29.049999999999997,-16.15,213.60000000000002,-81.30000000000001,-78.75,0.2447638637143749,0.38202006075355033,9.765805406045292,1.0500916563264326,1.6096071707354065,1.1027256072082934,0.25288059955863773,0.037377432833289904,0.2459947352349509,0.9001068879657091,1.6009673351708409,1.203829400841897,0.2696345433772322,0.29735888951164324,0.17717548884130063,1.5929393024537297,1.1773252203856897,2.684309548371665,10.230193737428705,1.4283737183559286,10.473420853699055,1.147791742603774,0.9451426404373132,1.6158715610180778,1.1026924866863905,2.59083524408284,1.2160037647928994,0.06394859763313608,0.001397072485207098,0.060513409763313604,0.8101924097633136,2.5630964082840233,1.4492052263313608,0.07270278698224851,0.08842230917159764,0.031391153846153846,2.537455621301775,1.3860946745562128,7.20551775147929,104.65686390532548,2.040251479289942,109.69254437869826,1.3174258843894084,0.8932946107728164,2.6110409017069993,32.62916918286074,252.6060798499119,10.557369445543852,37.71667600873229,251.89775298840755,8.87897446480219,10.065881322736502,4.473325040920154,3.8956169091915256,1.3987421918873861,4.311389747131903,1.7207833092322706,760.0896269035891,746.1524736781248,404.6860874529241,5622.843607644353,2111.0338688051966,2013.4628692208923,4.999100918436554,10.15251006031716,254.66761071580595,0.0
1.3268461538461538,9.936269230769229,0.24015384615384613,1.3926538461538462,9.694153846153846,0.30296153846153845,-0.08453846153846153,0.2309615384615384,-0.020461538461538437,-0.002000000000000004,0.04134615384615384,0.007153846153846151,29.923076923076923,-29.200000000000003,-13.876923076923077,213.32692307692307,-81.37692307692308,-77.70000000000002,0.036534753720527564,0.08584036532803815,10.035864770885514,1.416,9.8915,-0.074,1.4304999999999999,9.690000000000001,0.237,-0.009000000000000001,-0.018999999999999996,-0.296,0.0465,0.1255,-0.0245,29.700000000000003,-29.35,-14.7,211.0,-81.3,-81.7,0.3229538527023319,0.02752789785006627,9.995152524706697,0.9743386590324778,1.598603009305608,0.9363587286072861,0.18364052307695145,0.018018563734472644,0.3545246525841903,0.9163887834139306,1.621333579324066,0.9078990214424149,0.2674118114875948,0.4100655615787546,0.17450935445671503,1.6420689792284544,0.7179029289427752,3.016787350338065,12.115424297859313,0.7061856872325223,15.464301322226472,0.8361543279126786,0.9675869661560121,1.6020649897564414,0.9493358224852072,2.5555315813609463,0.8767676686390533,0.03372384171597633,0.0003246686390532527,0.12568772928994082,0.8397684023668639,2.6287225754437875,0.8242806331360946,0.07150907692307693,0.1681537647928994,0.03045351479289941,2.696390532544378,0.5153846153846153,9.101005917159764,146.78350591715983,0.49869822485206977,239.14461538461543,0.6991540600871032,0.9362245370749959,2.566612231403307,35.04579085092249,258.3908974332304,10.44637005201435,36.34368623025314,252.0480594588593,9.270908205299293,5.606579893021059,7.748390634197313,3.8340534174337972,1.69860447751723,5.438542146702406,1.1207101918355116,778.5048827411885,759.2543585228193,364.3391233626372,5548.439993850622,2115.8127941453204,2032.5556374571217,4.907523274988729,6.2351676285699735,260.9898554915835,0.0
1.642538461538462,9.926576923076924,0.6125769230769232,1.5028846153846158,9.63276923076923,0.7486153846153846,0.07642307692307694,0.28530769230769226,-0.12796153846153843,-0.049615384615384624,0.06507692307692309,0.009423076923076921,30.646153846153847,-29.799999999999997,-10.330769230769231,215.74615384615385,-79.74615384615385,-67.39230769230768,0.30718386818040755,0.0046037954482176175,10.128361096639095,1.416,10.322,0.041999999999999996,1.48,9.6775,0.6445000000000001,-0.0225,0.732,-0.42,-0.006999999999999999,0.254,-0.042,30.65,-29.65,-8.649999999999999,216.3,-80.80000000000001,-68.30000000000001,0.6492446412293313,0.0028758494259899505,10.63922386331187,1.4407806439237465,1.7971051973205927,1.5076115897741373,0.26595305064602853,0.10970460606426667,0.6899337246277343,1.3127947045865673,1.7748578224581337,1.1347726807525145,0.5034641593632199,0.5506418578543605,0.19315939473695792,1.3517028488968925,1.110439968245435,4.132774187541233,12.957273893283347,2.737380944967254,17.99801106697248,1.2387737952372047,1.2001904735388373,1.880250472035919,2.0758488639053256,3.2295870902366866,2.272892705621302,0.070731025147929,0.012035100591715935,0.4760085443786983,1.7234299363905328,3.150120289940828,1.2877090369822484,0.2534761597633136,0.3032064556213018,0.03731055177514793,1.8271005917159755,1.2330769230769225,17.0798224852071,167.89094674556216,7.493254437869817,323.9284023668639,1.534560515766388,1.4404571727733786,3.535341837591296,45.360140854016294,258.2347637504616,20.229212011590217,39.22907675154843,250.45684581339174,21.911437643021685,13.490507422453474,11.359864927534202,4.845860276139397,3.116213269617838,7.603173758942826,0.9311380270557325,797.1500886690352,774.9551120299898,278.49502597640856,5611.5063194347385,2073.7433093235354,1771.3658610500022,10.192291026247407,11.009240655699696,263.58191576836356,0.0
1.698576923076923,9.649076923076922,0.9422692307692307,1.6093076923076923,9.599615384615385,1.0202307692307693,0.013038461538461537,0.11519230769230768,-0.05573076923076922,-0.005846153846153843,-0.09061538461538461,-0.017615384615384613,30.603846153846153,-30.496153846153845,-9.646153846153846,220.4769230769231,-78.66923076923078,-59.92307692307692,0.22132759873861044,0.012699095205728237,9.874205083300048,1.5,10.295499999999999,0.554,1.5895000000000001,9.6465,0.854,-0.107,0.8785000000000001,-0.5379999999999999,-0.006999999999999999,-0.08299999999999999,-0.1015,30.7,-30.65,-8.65,221.3,-79.8,-60.75,0.7716438986382017,0.3157132377860551,10.82088957876433,1.4928718110014807,2.074756629343769,1.8004008860783522,0.2539296948779886,0.108364795916768,0.5565870799028602,1.3926292366701207,1.9982752951796818,1.587643477651761,0.5596362618363201,0.584782541892091,0.21767319840020533,0.9496885194755534,0.7282649397610782,3.329267737602227,10.783830762635313,2.7559403296500657,11.026621900316725,1.5026896885288967,1.3906252919989546,2.2161806779211,2.2286662440828406,4.304615071005918,3.2414433505917155,0.0644802899408284,0.011742928994082778,0.3097891775147929,1.9394161908284029,3.9931041553254443,2.5206118121301775,0.31319274556213017,0.34197062130177514,0.04738162130177515,0.9019082840236686,0.5303698224852069,11.084023668639052,116.29100591715971,7.595207100591713,121.5863905325444,2.258076300011073,1.9338387027471775,4.9114567971908265,46.01665704752572,250.95030145280288,28.54306667423616,42.02196897955264,249.59619229130348,27.755407848019708,11.26972918764682,7.032739642745139,6.574666861350537,3.2783078479393595,7.7091197700193606,1.2366980017279499,795.8463089097108,792.9674910769793,256.3402110731246,5734.164174540213,2045.8997343762778,1564.2131505934763,6.748991667912514,11.810043574363947,256.848705141327,0.0
1.3652692307692307,9.494499999999999,0.7890384615384616,1.4003461538461541,9.641576923076922,0.983153846153846,0.0010384615384615196,-0.003961538461538478,-0.16476923076923086,-0.016269230769230765,-0.10926923076923077,-0.05450000000000001,30.64230769230769,-29.77692307692308,-13.23846153846154,229.79230769230767,-79.78076923076924,-56.411538461538456,0.1414301634272037,0.0663010539299857,9.656531945260351,1.101,9.947,0.3295,1.3760000000000001,9.6585,0.877,-0.107,0.195,-0.507,-0.012000000000000002,-0.188,-0.10300000000000001,30.9,-30.1,-12.95,229.65,-80.30000000000001,-59.2,0.4549909885519795,0.36965996252356403,10.338075554026304,1.2864650002023228,2.391326221190627,1.8739117350687577,0.3136607601935682,0.08549411724113064,0.41865606338411493,1.1593829420053658,2.344588654766369,1.6898030906608914,0.3760142752703687,0.5216293672192567,0.2468822905447359,1.077808701780208,1.0785701690049916,3.0639437787416957,10.998004122319475,2.7639185158267914,9.307578670634978,1.548196352077616,1.2981649951086183,2.4823171977358776,1.6549921967455625,5.718441096153844,3.5115451908284023,0.09838307248520708,0.007309244082840191,0.17527289940828406,1.3441688062130177,5.497095960059172,2.855434485207101,0.1413867352071006,0.27209719674556215,0.06095086538461539,1.1616715976331373,1.1633136094674563,9.38775147928994,120.95609467455617,7.6392455621301725,86.63102071005918,2.3969119445864377,1.685232354525359,6.1618986701753,37.209507890702575,246.9641148977172,22.774983592674126,36.63452094229692,250.68411627478136,26.483628384306265,10.80728955367945,6.389111853781341,5.478609031698051,2.4192406452719104,7.3905214734571,3.0748583413652772,796.8552904417032,774.2795218072142,346.6941694811713,5976.783507564152,2074.7424239162397,1474.0442855697033,7.505271379749193,9.851770645204208,251.16941677066688,0.0
1.1198076923076923,9.805923076923076,0.546576923076923,1.076230769230769,9.699884615384615,0.7738461538461539,0.12273076923076921,0.1236923076923077,-0.25046153846153846,-0.029730769230769227,-0.023269230769230768,-0.021807692307692313,30.88076923076923,-28.78846153846154,-16.403846153846153,234.34230769230768,-81.98461538461538,-57.823076923076925,0.23590788066402998,0.05492811412687468,9.91851024838731,1.1135000000000002,9.898,0.29600000000000004,1.023,9.731,0.6174999999999999,0.1535,0.1525,-0.0475,0.0135,0.010499999999999999,-0.021,31.0,-28.9,-17.450000000000003,236.85,-82.94999999999999,-58.55,0.23448701559605328,0.22093339891412583,10.034145511936803,1.235227385458638,2.3612825381245828,1.709668955204642,0.2997832945122844,0.08211779855936628,0.4775788853330687,1.0776299335433472,2.336013546609015,1.4681257866558255,0.3396838527550069,0.41862904064175843,0.24094030847602213,0.968749880702417,1.0244424085914785,3.0981980829099265,13.420196406820324,2.935550309788911,13.583001472210876,1.5055421293743896,1.1090306269677725,2.4085538478587236,1.5257866937869824,5.575655224852071,2.9229679363905325,0.08987002366863904,0.006743332840236659,0.22808159171597636,1.1612862736686391,5.456959289940828,2.1553933254437867,0.11538511982248521,0.17525027366863904,0.058052232248520706,0.9384763313609471,1.0494822485207096,9.598831360946745,180.10167159763313,8.61745562130177,184.49792899408283,2.266657103321171,1.2299489315525307,5.801131638035065,30.74495552516889,254.9959154213289,17.5211064993578,28.31469909621944,252.20050201157682,21.670454645733365,8.43702472163512,6.711672423690104,7.03512876063574,2.615274703344128,4.706324902819154,2.0681113785638203,802.9811652579258,748.6468595229,429.9189796244011,6095.493254846945,2132.1373691278927,1514.9594525073953,6.680324492637805,7.903166299879696,257.90589810150374,0.0
0.8246153846153846,10.051192307692308,0.5675,0.8513076923076923,9.735000000000001,0.7236153846153848,0.0009230769230769259,0.27207692307692305,-0.15403846153846157,0.026115384615384613,0.050807692307692304,-0.014961538461538462,31.919230769230765,-29.146153846153844,-16.857692307692307,241.17307692307696,-83.17692307692306,-51.89999999999999,0.11267972632421999,0.12570983162388452,10.114038648644307,0.7865,9.989999999999998,0.30300000000000005,0.907,9.738,0.69,0.0975,0.2595,0.007,-0.03,0.0355,0.007,32.1,-29.25,-16.35,242.85000000000002,-83.05,-50.55,0.19010830712900595,0.2460834249227953,9.962037383062228,0.7906314942900475,1.9894900393980128,1.5212907791133765,0.1875579437094593,0.03070329473675902,0.339250200036569,0.7318428227152081,2.0079480134834347,1.2949238908662142,0.30461669822949083,0.30199987509304205,0.16684642426477359,1.456555269956437,1.0008576204092967,2.047169354710036,13.732851059588906,1.4425692070607097,15.913177896612316,1.2584282466376573,0.902804193587555,2.0506178257644714,0.6250981597633134,3.9580706168639064,2.3143256346153844,0.03517798224852071,0.0009426923076922941,0.1150906982248521,0.5355939171597635,4.031855224852071,1.676827883136095,0.09279133284023669,0.09120392455621301,0.02783772928994083,2.1215532544378695,1.00171597633136,4.190902366863904,188.59119822485215,2.081005917159765,253.22923076923078,1.5836416519355285,0.8150554119592756,4.205033467343007,21.649754202760736,261.37313438446415,15.996610707456485,22.26208910361937,253.11027882141124,19.514352725907784,4.521017979213632,8.979715942308436,4.930015854440538,1.9008796244057165,2.8915949780742203,1.213410142945144,830.1952653576105,757.8962345624437,439.3472197766418,6273.52950185972,2162.672309345991,1372.2269904397049,3.8020313287449796,6.465357280447341,263.00648777744493,0.0
0.6533076923076921,9.918500000000002,0.7944615384615384,0.6800769230769231,9.743,0.8252307692307692,-0.037269230769230756,0.19461538461538458,-0.024076923076923048,-0.002730769230769229,0.05246153846153846,-0.008769230769230769,33.69230769230769,-30.157692307692308,-14.25769230769231,247.2,-83.6923076923077,-41.207692307692305,0.00612784690837769,0.056419698134567334,9.976866126122443,0.6415,9.7995,0.603,0.613,9.75,0.8025,0.020499999999999997,0.0725,-0.0845,-0.061,0.0055000000000000005,-0.0025,33.9,-30.0,-14.25,248.60000000000002,-83.95,-39.05,0.23996432285567781,0.0041982748270567045,9.865972569622313,0.5126170987597158,1.4973891187920805,1.298955978136324,0.16688017881953576,0.03096524105906725,0.2684345368832334,0.5030011131423918,1.5067626038559285,1.1383410305243098,0.21786967835282206,0.25527710897545025,0.11877914466395433,0.8633223290214278,0.7923543675572078,1.5307547351459012,9.64093835203256,1.4896884230043324,9.8083921318949,0.9900178627848255,0.8285813670711687,1.555345151781947,0.2627762899408283,2.2421741730769233,1.6872866331360945,0.027848994082840237,0.0009588461538461442,0.07205710059171598,0.2530101198224852,2.270333544378698,1.2958203017751477,0.047467196745562136,0.0651664023668639,0.01410848520710059,0.7453254437869824,0.6278254437869827,2.343210059171598,92.94769230769228,2.2191715976331348,96.20455621301777,0.9801353686330335,0.6865470818575269,2.419098541171608,18.079537387282436,257.90241781109467,21.943261273603557,17.86518238109264,253.31844625655592,21.81167469764931,6.127625990114227,6.2575483760192805,4.527434891107002,1.7409131836868221,2.905787238226473,0.8100312012679304,876.0751982304183,784.1784381843577,371.45779855082407,6428.713301076616,2176.125120825049,1079.2554320123597,2.998813943702588,7.179310072404657,259.42212968325913,0.0
0.6059230769230769,9.905961538461538,0.7684230769230769,0.5671923076923077,9.76273076923077,0.6998846153846153,0.0030000000000000113,0.15123076923076922,0.08273076923076926,0.014115384615384615,-0.007499999999999996,-0.0016538461538461537,34.292307692307695,-30.215384615384615,-13.792307692307693,247.3115384615385,-84.68461538461537,-40.83461538461539,-0.04508373562135136,-0.07300891287305142,9.953203132704925,0.5960000000000001,9.6235,0.7849999999999999,0.5630000000000001,9.763,0.7275,0.054,-0.1555,-0.0805,0.0335,-0.009500000000000001,0.0005,34.25,-30.2,-14.0,250.10000000000002,-84.75,-38.05,0.11011326211023252,-0.005105211127846064,9.667991228458922,0.5258562923809948,1.2155313330382038,0.8429321157573414,0.05804707587597741,0.015793274353119394,0.21363742234180805,0.5144117626361799,1.224328648302103,0.9570640424553348,0.2039497160733266,0.18636941190095463,0.11535661839826973,0.4929683067696035,0.7724547821928119,1.1347392370472937,10.034529881405927,0.9964136875246091,9.820110539394003,0.7603384842939447,0.6353334587340784,1.2226561067755723,0.2765248402366864,1.4775164215976326,0.710534551775148,0.0033694630177514787,0.0002494275147928988,0.04564094822485207,0.2646194615384615,1.4989806390532543,0.9159715813609469,0.041595486686390536,0.03473355769230769,0.013307149408284024,0.24301775147928992,0.5966863905325446,1.2876331360946744,100.69178994082843,0.9928402366863894,96.43457100591718,0.5781146106984132,0.40364860378700695,1.4948879554355998,16.649432891167404,257.5939255382657,20.38834777003301,14.749104385042386,253.83105290952247,18.352125653276655,5.467836383704619,6.4672769834993975,3.8206087198541363,1.6998376628886516,1.4565451887362273,0.8927655151199045,891.6137188907495,785.6793532549144,358.98681596329743,6431.272308793452,2201.8244821338008,1068.0146114690867,3.368209121556038,5.608496233566598,258.8211802254134,0.0
0.7136923076923077,9.886384615384616,0.7765384615384614,0.7121923076923076,9.74823076923077,0.7577692307692308,-0.026192307692307678,0.11988461538461538,0.048653846153846186,-0.00565384615384615,-0.06076923076923076,0.00803846153846154,33.60769230769231,-29.99615384615385,-13.530769230769229,244.11923076923074,-83.85384615384616,-43.392307692307696,-0.03791374377099584,-0.022334732470528425,9.946837768285828,0.7275,9.371,0.7144999999999999,0.6865000000000001,9.7495,0.7855,0.051000000000000004,-0.33599999999999997,-0.101,-0.027000000000000003,-0.0115,0.006999999999999999,33.8,-30.2,-14.05,242.3,-83.85,-46.05,0.06783962779566222,0.04115589475761777,9.521276813096009,0.7384345067167833,1.2991475334270035,0.9653282913388438,0.16661102078950452,0.021553703398198377,0.18336393146130658,0.6438841880595734,1.312204144733441,1.0047522060498946,0.22834857670939643,0.21216327306550922,0.135570725444814,0.8931030937661534,0.7572626661615705,1.3952582420936195,8.79444839004739,1.2197826947801835,8.03870076935145,1.005880992048691,0.5931341842609854,1.3087304491214158,0.5452855207100592,1.6877843136094675,0.9318587100591718,0.02775923224852071,0.0004645621301775083,0.03362233136094674,0.4145868476331361,1.7218797174556213,1.00952699556213,0.0521430724852071,0.045013254437869826,0.018379421597633137,0.7976331360946746,0.5734467455621302,1.9467455621301775,77.34232248520713,1.4878698224852065,64.6207100591716,1.0117965701648588,0.35180816053894454,1.7127753884575427,19.867743408967772,257.05150441908893,20.382452116821497,18.729303804996217,253.45418123387418,19.781340838233216,5.073563586169232,3.7830552490547773,2.4845077658051733,1.1479616482884483,2.4650180807353554,1.135741924638224,873.8870432358575,779.9471195696892,352.60223008929586,6348.045110224709,2180.2618051059267,1131.4284914185268,4.839876438867126,4.6600082465891965,258.6216248979408,0.0
0.8811153846153844,9.74426923076923,1.0452307692307694,0.7961538461538461,9.718769230769231,0.9969230769230767,0.04288461538461538,0.006423076923076925,0.0825,-0.06461538461538462,-0.061000000000000006,-0.0036153846153846136,33.396153846153844,-28.86923076923077,-17.203846153846154,251.3884615384615,-82.46923076923076,-40.03076923076923,-0.005120179474289439,-0.07653264099897078,9.836935031533763,0.8260000000000001,9.686,1.0605,0.766,9.725000000000001,0.9335,-0.004,-0.08750000000000001,-0.20500000000000002,-0.0805,-0.009000000000000001,-0.0125,33.25,-28.9,-15.45,251.05,-82.65,-41.3,0.3505752739126765,-0.03277684053100615,9.8230770701744,0.6157149894430475,1.1400776814859965,1.0224620477324595,0.11292975771476176,0.027445481192170995,0.2745855510620888,0.5671682918691552,1.1268901445699993,1.0109187462592935,0.21996504563629002,0.21725702608803102,0.12030604464738347,0.8192307692307697,1.5236013083302211,5.083493708467009,14.396536093077733,1.200887245962248,9.606358840763486,1.0024691154990104,0.6417227207962664,1.1644906941927202,0.3791049482248521,1.2997771198224854,1.0454286390532546,0.01275313017751479,0.0007532544378698118,0.075397224852071,0.3216798713017752,1.269881397928994,1.0219567115384616,0.04838462130177515,0.04720061538461539,0.014473544378698225,0.6711390532544386,2.321360946745562,25.841908284023667,207.26025147928988,1.4421301775147923,92.28213017751479,1.0049443275293681,0.41180805038616286,1.3560385768614434,23.22863376857747,253.3611084104274,27.77563996240934,20.782211409810373,252.68826872606644,26.24274062235283,3.8594286073082027,1.9915309348709562,5.5232079812631625,2.253109180631038,2.3383842249482165,0.9444286308733552,868.377051115963,750.965330809875,455.7801214091611,6540.6074152422525,2144.2502133246844,1051.8167380660777,4.934956700693641,4.363902275048323,255.76922716569,0.0
0.7111153846153846,9.667538461538461,1.4190384615384615,0.6496538461538461,9.70126923076923,1.2471923076923077,0.01934615384615384,-0.03373076923076922,0.18353846153846154,0.0009615384615384592,-0.02873076923076923,-0.02215384615384615,32.86153846153846,-26.223076923076924,-21.849999999999998,269.34230769230766,-81.68846153846154,-28.523076923076925,-0.0662433734558027,-0.17786844399885102,9.789883938281536,0.7615000000000001,9.5975,1.3195000000000001,0.6579999999999999,9.702,1.2265000000000001,-0.0645,-0.1395,-0.077,-0.013500000000000002,-0.035,-0.0325,33.150000000000006,-25.6,-22.200000000000003,273.25,-81.55,-26.35,0.143787600770432,-0.05113290427670503,9.68987097829234,0.45138507583480264,1.0476818083739132,1.0365648326886572,0.13002364941918845,0.028084429976422586,0.25076207221967467,0.4298252723990289,0.9969428869411152,1.0956384942393962,0.1965068957038699,0.16310934456377313,0.12847109591346648,1.5831023396330004,1.6834734450643072,2.326147359575815,9.808519572953795,1.1666279227153669,8.519358394598814,0.7712361653748536,0.8815340074690232,1.052020503370432,0.20374848668639053,1.0976371715976332,1.074466652366864,0.016906149408284023,0.0007887352071005835,0.06288161686390534,0.1847497647928994,0.9938951198224852,1.2004237100591715,0.0386149600591716,0.026604658284023665,0.016504822485207103,2.5062130177514796,2.834082840236687,5.410961538461537,96.2070562130177,1.3610207100591718,72.5794674556213,0.5948052227821086,0.7771022063243959,1.1067471395117772,19.11773039966877,251.38301254936243,37.16458557885188,16.994360279438364,252.23334050034143,32.67464293760078,4.66352768849843,3.9557779976158063,7.121334547561744,1.3185358927837931,1.3539963960323091,1.2099252966656886,854.8363598972174,682.3820617748462,569.2003803339826,7004.778865248808,2123.967195251293,754.7792167146238,4.627092479040605,6.545292731123035,254.56518701064783,0.0
0.46588461538461545,9.730192307692308,1.3856153846153845,0.47903846153846164,9.731153846153846,1.0531153846153847,-0.039769230769230765,0.019307692307692303,0.3265,0.05373076923076922,-0.024692307692307694,-0.00692307692307692,31.37692307692308,-24.949999999999996,-22.39230769230769,274.7423076923077,-83.11923076923077,-26.023076923076925,-0.17860136045911917,-0.2926858002973731,9.834781776257689,0.34500000000000003,9.5905,1.2774999999999999,0.453,9.7305,1.1315,-0.1235,-0.0695,0.1075,0.094,-0.016,-0.015,31.25,-24.95,-22.35,275.1,-82.8,-24.75,-0.08878562834471482,-0.15677407376225466,9.615551339070791,0.5523492016220757,1.1108212145570766,1.2494714290735127,0.11689228465992849,0.04044435142427391,0.35110269447984294,0.5590624230793985,1.0795626525172402,1.2746282791465127,0.21978425744917493,0.18090345262486734,0.12632617217009282,1.405020583563346,0.5772947520714444,1.1592182634208796,5.582126220007451,2.0080643628148724,7.450570845053401,0.7958022095298882,1.0845567723715588,1.1241674775003725,0.3050896405325444,1.2339237707100588,1.561178852071006,0.013663806213017753,0.0016357455621301674,0.12327310207100593,0.3125507928994083,1.1654555207100592,1.6246772500000002,0.048305119822485205,0.03272605917159763,0.015958301775147933,1.9740828402366852,0.3332692307692305,1.34378698224852,31.16013313609467,4.032322485207099,55.51100591715976,0.6333011566926522,1.1762633924970134,1.2637525174695505,13.324170746504983,253.01946421304504,36.335038919987426,12.59815033360917,253.01079371432616,27.983982178829926,4.72126120972509,4.2918114600805195,8.73909033936784,1.5309401845575388,1.797507198508071,0.8765330648075713,816.0869314071814,648.7595705330705,582.4737799426584,7143.772548054849,2161.345278090673,687.5244330588832,5.878230336644046,8.170402810903182,255.7387426562563,0.0
0.5485384615384616,9.802846153846154,1.0468076923076923,0.5268846153846154,9.748461538461537,0.876,0.03742307692307693,0.04623076923076923,0.15288461538461534,-0.014576923076923078,0.008653846153846154,0.012923076923076924,31.646153846153844,-25.684615384615388,-21.89230769230769,269.19615384615383,-83.98076923076923,-31.27692307692308,-0.0667423802657646,-0.18332415854246803,9.870688444241576,0.6465000000000001,9.6525,0.892,0.4365,9.753499999999999,0.8525,-0.028999999999999998,-0.0555,-0.0415,-0.025,0.038,-0.015000000000000001,31.7,-25.45,-21.9,271.95,-84.05,-32.2,0.045569730020248035,0.11529684840288434,9.682873040279393,0.6773023544104515,1.208081081471059,1.4334422265525408,0.17790907939884454,0.028645352380757095,0.24717791785862078,0.6635906507592976,1.1817246623113156,1.480597237264099,0.24243130241479247,0.22711483749038505,0.12541129966171405,1.1101735031519129,0.932198521153213,1.5306919191918695,8.30882203857075,1.5978397028414117,7.568015068101141,1.075954531952069,1.1354554963008021,1.2449732950465615,0.4587384792899408,1.4594598994082837,2.0547566168639055,0.03165164053254437,0.0008205562130177461,0.061096923076923076,0.440352551775148,1.3964731775147927,2.1921681789940823,0.058772936390532556,0.05158114940828402,0.015727994082840237,1.2324852071005903,0.8689940828402374,2.343017751479289,69.03652366863898,2.553091715976331,57.27485207100592,1.1576781548281956,1.2892591840797007,1.5499585053790925,14.763572503235068,254.88702998977786,27.463911224054527,13.97467889095576,253.46036654123708,23.08363577831741,2.1674977366498807,2.934019756843059,5.474082376731907,1.4377040267378436,2.8015828740819706,1.0370481189453538,823.02180401664,667.9559827802866,569.7313246968399,7000.180044377042,2183.6351255857753,820.518528756052,3.2118023858592415,5.266591212825355,256.65063980235806,0.0
0.5493846153846152,9.878576923076924,0.9993461538461539,0.59,9.744538461538461,0.8925384615384615,-0.00046153846153847795,0.09065384615384622,0.06646153846153843,-0.03676923076923077,0.047038461538461536,0.003115384615384614,33.096153846153854,-26.180769230769233,-20.61923076923077,263.7692307692307,-83.73461538461538,-33.91538461538462,-0.11382160584060406,-0.07235403002113626,9.943278284082805,0.7935000000000001,9.546,0.675,0.5925,9.748,0.8909999999999999,0.1355,-0.21300000000000002,-0.31,-0.0635,0.053,-0.024,32.9,-26.5,-20.55,263.4,-83.69999999999999,-35.7,0.15160909347679993,0.16016272016713035,9.558303324888492,0.8463764427488732,1.5243610558848009,1.4543536481969126,0.16341123207794123,0.025362344542846544,0.20656759571054004,0.7867303922305097,1.498834853691044,1.4863426261689676,0.22294657995760533,0.2227118664188933,0.14929457894302509,0.9370496946147069,0.884924695087854,1.2194006190840176,7.404508461885241,1.3953059514761812,6.394750990983652,1.3583640155756525,0.93699163095871,1.5594527398776252,0.7163530828402368,2.323676628698225,2.1151445340236688,0.026703230769230764,0.0006432485207100579,0.04267017159763312,0.6189447100591716,2.2465059186390532,2.2092144023668636,0.049705177514792906,0.04960057544378697,0.02228887130177515,0.8780621301775153,0.7830917159763314,1.4869378698224855,54.82674556213014,1.9468786982248516,40.892840236686396,1.8451527988108116,0.8779533164866634,2.4318928479118322,14.888041269183146,256.852405811113,26.0388864556479,15.506712858839728,253.3581438256345,23.300015323752515,2.1647950704781307,3.2066504121374764,3.330683971196599,1.6337793641826708,2.3456995499434754,1.3312449771571426,860.5712046933652,680.8075252763306,536.3711375828931,6859.013834443766,2177.149482352798,886.4272888677909,4.237147255979904,2.1442011149349076,258.5355413643945,0.0
0.3399615384615385,10.021038461538463,1.1951153846153846,0.46365384615384614,9.742846153846154,0.9741153846153845,-0.08857692307692308,0.2332692307692308,0.20946153846153842,-0.008692307692307694,0.029115384615384616,-0.008615384615384618,34.25769230769231,-26.080769230769228,-19.676923076923075,269.06538461538463,-83.60769230769232,-26.569230769230767,-0.23826765816390988,-0.10407164198270794,10.098763781636324,0.6405,9.4445,1.0150000000000001,0.4750000000000001,9.744,0.9994999999999999,0.1755,-0.326,-0.0545,-0.029,0.0465,-0.026000000000000002,34.4,-26.4,-19.65,271.9,-83.55,-23.15,0.15160909347679993,0.08375637661118522,9.691932359879848,0.853884944545054,1.7988923404047457,1.3456643577094058,0.13401892584708736,0.026536900734481166,0.25505358817361634,0.786973568761362,1.762106596742667,1.3432164391366208,0.2070202088297307,0.22770533031886037,0.1358613764447698,0.7565981948183368,0.767623320470514,1.1112389801504978,8.573121786126878,1.3808924307582555,9.180194787223252,1.1771807110968082,1.0013241226983605,1.8165889645569777,0.72911949852071,3.2360136523668634,1.8108125636094679,0.017961072485207098,0.0007042071005917069,0.06505233284023669,0.6193273979289942,3.1050196582840237,1.8042304023668636,0.042857366863905316,0.05184971745562131,0.018458313609467456,0.5724408284023659,0.5892455621301773,1.2348520710059185,73.49841715976332,1.9068639053254435,84.27597633136097,1.385754426578387,1.0026499986976412,3.2999954661501922,11.302764805333924,260.6012486692489,31.539559604270046,12.229409996838392,253.31432488553114,25.639995799285476,5.99841268878569,8.431021053944015,6.063011354429245,1.2411116240114857,2.482038447516276,1.2893263027627226,890.7681642670835,678.1675787229958,511.88924454634093,6997.234426898716,2173.9014759298516,708.2774315769727,7.383516493718535,5.19707233122952,262.6132382553882,0.0
0.15923076923076926,9.988538461538461,1.5301153846153848,0.36730769230769234,9.709153846153846,1.2729230769230768,-0.19788461538461538,0.2377307692307692,0.2107692307692308,0.007269230769230765,0.08088461538461539,0.018346153846153842,35.26538461538462,-26.00769230769231,-17.842307692307692,276.0846153846154,-82.16153846153846,-15.503846153846155,-0.2936463695402166,-0.16159470404838552,10.105108149985965,0.3815,9.682500000000001,1.291,0.416,9.714,1.2865,0.1285,-0.097,-0.034,-0.0175,0.0525,0.025,34.8,-26.299999999999997,-18.2,273.35,-82.1,-18.1,0.08849021623958073,0.00118846505943615,9.961771725163983,1.0304507717011078,1.643258798634573,1.6271200921808748,0.23803874429802863,0.04428291240829743,0.2969272020438839,0.9513997512541144,1.584992685197688,1.6408955413172381,0.27626611441928844,0.31104530054974766,0.2430558565603471,1.1224774480147806,1.1104133246135377,1.9267695317298246,9.129398510294276,1.8070538970883654,9.580648796451458,1.1672857666806125,1.4861859735178207,1.6584027320581802,1.0618287928994083,2.7002994792899404,2.6475197943786983,0.05666244378698225,0.0019609763313609427,0.08816576331360947,0.9051614866863906,2.5122018121301775,2.692538177514792,0.07632296597633137,0.09674917899408286,0.05907614940828402,1.2599556213017744,1.23301775147929,3.712440828402367,83.34591715976336,3.2654437869822486,91.78883136094676,1.362556061095145,2.208748747881112,2.750299621698036,11.46400111758558,259.7816564794959,39.87395886224135,10.048794515216526,252.4387442081227,33.36776133646939,10.796150237918384,8.359500866081287,7.290893665073883,1.8533272876172666,4.081337393257368,2.5090730237757572,917.0510298610255,676.4002695813258,465.0256910872999,7179.188890696268,2136.35681513245,424.03215514657256,11.900374867845828,5.552302874983175,262.8048938146647,0.0
0.29523076923076924,9.740346153846154,1.4916923076923079,0.40157692307692305,9.697692307692307,1.3418076923076923,-0.11961538461538462,0.0002692307692307652,0.11157692307692305,0.0381923076923077,0.03592307692307692,0.025384615384615374,35.565384615384616,-25.97692307692308,-16.48076923076923,272.94230769230774,-81.60384615384615,-16.43076923076923,-0.18172588548376709,-0.07829698897428611,9.854576101092512,0.249,9.775500000000001,1.3935,0.46599999999999997,9.707,1.3415,-0.039,0.052500000000000005,0.003999999999999998,0.0275,0.004999999999999999,0.032,35.55,-26.05,-16.4,273.55,-81.4,-16.799999999999997,0.08849021623958073,0.18658753713094936,9.862476082693519,1.0960864054827173,1.4109257992349369,1.582757471319517,0.26879419823708467,0.04066728909537566,0.296923328517231,1.008333891469681,1.43395946079626,1.606375690636364,0.279234257765875,0.3074495484662012,0.2340690359903835,1.0716422722920713,1.0649332562356602,1.3433652435264183,11.897290353331694,1.5415977648657426,12.682112455397995,1.206537119510881,1.4655065345971787,1.4589799536173964,1.2014054082840235,1.9907116109467453,2.505121213017752,0.07225032100591716,0.00165382840236686,0.08816346301775149,1.0167372366863905,2.0562397352071007,2.580442859467455,0.07797177071005915,0.09452522485207102,0.05478831360946745,1.1484171597633137,1.1340828402366863,1.8046301775147928,141.5455177514794,2.376523668639053,160.83597633136094,1.455731820757614,2.147709402947032,2.12862250505742,13.136735493762107,253.30660760250592,38.90405639953575,11.030829490306063,252.14039396717322,35.08118108281277,10.18908634542821,5.307852302761151,6.062327978961099,1.9743633751257035,2.7602438967354455,2.4093675553245633,924.8408550299804,675.5634979388552,428.963611052509,7097.9551135362335,2121.7698357202594,461.2574907555064,11.540190622282044,5.104579018220466,256.28159693655306,0.0
0.6852692307692307,9.680769230769231,0.9727692307692307,0.6224999999999999,9.725423076923077,1.0034999999999998,0.06184615384615382,-0.02357692307692311,0.012846153846153875,0.01984615384615384,-0.11265384615384616,0.011538461538461534,32.31923076923077,-25.99230769230769,-20.376923076923074,264.13461538461536,-82.7576923076923,-33.48076923076923,0.06373785446278847,0.05516550348335408,9.75338033279483,0.7075,9.587,0.8045,0.6599999999999999,9.732,0.947,-0.1595,-0.134,0.027,0.0345,-0.0665,-0.0075,33.7,-26.0,-18.049999999999997,266.4,-82.9,-36.05,0.022142940047612886,0.3176761090510243,9.673893573959283,0.7474002921765298,1.4387208877678146,1.0122880141879775,0.22744741573180585,0.03359048981359382,0.3727767170428309,0.6953416809414188,1.4857844126944921,1.0021167478549398,0.23656576452806005,0.29862659244611206,0.12407697076636025,3.217980641378071,0.5817236172478347,4.314760684361719,11.705190903306118,1.49593631007038,16.487221607395256,0.7557991058494482,0.9313317701389763,1.487371503762332,0.5586071967455621,2.0699177928994086,1.024727023668639,0.05173232692307693,0.0011283210059171499,0.1389624807692308,0.4835000532544378,2.207555321005917,1.0042379763313607,0.05596336094674556,0.08917784171597633,0.015395094674556214,10.355399408284022,0.3384023668639053,18.61715976331361,137.0114940828403,2.237825443786984,271.828476331361,0.5712322884028255,0.8673788660701989,2.212273990204221,18.37936457912629,251.752783191522,26.162652657899827,16.562100865360616,252.86141273462624,26.698751204250605,4.965464646187113,5.48871201590553,4.873604638891747,1.36362919130023,4.6389967993298935,0.8939357619793004,842.1575612821564,675.848558107975,535.2595059631415,6869.547804869945,2151.8076514335507,907.3233013360598,4.155090375678884,5.268746152116495,253.6502180138988,0.0
0.6880769230769229,9.767115384615385,0.5278461538461539,0.7335769230769229,9.758307692307692,0.5182307692307693,-0.0538076923076923,0.06430769230769233,-0.007653846153846135,0.023884615384615393,-0.02988461538461539,0.0047307692307692285,29.41538461538461,-26.415384615384614,-23.3576923076923,247.62692307692305,-84.46153846153847,-57.25384615384615,0.0064348786464393185,0.08829279945265044,9.807212332405037,0.621,9.472999999999999,0.6445,0.714,9.761,0.531,-0.1595,-0.156,0.0405,-0.0025,0.044,-0.0075,29.1,-26.5,-24.049999999999997,250.10000000000002,-84.55,-54.849999999999994,-0.07305899240189394,0.14182566623790194,9.55592098908968,0.6567407241052018,1.3549909544666308,0.8318347049332342,0.13807694986072164,0.026066142541278498,0.3452759551534114,0.6120262072839421,1.3618127559427986,0.8480373695642869,0.24409193207022462,0.35586625911808256,0.1599926819702191,1.3727267383659614,0.7629357809915327,2.419181851040216,20.884491074853155,1.407145753501617,19.37999029072613,0.6608907865921697,0.7607511678682751,1.3795297974732192,0.43130837869822475,1.836000486686391,0.6919489763313609,0.019065244082840237,0.0006794437869822486,0.11921548520710058,0.37457607840236684,1.8545339822485205,0.7191673801775148,0.059580871301775154,0.12664079437869827,0.025597658284023668,1.8843786982248505,0.58207100591716,5.852440828402367,436.1619674556211,1.9800591715976332,375.5840236686391,0.43677663180241677,0.5787423394129445,1.9031024621165011,18.08339171788278,253.9507671669383,14.40721612182953,19.153435002853666,253.7161865940796,14.263327782226149,2.973688787156946,3.0807811380083363,3.5351195901997685,1.2728135290406375,4.663181644709727,1.3001806161714353,765.1375345939463,686.8818396103367,608.8249162278811,6446.231602801443,2196.0797625937817,1513.8870573032052,1.9140207974488237,3.221984696798932,254.9944759218119,0.0
0.5183461538461539,9.966307692307693,0.2992692307692308,0.5948461538461538,9.780500000000002,0.24723076923076923,-0.06588461538461539,0.15557692307692308,-0.001038461538461518,0.022153846153846152,0.05092307692307692,-0.003038461538461536,30.699999999999996,-26.546153846153842,-19.884615384615383,231.49615384615387,-85.90384615384613,-69.3153846153846,-0.040860907744452474,0.09907000874302214,9.985097206109856,0.40700000000000003,9.6955,0.3115,0.6205,9.782,0.27849999999999997,-0.1295,-0.173,-0.08299999999999999,0.011000000000000001,0.049,0.0025000000000000005,31.200000000000003,-26.75,-18.950000000000003,232.55,-86.1,-65.65,-0.12588125689266383,0.0944569180134613,9.751535435615143,0.7196596921359477,1.4526822610190053,0.8154291252365368,0.1482917323043415,0.014091050078248008,0.2727992087305674,0.656991764784067,1.427270368788374,0.9198874714111348,0.2684133855867292,0.244394372822812,0.17132009643876278,1.543721776447078,0.7551009964189556,3.0260017168753466,23.17751697010291,1.0973677489025095,22.24689593399998,0.6973892195808152,0.8033605288449837,1.460569665891284,0.517910072485207,2.110285751479289,0.6649246582840236,0.021990437869822483,0.00019855769230769316,0.07441940828402367,0.4316381789940828,2.0371007056213015,0.8461929600591714,0.07204574556213018,0.05972860946745563,0.02935057544378698,2.383076923076923,0.5701775147928995,9.156686390532546,537.1972928994085,1.2042159763313611,494.9243786982248,0.48635172358753853,0.6453881393060918,2.1332637489217765,14.397630624862497,259.1608231281835,9.418088509456632,15.58118753976471,254.29307856625985,7.534841199514009,4.41141677993239,5.721436867652303,4.781602669975242,1.8317248661079448,3.150130803043417,0.9583845098357069,798.6107337588495,690.2475150835726,519.6591612132837,6026.158126895233,2233.556635340356,1820.9193444168375,2.732589821781745,4.959155688409329,259.6493024355638,0.0
0.5691538461538461,10.058653846153845,0.45276923076923076,0.5975769230769231,9.775115384615386,0.3887307692307692,0.030346153846153818,0.2394230769230769,-0.006884615384615404,-0.013115384615384622,0.017576923076923077,0.003230769230769229,31.561538461538458,-25.730769230769234,-17.56153846153846,236.46923076923076,-85.54999999999997,-60.346153846153854,-0.08887027635940624,0.06183938822296385,10.083442111547187,0.365,9.99,0.133,0.5775,9.781500000000001,0.434,-0.0595,0.2615,-0.361,0.032,0.032,-0.009000000000000001,31.4,-25.75,-17.55,241.0,-85.80000000000001,-56.15,0.020637278215611357,0.19024114881013232,9.97075000508105,0.8041728522720479,1.4632917828362109,1.1134775154958418,0.15787974320225334,0.016991687839096613,0.28972089456157996,0.8027289964340246,1.4301616684588476,1.1073495844000691,0.2583468638691128,0.18326172395635598,0.14630403214705057,0.6318939316280877,0.9297515097177766,1.1449141462864645,20.616493942598662,1.2851967822986365,21.073319456113417,1.0498829354372983,0.860879859376434,1.4840172188856684,0.6466939763313609,2.1412228417159764,1.2398321775147925,0.02492601331360946,0.0002887174556213038,0.08393819674556213,0.6443738417159763,2.0453623979289945,1.226223102071006,0.06674310207100592,0.033584859467455624,0.02140486982248521,0.39928994082840236,0.8644378698224848,1.3108284023668637,425.0398224852073,1.6517307692307692,444.0847928994083,1.1022541781224382,0.7411141322799887,2.2023071059491537,16.19103672888473,261.5930841764893,13.000700751675671,15.708957660958538,254.15314371264893,10.7447125035443,6.105682327515198,7.919162341792724,4.887817960511002,1.4421544438850453,1.7329143215299538,0.7870161814905695,820.6369144487259,669.0667023379742,456.95360736906895,6150.111323057393,2224.388649175291,1576.769359128464,3.214582134295794,6.653978087254629,262.23530143689965,0.0
1.1738461538461538,9.857807692307691,0.8633461538461537,1.143269230769231,9.680153846153846,0.7606153846153846,0.06126923076923078,0.21096153846153853,0.00988461538461539,-0.07965384615384616,-0.06403846153846152,0.0495,29.084615384615386,-23.99615384615385,-20.01923076923077,245.53076923076924,-81.79615384615384,-54.54615384615385,-0.08364372147396448,-0.025404270182331327,9.98292723035138,1.3395000000000001,9.9875,0.6405000000000001,0.8414999999999999,9.7485,0.6545000000000001,-0.08050000000000002,0.27549999999999997,-0.361,-0.041,-0.004,0.0535,30.75,-24.1,-18.65,246.1,-83.75,-54.85,-0.1365971601233709,0.04295514478917625,10.053584817215668,0.9453902203000903,1.26805144336409,1.2487937854742284,0.6390847155648764,0.12491741650684884,0.39350741141716344,0.8569835092970579,1.2984749777148112,1.0250022636719123,0.21331268892036842,0.33993421091658205,0.21710441479407303,2.8947820839589062,1.6189932221150396,3.5372761392358245,8.94722858813186,4.089054881324681,11.103576373584488,1.161077022665908,0.8338206980651554,1.2849211564978278,0.8937626686390533,1.607954463017752,1.559485918639053,0.40842927366863907,0.015604360946745551,0.15484808284023674,0.7344207352071005,1.6860372677514794,1.0506296405325446,0.04550230325443787,0.11555526775147928,0.04713432692307692,8.379763313609468,2.6211390532544376,12.5123224852071,80.05289940828403,16.720369822485196,123.28940828402366,1.3480998525627292,0.6952569565218629,1.6510223784157152,32.204496777580154,256.34699262824796,24.72274652738174,31.788979185340942,251.69285628483462,20.25179860522538,8.260978390292719,6.855328872302733,5.883271101229191,2.4440518617318396,4.8955493599972275,2.677605096042166,757.9596496727075,624.1853316065321,523.824909809893,6384.414468303316,2127.768556002342,1427.51457477953,7.884887969525479,7.438105025479628,259.60746823433925,0.0
1.6503846153846153,9.57273076923077,1.7250384615384617,1.4956153846153848,9.530346153846155,1.4976538461538458,0.14349999999999996,0.08226923076923079,0.1992307692307692,-0.07953846153846154,0.030923076923076935,0.06996153846153846,29.43846153846154,-22.73076923076923,-21.93846153846154,252.67307692307693,-77.12692307692308,-47.034615384615385,-0.010563681759894665,-0.2562323463095491,9.917427095317757,1.7895,9.362,1.3875000000000002,1.4625,9.55,1.425,0.266,-0.21600000000000003,0.252,-0.0875,-0.003,0.052000000000000005,29.85,-23.15,-22.5,252.7,-77.0,-47.25,-0.06041352635018905,-0.15356352334712448,9.868270246495884,0.9305174770781734,1.1650356731973854,1.5838575955988259,0.49205558448700903,0.146136643724472,0.77405669352632,0.9024663748264019,1.2104322037282738,1.0993277074121364,0.2862413224441157,0.5008363714886501,0.26292006401028356,3.4351214202117566,1.466489589453785,3.2768508478858087,10.182358714663456,3.9693593449658153,15.731569003554904,1.0114137334152409,1.070840004384094,1.2156045319216824,0.8658627751479291,1.3573081198224852,2.508604883136094,0.24211869822485207,0.02135591863905326,0.5991637647928993,0.8144455576923076,1.465146119822485,1.2085214082840237,0.08193409467455622,0.2508370710059172,0.0691269600591716,11.800059171597637,2.150591715976331,10.737751479289944,103.68042899408282,15.755813609467445,247.48226331360945,1.022957740140956,1.1466983149893264,1.4776943780285323,43.060791604628406,248.90368401221377,49.525881086933076,39.63634072802181,247.79878144327753,40.853184893912434,8.858264361742862,4.592582299216363,10.445205134541995,2.8530480660814215,6.471063798921199,2.8306711955549138,767.6988660623005,591.3696651210439,573.1565139607516,6571.49072526524,2006.1997951594042,1250.0294615616547,6.6829399298917656,12.218313453941713,257.91737084696064,0.0
1.4644230769230768,9.407346153846152,1.9359999999999997,1.3573846153846156,9.499884615384616,1.901615384615385,0.09807692307692308,-0.09853846153846153,0.04073076923076921,0.01569230769230771,-0.023538461538461543,0.0033461538461538386,31.099999999999998,-23.334615384615383,-22.96538461538461,262.13846153846157,-76.02307692307691,-36.17692307692308,0.0713080471747525,-0.11435369868381755,9.746203433323693,1.5715,9.2405,1.511,1.4125,9.55,1.758,0.168,-0.222,-0.28500000000000003,0.08499999999999999,-0.079,0.014499999999999999,30.7,-23.9,-23.9,263.2,-77.0,-35.4,0.2560319594014856,-0.12162104965363074,9.707785825420725,0.8999765455523708,1.2662225755951224,1.468627904908838,0.308443870585517,0.14601931561455955,0.5890338293094939,0.8221302031952828,1.2220286484986675,1.24115125086139,0.3606124885024163,0.44929159888473585,0.2493309420008942,1.8098023691510121,1.3711147367386052,2.6477773418607176,5.620982457451922,3.438728263618094,8.201421438352467,0.9607900835791828,1.1604513278013322,1.2978944812471902,0.8099577825443787,1.6033196109467456,2.156867923076923,0.09513762130177515,0.021321640532544355,0.34696085207100597,0.6758980710059171,1.4933540177514797,1.540456427514793,0.1300413668639053,0.20186294082840237,0.06216591863905326,3.275384615384616,1.8799556213017747,7.010724852071006,31.595443786982248,11.82485207100591,67.26331360946745,0.9231175847040931,1.3466472841958748,1.6845300844519129,38.58374202432292,244.67619535473256,53.26588253822991,35.56813930431745,247.009575063987,50.40224865159366,5.536548974850074,6.546082799545261,8.992230916890625,2.94857070376201,6.073150325286865,2.3972538050926073,809.047619843983,606.9154070073786,598.6906052652489,6815.987744975651,1977.4165319876097,947.215157528729,2.3131306132359204,10.564039053622826,253.48194344796326,0.0
1.375692307692308,9.532923076923076,1.523730769230769,1.4732307692307693,9.523192307692309,1.707230769230769,-0.07415384615384614,-0.018730769230769218,-0.1683461538461538,0.06396153846153846,-0.12673076923076923,-0.04903846153846156,28.23076923076923,-24.11923076923077,-27.37307692307692,265.2384615384616,-76.41538461538461,-40.63461538461539,0.05743792517725816,0.21242022377319641,9.758738139940956,1.3135,9.042,1.3395000000000001,1.5005,9.574000000000002,1.6920000000000002,-0.061,-0.38,-0.3125,0.11649999999999999,-0.1225,-0.0335,28.700000000000003,-24.1,-28.4,265.15,-77.35,-40.0,0.2157130506346624,0.44698141262992486,9.42305491157689,0.6832625224291268,1.5344724205626687,1.0921858660394446,0.38349860171165273,0.13827203377922734,0.47656901249309014,0.6121102648472422,1.4803473230109083,1.1044592112922433,0.3463244899900437,0.24105865192653644,0.2664277186967242,2.472894478256546,1.0766826654730621,3.3967810205803883,5.503640538007331,3.3854544414521244,6.8679827016768575,0.8498602533224479,0.9085719224098346,1.5086661274295756,0.466847674556213,2.354605609467456,1.1928699659763313,0.14707117751479287,0.019119155325443785,0.22711802366863912,0.374678976331361,2.191428196745562,1.2198301494082842,0.1199406523668639,0.05810927366863906,0.07098372928994082,6.115207100591716,1.159245562130178,11.538121301775146,30.290059171597626,11.461301775147916,47.16918639053255,0.7222624501772953,0.8255029381915027,2.2760734840533523,36.10881258866996,247.94064760807302,40.37508296307368,38.73930979893913,247.6105317097028,44.89877922407812,3.3517029280918194,5.543093528161951,5.797810906407098,3.705467135643804,3.6468855275749203,2.589822166010702,735.2136855621633,627.2627434881192,713.5477582791078,6896.6412662578105,1987.401558426502,1061.1826474217146,2.429600955540002,7.450625690990039,253.81935972437017,0.0
1.2867692307692309,9.771307692307692,1.4105384615384615,1.2306153846153847,9.5735,1.614730769230769,0.08161538461538462,0.17434615384615382,-0.1392307692307692,0.07096153846153846,-0.009884615384615396,-0.02392307692307692,30.00384615384615,-24.5,-27.684615384615384,268.7884615384615,-77.69230769230771,-36.7576923076923,0.18971517496180734,0.19774915969716172,9.970180645930686,1.2365,9.0765,1.312,1.1360000000000001,9.615,1.624,0.08800000000000001,-0.4375,-0.13500000000000004,0.059,0.026500000000000003,0.0014999999999999996,29.450000000000003,-24.75,-29.0,268.0,-78.25,-37.75,0.22435588236988102,0.3590298951899534,9.485098526462302,0.7370389984302735,1.696511483314437,1.1928778463082537,0.49223408103517624,0.10880054086404033,0.37807381836114695,0.7171421957980738,1.6839329180478675,1.1853054882989937,0.29464156591842894,0.44455892807651987,0.21417281359416332,4.310762985225805,1.0813097471264972,3.604558258190092,7.530059092784622,2.6394817493829037,11.932508056595228,0.9004811955512219,0.9080883973481901,1.689110258603853,0.5432264852071007,2.8781512130177513,1.4229575562130177,0.24229439053254442,0.011837557692307708,0.14293981213017753,0.5142929289940829,2.8356300724852064,1.4049491005917158,0.08681365236686389,0.19763264053254437,0.04586999408284023,18.582677514792895,1.169230769230769,12.99284023668639,56.70178994082836,6.966863905325434,142.38474852071005,0.8108663835413579,0.8246245373984045,2.853093465720775,34.15814797061476,254.06982872189116,37.71457684742906,33.103266121521045,248.91760155981174,42.437933334372566,6.4287998300821245,5.9393662099034294,5.156055855534736,3.0976848564135264,6.839882888296977,1.9118267998414233,783.992931638607,637.1673676175826,722.3715480805749,6989.420158421346,2020.480502297211,978.0741121806894,8.168460481543832,5.603530563941126,259.2628039378875,0.0
0.8121923076923078,9.850961538461538,1.758153846153846,0.7861538461538462,9.601884615384616,1.756461538461538,-0.013384615384615392,0.2328076923076923,0.11288461538461537,-0.004961538461538457,0.007115384615384613,0.0034230769230769263,31.692307692307693,-23.157692307692304,-26.065384615384616,277.33846153846156,-78.4423076923077,-25.96153846153846,0.027484291796488463,0.03167080205113778,10.058669106061254,0.7384999999999999,9.93,1.513,0.7725,9.615,1.759,-0.063,0.004500000000000004,-0.07050000000000001,0.059,-0.131,0.008,30.5,-24.25,-25.1,277.35,-78.35,-22.4,0.09329899892750754,0.32551013963064257,9.989785572951003,0.8680980102070526,1.690236089125495,1.4700554854077839,0.20058389618382633,0.08030773835837159,0.4736365233098243,0.8544837882480265,1.6821357536735797,1.5195948176284733,0.5374258790231328,0.5558565342661634,0.22264877015620588,2.794902375744245,2.298021402612235,2.87695649918883,11.292988870672643,2.2422813034467795,10.825897615052417,1.0796445600845728,1.1152767905368697,1.7250224750113246,0.7535941553254439,2.8568980369822485,2.161063130177515,0.04023389940828402,0.006449332840236666,0.22433155621301776,0.7301425443786982,2.829580693786982,2.309168409763313,0.288826575443787,0.3089764866863905,0.049572474852070995,7.811479289940825,5.280902366863904,8.27687869822485,127.53159763313617,5.0278254437869885,117.20005917159763,1.1656323761202108,1.2438423195102208,2.975702539294196,22.07582040094899,256.1683130926304,46.84705762280071,20.54583245721401,249.65104056614157,46.11813306892687,6.951997265130091,8.434502960025595,6.102337663070557,2.8228455146261062,7.493011488135796,1.7980139192236984,825.4733665683653,603.4183065924162,679.2491742387899,7213.0452145016825,2039.6930348217509,692.0073869097713,8.015716743801066,3.0656942566073186,261.58625855760323,0.0
0.6815384615384615,9.660692307692308,1.6187692307692307,0.8042692307692308,9.600923076923078,1.6919230769230773,-0.14153846153846153,0.06223076923076916,0.004076923076923106,-0.041653846153846145,0.05588461538461539,0.004692307692307696,30.950000000000003,-23.13076923076923,-23.707692307692312,274.8230769230769,-78.61923076923077,-26.292307692307688,-0.14119104117314604,0.15782834219281827,9.845229902386466,0.584,9.285,1.4889999999999999,0.7725,9.5845,1.7565,-0.152,-0.303,-0.11250000000000002,0.0955,-0.020500000000000004,0.007500000000000001,31.0,-23.35,-23.55,277.65,-78.15,-25.2,-0.17900620440501475,0.14421764105856905,9.577604424580528,1.1272959215195255,1.6935297178749014,1.5752528321533341,0.40686810920004984,0.10417290474418114,0.5547182876904501,0.9860808295301475,1.6932319870975083,1.5697680603559272,0.5897511823647255,0.49395393174504704,0.29139238272483925,1.8497920881090313,2.509944717559951,3.969200953972695,16.099887904347174,3.153876641503674,13.231632351095469,1.0367752790307603,1.3263620255860755,1.7962764590887106,1.2707960946745565,2.868042905325443,2.4814214852071004,0.1655416582840237,0.010851994082840238,0.3077123786982249,0.9723554023668639,2.867034562130177,2.46417176331361,0.3478064571005917,0.24399048668639056,0.08490952071005918,3.42173076923077,6.299822485207101,15.754556213017752,259.20639053254445,9.946937869822495,175.0760946745562,1.074902979209311,1.7592362229167975,3.2266091174762765,21.528788751750103,251.17950167906426,43.681590925051594,21.920553699027074,249.6288151070356,44.81651773813941,7.7726266473045165,3.485907545316657,3.663385691594669,3.536748742688121,5.276545219739379,3.3830527571586897,805.1149383769824,602.9225871976562,620.2523411150667,7150.324674693422,2044.6779085259188,708.02041936879,6.13693622760256,6.9032009867935935,255.99510944684005,0.0
0.6159230769230769,9.641653846153845,1.1202692307692308,0.6053846153846154,9.657076923076922,1.4570769230769227,0.06080769230769234,0.005269230769230735,-0.4197692307692308,-0.006961538461538468,0.03465384615384615,0.03638461538461539,33.11538461538461,-24.0,-19.75769230769231,273.35769230769233,-80.39230769230768,-21.673076923076923,0.11186340839436716,0.300815944640699,9.742489371931297,0.6114999999999999,9.3065,1.155,0.48200000000000004,9.691500000000001,1.259,0.235,-0.361,-0.366,0.041999999999999996,0.020499999999999997,0.07400000000000001,33.150000000000006,-23.65,-19.65,275.4,-81.1,-20.8,0.37893845129798687,0.11969489876599138,9.407659468725207,1.0670921639626694,1.714078199057793,1.4402014431132757,0.4805980310567463,0.08713778791569278,0.4282003415976904,0.879447554706527,1.7658438069636047,1.3340846273379392,0.4293271552243321,0.4610225209172535,0.25760704674473556,1.4996646567950571,1.5869661428214337,1.445197105780459,14.096758303757504,2.7969658116393363,14.547020781227593,0.9020070462637165,1.2799009902017326,1.8099494903611193,1.1386856863905326,2.9380640724852065,2.0741801967455618,0.23097446745562128,0.007592994082840254,0.18335553254437872,0.7734280014792899,3.118204350591716,1.779781792899408,0.18432180621301775,0.2125417647928994,0.06636139053254438,2.248994082840236,2.5184615384615388,2.088594674556215,198.71859467455613,7.823017751479292,211.61581360946744,0.8136167115093945,1.6381465447193757,3.2759171576584754,19.74514760728902,250.75555725683307,30.025035166851875,17.89149699856975,251.088145621895,38.51507843368635,6.201900480349013,6.6176995537810575,12.019695533695364,3.294765418040303,4.485933272249568,3.5615900900882353,861.3133087038043,624.5063552071772,513.7260759078133,7111.363019543744,2090.7112345952187,616.3201283769631,4.564198756669129,8.786694306161136,253.39754471786995,0.0
0.5595,9.842423076923076,1.3260769230769232,0.5418846153846154,9.669230769230769,1.4554615384615384,0.031038461538461563,0.1918076923076923,-0.2523846153846154,-0.009230769230769244,0.011923076923076916,0.0676153846153846,34.25384615384616,-24.465384615384615,-16.92692307692308,269.3346153846154,-80.76153846153845,-20.888461538461538,0.09286461759930877,0.12694137651554824,9.971376549535076,0.5085,9.470500000000001,1.214,0.5545,9.6935,1.3079999999999998,0.044,-0.14700000000000002,-0.40149999999999997,-0.0034999999999999996,-0.0275,0.059000000000000004,34.4,-24.6,-16.7,269.6,-81.5,-21.1,0.32409318180674107,0.22299232960647475,9.77596668365526,0.9211961809767526,1.7153700917805312,1.6775328249242174,0.28731051641079325,0.07121328079050117,0.4196368604812455,0.8214609631049582,1.719298784147653,1.5597812735450363,0.4150218073688611,0.44701806219547113,0.21192343989917262,0.9336573120430005,1.6347058798479523,2.5757086690712896,13.456680991745676,2.3932721281312617,11.00941299780388,1.218423372872606,1.1925686509947837,1.7861024241614163,0.8486024038461539,2.942494551775148,2.814116378698225,0.08254733284023669,0.005071331360946762,0.1760950946745563,0.6747981139053254,2.9559883091715977,2.432917621301775,0.17224310059171602,0.19982514792899408,0.04491154437869823,0.8717159763313608,2.672263313609468,6.634275147928994,181.08226331360942,5.727751479289937,121.207174556213,1.4845555155622574,1.4222199873355181,3.190161869595288,14.687259143688618,255.93945147073342,35.78818609127366,14.44677421393149,251.40257520924487,38.45748478409072,5.035782442932676,7.864448362789678,7.54264652843479,3.3617376959854375,3.678911533595231,2.3227525918758953,890.6577776124517,636.4022780583769,442.0849837876558,7005.552426366149,2100.1439036313486,563.9167185203632,4.1848031989791705,3.9657319191877534,259.3175013170534,0.0
0.7853846153846153,9.882961538461538,1.4103461538461537,0.7560384615384614,9.633,1.6034230769230768,0.002615384615384659,0.27842307692307694,-0.13257692307692306,-0.02688461538461538,-0.02523076923076923,0.03411538461538461,33.853846153846156,-25.01923076923077,-16.596153846153847,263.2230769230769,-79.46538461538461,-25.942307692307693,0.12764529728557772,0.18902820038608065,10.0313977724325,0.7815000000000001,9.5495,1.4235000000000002,0.7264999999999999,9.6305,1.7650000000000001,-0.079,0.010499999999999999,-0.359,0.024,-0.0105,0.036000000000000004,33.8,-24.95,-16.7,262.79999999999995,-79.05,-26.450000000000003,0.3285558680775353,0.3772375199139333,9.668236142570336,0.8481341093574891,1.781291806111708,1.3786651833820358,0.22554898508873014,0.07291987172443262,0.4229759197616631,0.7384434813497436,1.6535413086667825,1.3399209842684159,0.3579913328262267,0.3879327169747459,0.18785557605677108,0.9035105760016013,1.2851277191150572,2.2779006477339494,9.674125191708661,2.394696432936157,8.183434161435908,1.1403814896326567,0.9218821597246357,1.8001613213176975,0.7193314674556214,3.1730004985207105,1.9007176878698226,0.050872344674556216,0.005317307692307709,0.17890862869822488,0.545298775147929,2.7341988594674556,1.7953882440828401,0.12815779437869823,0.1504917928994083,0.0352897174556213,0.8163313609467455,1.6515532544378695,5.188831360946747,93.58869822485214,5.734571005917153,66.96859467455621,1.300469941896797,0.8498667164185587,3.2405807827682787,21.634953232996086,257.05594634205215,37.28621058134016,19.975838197376888,250.46053535674722,42.1832244495137,5.503793777814452,11.112902414557732,5.30190973263658,2.337279479111978,2.8896630835355377,2.4106938340571147,880.297915258149,650.8646242105422,433.21795510274904,6845.690051439377,2066.4473810451886,684.679316025281,6.1733598580533675,5.347122212971863,260.9301986383988,0.0
0.9113076923076923,9.812846153846154,1.6303076923076922,0.8709999999999999,9.598230769230769,1.7738846153846155,0.07792307692307691,0.2650769230769231,-0.18126923076923077,-0.07130769230769231,-0.10946153846153849,-0.008884615384615383,32.28846153846153,-24.150000000000002,-19.946153846153848,267.8692307692308,-78.27692307692307,-26.31153846153846,0.08672415675242587,0.1352692073076714,9.999924309468728,0.806,9.5495,1.4355000000000002,0.8855,9.599499999999999,1.7974999999999999,0.068,-0.364,-0.2985,0.0225,-0.037000000000000005,-0.040999999999999995,32.3,-23.950000000000003,-19.6,269.29999999999995,-78.25,-27.25,0.09403256106211205,0.29970438753625034,9.668236142570336,0.7672629059611219,1.891731211438708,1.1451781443288729,0.23094721341599986,0.06134160822319772,0.2898523930612159,0.6171738268465203,1.8652950874630025,1.0408429851915635,0.33468432534723835,0.3042409509139388,0.1968803476779111,0.9475989589389852,1.0838854608802966,1.870876135609437,7.491111103309725,1.7005220221828923,6.552294191471994,0.8619601013569951,0.8731722942711387,1.9311646075428364,0.5886923668639054,3.578646976331361,1.311432982248521,0.053336615384615385,0.003762792899408279,0.08401440976331362,0.3809035325443787,3.4793257633136103,1.0833541198224852,0.11201359763313609,0.09256255621301775,0.03876187130177515,0.8979437869822485,1.1748076923076929,3.5001775147929,56.11674556213025,2.891775147928993,42.932559171597624,0.7429752163313612,0.762429855482724,3.7293967414260774,25.348604644030033,255.25315988232921,42.44451419096918,22.98408218426853,249.55476275722506,46.2162447173629,6.596446530245958,11.358536222096541,6.3838520804177525,1.9481971520154007,4.036167507053977,2.643308695841619,839.6104796358479,628.1229782025193,519.3612254573538,6965.757547953756,2035.274088271197,693.1235123696371,5.702973888466749,4.468551615943357,260.13550833522294,0.0
0.880346153846154,9.771576923076925,1.5221153846153845,0.8306538461538462,9.62173076923077,1.666576923076923,0.07207692307692307,0.15399999999999997,-0.23365384615384616,-0.0565,-0.12434615384615387,-0.014692307692307689,30.761538461538464,-23.48076923076923,-22.546153846153842,272.8230769230769,-78.95769230769231,-26.411538461538463,0.06827308456437019,0.1329518166670297,9.938485263837823,0.7615,9.776,1.3505000000000003,0.7889999999999999,9.6265,1.6775,-0.051500000000000004,0.02550000000000001,-0.4790000000000001,0.035500000000000004,-0.043,-0.0215,31.0,-23.4,-22.95,273.05,-78.8,-25.75,0.1344364590239164,0.42387963120903455,9.914525536751412,0.8099298612704158,1.8363723891888455,1.1335170361762434,0.2133799324260137,0.06255493443754233,0.27683571538659796,0.6927540868533877,1.870297199747841,0.9621491945042657,0.3327407456957351,0.30712600049086497,0.19229059924035033,1.06881563606888,0.8849246950878543,1.7276553184614933,7.623158425396803,1.7580962336754806,5.301765085115662,0.8542765316283599,0.8528508365208249,1.9067514994200658,0.6559863801775149,3.3722635517751485,1.2848608713017753,0.045530995562130167,0.003913119822485219,0.07663801331360946,0.47990822485207096,3.4980116153846152,0.9257310724852074,0.11071640384615386,0.09432638017751478,0.03697567455621302,1.1423668639053246,0.7830917159763319,2.984792899408284,58.112544378698274,3.09090236686391,28.10871301775148,0.7297883924909802,0.7273545493542708,3.6357012805406694,24.954621015599532,254.1138789028884,39.86339874258638,21.849163185922148,250.16597337248925,43.430079336660334,8.649950396355754,7.159981892398535,7.51715204551685,1.941875497555478,5.137256691788329,2.3645243576691435,799.9384033862748,610.6488674924728,586.5918388743412,7094.457997931746,2053.011941877184,691.675628216897,5.3829419052572645,6.95770428524037,258.4730609032236,0.0
0.7950384615384617,9.772923076923078,1.2157307692307693,0.7867692307692308,9.671653846153845,1.3466538461538464,0.0149230769230769,0.07607692307692306,-0.10880769230769233,0.004269230769230775,-0.0825,0.0056923076923077005,27.065384615384616,-23.73076923076923,-24.165384615384614,273.93461538461537,-80.5653846153846,-31.730769230769234,-0.01081961786853324,0.12881524258328186,9.879954520735433,0.6094999999999999,9.9185,1.184,0.778,9.6845,1.376,-0.051500000000000004,0.20750000000000002,-0.41900000000000004,0.045,-0.048,0.0015,28.65,-23.6,-24.0,276.45,-80.9,-27.25,0.030982210638850337,0.3335624972552139,9.947934418097848,0.7621615254185967,1.549082605014905,1.1266782544512228,0.1664873078304741,0.045511572752849054,0.4100126585576533,0.692221392056979,1.507054920215046,1.1124800437010707,0.2551048890904873,0.2877722456815726,0.15421632389670367,3.945293428464655,1.2183750940586748,1.4999852070276474,11.741738251202987,1.6515592417452316,14.166612135873704,0.9757893732008622,0.8999058556158862,1.574120932647914,0.5808901908284023,2.399656917159764,1.2694038890532546,0.027718023668639045,0.0020713032544378727,0.16811038017751478,0.4791704556213017,2.271214532544379,1.2376118476331361,0.06507850443786982,0.0828128653846154,0.02378267455621302,15.56534023668639,1.4844378698224847,2.2499556213017744,137.86841715976337,2.727647928994084,200.6928994082841,0.9521649008517316,0.8098305489717602,2.477856710600338,21.511004842729243,254.12787476589986,32.03026702102219,20.600869408838058,251.46310118915673,35.19424185828224,5.552260072734839,4.825978920317617,5.283441190429218,0.9393666810889713,4.098519604057837,1.5374962704557364,706.7392120985697,617.2303022850207,628.6707768469214,7123.482209517608,2094.7153926161177,842.3934779894906,4.1051562383278215,4.72792150394555,256.91700901961235,0.0
0.7614615384615385,9.791538461538462,0.9457692307692309,0.8523461538461539,9.709576923076924,0.940576923076923,-0.0596923076923077,0.06738461538461536,0.060692307692307684,0.0596923076923077,-0.0027307692307692246,0.007884615384615391,24.042307692307695,-25.411538461538463,-21.211538461538467,259.55384615384617,-82.05384615384615,-45.67692307692308,-0.1730540199283562,0.09602793051351172,9.869428149520767,0.6185,9.376000000000001,0.783,0.8615000000000002,9.711,1.083,-0.1355,-0.2995,-0.0855,0.0115,-0.006,-0.011,24.75,-25.4,-21.85,269.95,-82.0,-37.1,-0.021066384508352326,0.08408165719059582,9.610009872557217,0.6958406222675082,1.605180273383389,1.2754396016726126,0.13760896166805758,0.04114998184589103,0.5129164104245839,0.6259522449977726,1.5618237878770762,1.2881265994049942,0.3048725798441513,0.35219242529882694,0.14307188266555892,3.025681496904468,1.5282788013561388,4.176889431795362,24.995387740221666,1.667617086012892,22.28784262763184,1.053152620324886,0.9200952620553724,1.6234487446869856,0.48419417159763306,2.5766037100591714,1.6267461775147927,0.018936226331360943,0.0016933210059171617,0.2630832440828402,0.3918162130177515,2.4392935443786983,1.6592701360946742,0.0929472899408284,0.1240395044378698,0.02046956360946746,9.154748520710061,2.3356360946745562,17.446405325443784,624.7694082840236,2.780946745562129,496.74792899408294,1.1091304416971737,0.8465752912567445,2.6355858266257495,20.634501254730118,254.68857864803115,25.757755124572338,22.227250995851016,252.44953479148882,25.415580536225946,4.982980245714998,7.864973586187124,2.9969086086924728,3.1229336236071497,3.6366472421082343,1.342786476154631,627.4612691986696,661.1310141704062,556.288150936161,6757.493384237394,2133.4937904426783,1223.116101273984,5.027855475747896,4.566990337155174,256.71923862221723,0.0
0.5426923076923078,9.840000000000002,0.6049615384615386,0.6181923076923077,9.740730769230769,0.6847692307692307,-0.03219230769230767,0.056961538461538466,-0.06015384615384612,0.034769230769230774,0.018346153846153852,-0.007230769230769229,27.588461538461537,-25.761538461538464,-17.242307692307694,253.50769230769234,-83.92307692307692,-44.900000000000006,0.048139970350344015,0.07148264751599688,9.89746862115574,0.5734999999999999,9.3915,0.48850000000000005,0.743,9.7335,0.9059999999999999,-0.147,-0.40349999999999997,-0.1095,0.023,0.087,-0.014000000000000002,28.200000000000003,-25.65,-17.9,264.9,-82.75,-37.150000000000006,0.2301456025809969,-0.0780888935588492,9.517645822548152,1.1411969684108256,1.907318960054824,1.3060642427587617,0.33115427722655766,0.044250647706956886,0.5710598316822386,0.9788072812290386,1.841632020388631,1.1915829385352428,0.46802336461173083,0.5503288487040965,0.3773722206249531,4.118936281939131,1.1139247741058929,3.110178460984449,41.51982772934585,2.782542790092945,40.7133601205758,1.0478691702038274,1.2028280175907724,1.9026181897546124,1.302330520710059,3.637865615384615,1.7058038062130174,0.10966315532544381,0.0019581198224852088,0.3261093313609467,0.9580636937869822,3.3916084985207107,1.4198698994082841,0.21904586982248514,0.3028618417159763,0.14240979289940828,16.965636094674554,1.2408284023668645,9.673210059171597,1723.8960946745565,7.742544378698231,1657.5776923076921,1.0980297978636577,1.4467952399013475,3.619955975985118,15.648975829166696,255.95512043712534,17.704108075675276,16.712380992158366,253.25961920813353,20.089360753012446,6.65536170010618,7.99718250919775,2.7031599147530456,3.611980638237079,3.243641786586017,2.095311689662425,720.4878876545296,670.0541912178045,451.3578548717852,6621.875226803644,2182.317409911308,1320.199712569898,4.6215252451927755,5.7781578891961844,257.44488122310685,0.0
0.5498076923076923,9.809576923076923,0.7783076923076924,0.5931153846153847,9.719730769230768,0.935846153846154,0.0035384615384615554,0.09219230769230768,-0.20826923076923073,-0.00019230769230769247,0.005423076923076914,-0.013576923076923077,30.46923076923077,-25.50769230769231,-18.923076923076923,261.3769230769231,-83.27307692307694,-36.11538461538461,0.12751876724305777,0.01589794408020561,9.89376229261766,0.6114999999999999,9.618,0.7375,0.6519999999999999,9.6985,1.1604999999999999,0.093,-0.183,-0.4385,0.12,0.14950000000000002,-0.013500000000000002,30.4,-25.5,-19.799999999999997,266.25,-81.6,-31.7,0.382438651875324,0.2247857631142205,9.803085077037005,1.3382028999667015,1.8230621149187625,1.7064705088670993,0.33300477323017885,0.06238439011625833,0.5953870552524049,1.198937485724154,1.7659061526425543,1.4682353237735193,0.49636455424421594,0.5311673771462049,0.4047308861906716,1.3495780624867757,1.0321460380135081,3.3107409921586686,36.675775988773545,3.3458996366744507,36.31066480661329,1.4554655034669162,1.3644622788500393,1.810815181215016,1.79078700147929,3.3235554748520713,2.9120415976331366,0.11089217899408285,0.00389181213017751,0.35448574556213025,1.437451094674556,3.1184245399408286,2.155714965976331,0.24637777071005917,0.2821387825443787,0.16380709023668638,1.8213609467455596,1.0653254437869824,10.961005917159765,1345.1125443786982,11.19504437869822,1318.4643786982247,2.1183798317822036,1.8617573104046423,3.2790516205187714,16.48598082980715,255.121988149075,22.112368392772513,16.096955363728867,252.71428601437438,25.590701827453522,7.464743832166308,6.625428966526043,8.094458878681698,1.9349352399970274,2.7072732380156026,2.3236364310484268,792.4220565218556,663.325540453078,494.3896829649978,6807.257795793518,2165.554762314015,1020.0403419484,7.16417137714587,4.335324879418483,257.313432785853,0.0
