ACCELEROMETER_X_mean,ACCELEROMETER_Y_mean,ACCELEROMETER_Z_mean,GRAVITY_X_mean,GRAVITY_Y_mean,GRAVITY_Z_mean,LINEAR_ACCELERATION_X_mean,LINEAR_ACCELERATION_Y_mean,LINEAR_ACCELERATION_Z_mean,GYROSCOPE_X_mean,GYROSCOPE_Y_mean,GYROSCOPE_Z_mean,MAGNETIC_FIELD_X_mean,MAGNETIC_FIELD_Y_mean,MAGNETIC_FIELD_Z_mean,ORIENTATION_Z_mean,ORIENTATION_X_mean,ORIENTATION_Y_mean,PRT_X_mean,PRT_Y_mean,PRT_Z_mean,ACCELEROMETER_X_std_dev,ACCELEROMETER_Y_std_dev,ACCELEROMETER_Z_std_dev,GRAVITY_X_std_dev,GRAVITY_Y_std_dev,GRAVITY_Z_std_dev,LINEAR_ACCELERATION_X_std_dev,LINEAR_ACCELERATION_Y_std_dev,LINEAR_ACCELERATION_Z_std_dev,GYROSCOPE_X_std_dev,GYROSCOPE_Y_std_dev,GYROSCOPE_Z_std_dev,MAGNETIC_FIELD_X_std_dev,MAGNETIC_FIELD_Y_std_dev,MAGNETIC_FIELD_Z_std_dev,ORIENTATION_Z_std_dev,ORIENTATION_X_std_dev,ORIENTATION_Y_std_dev,PRT_X_std_dev,PRT_Y_std_dev,PRT_Z_std_dev,ACCELEROMETER_X_median,ACCELEROMETER_Y_median,ACCELEROMETER_Z_median,GRAVITY_X_median,GRAVITY_Y_median,GRAVITY_Z_median,LINEAR_ACCELERATION_X_median,LINEAR_ACCELERATION_Y_median,LINEAR_ACCELERATION_Z_median,GYROSCOPE_X_median,GYROSCOPE_Y_median,GYROSCOPE_Z_median,MAGNETIC_FIELD_X_median,MAGNETIC_FIELD_Y_median,MAGNETIC_FIELD_Z_median,ORIENTATION_Z_median,ORIENTATION_X_median,ORIENTATION_Y_median,PRT_X_median,PRT_Y_median,PRT_Z_median,ACCELEROMETER_X_variance,ACCELEROMETER_Y_variance,ACCELEROMETER_Z_variance,GRAVITY_X_variance,GRAVITY_Y_variance,GRAVITY_Z_variance,LINEAR_ACCELERATION_X_variance,LINEAR_ACCELERATION_Y_variance,LINEAR_ACCELERATION_Z_variance,GYROSCOPE_X_variance,GYROSCOPE_Y_variance,GYROSCOPE_Z_variance,MAGNETIC_FIELD_X_variance,MAGNETIC_FIELD_Y_variance,MAGNETIC_FIELD_Z_variance,ORIENTATION_Z_variance,ORIENTATION_X_variance,ORIENTATION_Y_variance,PRT_X_variance,PRT_Y_variance,PRT_Z_variance,ACCELEROMETER_X_fft,ACCELEROMETER_Y_fft,ACCELEROMETER_Z_fft,GRAVITY_X_fft,GRAVITY_Y_fft,GRAVITY_Z_fft,LINEAR_ACCELERATION_X_fft,LINEAR_ACCELERATION_Y_fft,LINEAR_ACCELERATION_Z_fft,GYROSCOPE_X_fft,GYROSCOPE_Y_fft,GYROSCOPE_Z_fft,MAGNETIC_FIELD_X_fft,MAGNETIC_FIELD_Y_fft,MAGNETIC_FIELD_Z_fft,ORIENTATION_Z_fft,ORIENTATION_X_fft,ORIENTATION_Y_fft,PRT_X_fft,PRT_Y_fft,PRT_Z_fft,ACCELEROMETER_X_spec,ACCELEROMETER_Y_spec,ACCELEROMETER_Z_spec,GRAVITY_X_spec,GRAVITY_Y_spec,GRAVITY_Z_spec,LINEAR_ACCELERATION_X_spec,LINEAR_ACCELERATION_Y_spec,LINEAR_ACCELERATION_Z_spec,GYROSCOPE_X_spec,GYROSCOPE_Y_spec,GYROSCOPE_Z_spec,MAGNETIC_FIELD_X_spec,MAGNETIC_FIELD_Y_spec,MAGNETIC_FIELD_Z_spec,ORIENTATION_Z_spec,ORIENTATION_X_spec,ORIENTATION_Y_spec,PRT_X_spec,PRT_Y_spec,PRT_Z_spec,OUT
0.59308,9.857619999999999,1.0476999999999999,0.62062,9.70982,1.1447,0.005300000000000022,0.12892,-0.14122,-0.006119999999999999,-0.09194000000000001,-0.025379999999999993,25.381999999999998,-23.950000000000003,-26.494,283.20799999999997,-82.07,-27.976,-0.011352220845638144,0.13737731075309526,9.935678777505323,0.564,9.6425,0.965,0.67,9.712499999999999,1.1015000000000001,0.111,-0.2065,-0.2165,0.02,-0.1105,-0.0295,24.700000000000003,-24.3,-27.05,281.29999999999995,-82.05,-29.25,0.15015256390439966,0.4161281170416964,9.655727645163779,0.6759445492050365,1.958124142029815,1.1435936559810045,0.3440022028999233,0.04057175865056884,0.2720762576925815,0.6197770002186269,1.9359190255793242,1.1028605222783159,0.27491574272856767,0.32207144611095223,0.20620862154623895,2.1579332705160277,1.4918780110987626,2.817332781195718,15.190494922812752,1.7313867274528816,13.629549662406312,0.8698794547908597,0.9243490988212281,1.9680506064234122,0.4569010336,3.834250155599999,1.30780645,0.1183375156,0.0016460676000000073,0.07402549,0.38412352999999994,3.7477824736,1.2163013315999998,0.0755786656,0.1037300164,0.0425219956,4.656675999999999,2.2257,7.937364,230.751136,2.997699999999999,185.764624,0.7566902658672433,0.8544212564916165,3.8732231894435607,30.378186416960624,492.88479509519044,52.50220043662491,32.74294725754813,485.4918096750795,57.473927171176925,4.361111721047487,7.0622582486093375,9.374221048134984,1.4967308972664797,5.7283577195872395,1.401954068696711,1270.4709178282642,1198.2102995089358,1326.8819101548727,14167.692592592166,4103.709784721299,1451.8418261538566,5.568914504483321,8.553958688123119,496.7860148029658,0.2072335605077949,2.8269857559213563,0.22513848123286725,0.022046066733129432,0.0006518870334811108,0.034515190467395984,0.21292439139352531,2.7540093577264937,0.19930467644498287,0.015294734762715395,0.010533785786785791,0.020796803240718552,3.7608480720814312,0.08978953259306358,5.075217438995348,6.840440913299721,0.8307302287164098,40.980419158473985,0.19792060629965771,0.21041427554304604,2.866270180063524,0.0
0.18736,9.78772,0.8984000000000001,0.27666,9.749360000000001,0.9303199999999999,-0.07251999999999999,0.07644000000000002,-0.042799999999999984,0.010639999999999993,0.06144000000000001,-0.005159999999999999,27.334,-23.305999999999997,-23.832000000000004,290.718,-84.11200000000001,-16.874000000000002,-0.08801858864407468,0.05055854349901139,9.832564396196227,0.2505,9.85,0.982,0.2645,9.753499999999999,0.966,0.10400000000000001,0.113,-0.172,0.0245,0.0835,-0.025500000000000002,25.85,-23.5,-25.75,289.75,-84.1,-15.6,-0.004592967359209209,0.10931038555354936,9.83232174186077,0.7404663330631582,1.8768757022243108,1.142168166252238,0.24279230712689392,0.03379275662031727,0.3432824166775805,0.703230182514943,1.886916375041565,1.1146284403333697,0.26973348030973093,0.39721395544466964,0.18960742179566706,4.192260011020309,1.3164209053338525,6.255891303403536,12.110403626634415,2.1081404127808936,13.647810227285548,0.8575559134248275,0.9827001377553303,1.9043272541746683,0.5482903903999999,3.5226624016,1.30454812,0.058948104399999986,0.0011419503999999968,0.11784281760000001,0.49453268959999996,3.5604534064,1.2423965600000002,0.0727561504,0.15777892640000002,0.035950974399999995,17.575044000000002,1.732964,39.136176,146.661876,4.444255999999997,186.262724,0.7354021446498902,0.9656995607443452,3.626462290992432,14.62242858105452,489.4283367734047,45.320040485984954,15.34804456645685,487.4685211446828,46.929144067688995,10.729470029717774,9.936527322444537,5.8207246818988,1.1315225621877367,8.099383746799083,0.8992167224043085,1373.7552246198295,1165.8581969447487,1210.3905714765338,14538.613052862753,4205.8560031024135,907.4538170983244,11.332203047164413,4.710905122702314,491.6734169877945,0.07912053857098512,0.9160118418928607,0.21442768335747558,0.00810621393141797,0.0004238939704063317,0.03433692115526766,0.0839203845013331,0.8879519357881864,0.19811035422453752,0.023228287889803974,0.012058004206640065,0.0032015728135785498,0.6086552815058587,0.1931842124811936,0.5269200969602571,17.751301422859925,1.3029297621961409,19.785041097929483,0.10167595723274757,0.21082443607088353,0.9268829499571771,0.0
0.10747999999999999,9.80322,0.7281400000000001,0.2229,9.777120000000002,0.63942,-0.11392,0.07434000000000002,0.0787,0.01512,0.08148000000000001,0.010760000000000002,31.072000000000003,-24.464000000000002,-17.168000000000003,275.774,-85.88600000000001,-20.406,-0.11473234959380553,-0.06956595012552817,9.828222859283306,0.023000000000000003,9.8995,0.717,0.20600000000000002,9.778,0.6579999999999999,-0.139,0.2155,0.15500000000000003,0.021,0.063,0.0,32.8,-24.8,-14.600000000000001,275.55,-85.55,-18.35,-0.1746232905108394,-0.0687181839556501,10.000400634728331,0.6923860553188517,1.9408489512581857,0.9978335334112599,0.19444611078651072,0.020805422370141755,0.2839228127502262,0.7163290260767045,1.9723854654706823,1.0442590148042774,0.2317292074814912,0.3804080041218902,0.16154201434920887,3.7050257758887453,1.2507213918375268,6.041007862931482,19.168816447553564,1.7308968773442277,18.629454205638982,0.8078550095454073,0.8826644936314227,1.9603910859916929,0.47939844959999994,3.766894651599999,0.9956717603999999,0.03780929,0.00043286559999999494,0.0806121636,0.5131272735999999,3.8903044243999996,1.09047689,0.0536984256,0.1447102496,0.026095822400000003,13.727216,1.5643040000000001,36.493776,367.443524,2.996003999999999,347.056564,0.6526297164476103,0.779096608317616,3.8431332100356888,10.768436468430295,490.2061236948864,37.36585863676181,12.715980943333633,488.8563030425837,32.79232549441814,10.719702048790941,7.882734211588284,8.671158033260827,1.3350948088477321,8.952357995199929,0.8381648123354032,1558.061192681722,1223.7865714366737,881.1910180877644,13794.982275055097,4294.560297698306,1100.4650034698275,11.434099566898206,7.361782270698359,491.4576117646377,0.19560826269092363,2.3529984688208003,0.47757810808144424,0.02659351296964642,0.00018405167769990768,0.020561093785326136,0.24108713756827302,2.302015813826753,0.4712857396894413,0.017597723517768983,0.05042582297632818,0.013790387058468025,10.042263356801179,0.25168817085029,15.551795248287043,26.270406972138346,0.634910089326443,115.69528613142651,0.3791028952519881,0.2518168072370202,2.4513005281511355,0.0
0.35524,9.9641,0.4157600000000001,0.20078000000000004,9.78962,0.31754,0.14874,0.21743999999999994,0.11370000000000005,0.011339999999999996,0.07909999999999999,-0.024640000000000006,31.875999999999998,-25.023999999999997,-12.798000000000002,238.45600000000002,-86.874,-22.656000000000002,0.1656675377233286,0.17685520967756962,9.969722471594356,0.41300000000000003,10.008,0.28049999999999997,0.265,9.793,0.3335,0.13,0.2155,-0.028999999999999998,0.027,0.0405,-0.0245,32.6,-25.25,-14.600000000000001,258.0,-86.95,-29.35,0.197078719714642,0.06620385093170915,10.11745032300761,0.950739071670035,1.606716082573396,0.941432686069482,0.271700002944424,0.012001483241666366,0.34212449254620747,1.0019281173816812,1.6028905909013251,1.0702960945458038,0.24965981735153134,0.5208544614381257,0.1278830340584708,1.5228341997735664,0.9201217310769264,6.6323899161614435,61.5925974772943,1.3008935390722802,61.66549167889606,0.8239876388051744,1.1010216219975093,1.6151729319584824,0.9039047824,2.58153657,0.8862955023999999,0.0738208916,0.00014403559999999862,0.11704916839999999,1.0038599524,2.5692582463999996,1.14553373,0.06233002439999999,0.27128937000000003,0.016354070399999997,2.3190239999999984,0.8466239999999996,43.988596,3793.648064,1.6923240000000022,3802.6328639999997,0.6789556289037266,1.212248612106026,2.6087836001313605,20.221990273753562,498.2196811727361,22.71523912759984,12.6363582451823,489.4810631363465,19.18912875842815,13.566972124916479,11.7977812782547,9.472210471986967,1.8031720866295908,10.527471821994867,1.7791531583251732,1594.3517022654396,1251.3233982667089,660.8427849711574,11996.271261980792,4343.784265769788,1700.8078457765935,11.050316716661268,18.36594031000053,498.5021836866318,0.10522196275962273,1.5874593766897274,0.10507616852425729,0.003875039930154251,7.81439321170915e-05,0.030667785651395142,0.11264130678683269,1.620665230593538,0.2165570212562165,0.023396647224873626,0.025982332048943815,0.004308766142970378,0.024200326451522036,0.04552031473849651,0.3283419407523846,100.11639807822351,1.1013391405922583,98.7671046325313,0.03144758528120634,0.15727042640741073,1.606327684873616,0.0
0.17287999999999998,9.95426,0.46869999999999995,0.1703,9.78366,0.30796,-0.0028799999999999885,0.20914000000000002,0.18355999999999997,0.01726,0.07585999999999998,-0.01676,32.656,-23.674,-12.258000000000003,223.49200000000002,-86.52199999999999,-22.432000000000002,0.1996238639256315,0.4098950509340099,9.954632606882425,0.195,9.915,0.28049999999999997,0.3055,9.7955,0.21750000000000003,0.01,-0.0035,-0.096,0.01,0.184,-0.044,32.7,-23.75,-14.350000000000001,243.25,-87.1,-31.700000000000003,0.2283111955029989,0.5868037657979747,9.86005370415155,1.0747629439090278,1.590730031274949,1.1308347226717086,0.3231225309383423,0.02335346655209884,0.4700901598629778,1.150448375895242,1.5754190300996112,1.1926600380661707,0.25512238710077956,0.8343456360525894,0.18234095096823422,3.1315912887859425,1.5788362803026792,8.262519954590125,74.66533289284926,1.8070185389198414,74.41745343667708,0.9842702059351787,1.1976782907867392,1.6110210475505466,1.1551153856,2.5304220324000006,1.27878717,0.10440817,0.0005453843999999993,0.22098475840000004,1.3235314656,2.4819451204,1.4224379664,0.0650874324,0.6961326404,0.0332482224,9.806864000000001,2.492724,68.269236,5574.911935999999,3.2653159999999986,5537.957376,0.968787838291679,1.4344332882218447,2.5953888156508604,11.221440111933012,497.73443473472656,27.561510462264113,11.141565900737053,489.18351509989446,21.345226908981775,7.529313145997396,11.248385357051296,11.141973088848498,1.8470347168407089,12.811635550382542,1.400182260902172,1634.7878127339252,1184.5635320847784,648.2167339168586,11241.680856497402,4326.440281516208,1567.6278498004833,16.25444418673439,25.546507690436105,497.7564891827357,0.2048883816184786,1.1718112592484646,0.26213891640238723,0.005373621582253034,4.1647480392813734e-05,0.03468868602718154,0.2192531651145401,1.1640057667367436,0.3866525291175884,0.01633817035159123,0.032953950285942224,0.008198873723056494,0.35337140963918395,0.25135400817706977,1.0741661456421747,316.7188563625821,0.5760900871439025,380.8380740515111,0.15079661336986805,0.3457175596471296,1.1852933453997776,0.0
0.31678000000000006,9.933679999999999,1.18446,0.29332,9.714920000000001,1.05552,0.057760000000000054,0.22575999999999996,0.09787999999999998,-0.00012000000000000232,-0.05832,0.0036999999999999945,33.112,-25.236,-2.8539999999999996,235.776,-82.93799999999999,-19.648000000000003,0.16872331735077786,0.1429794502085085,10.017288531553195,0.39549999999999996,9.7795,0.8740000000000001,0.402,9.721,1.2125,0.12,0.0085,-0.075,-0.0475,0.07200000000000001,0.0055,33.95,-25.0,-4.8,246.95,-82.95,-20.1,0.33104192894454937,0.32163592594851115,9.834532699273216,1.1344380333892197,1.9283825703423063,1.3591953974318778,0.3533939127942076,0.06937804840149372,0.6783948478577944,1.1118385595040317,1.87078918705449,1.2711886664063679,0.28942837732330257,0.8316938244330061,0.23322549174564944,3.1243328887940223,2.9103099491291307,12.336793910899216,51.533156549933935,3.3759081741066357,45.50713895643189,1.21576966402167,1.1476275521932564,1.9606604601777993,1.2869496516,3.7186593376,1.8474121284,0.12488725760000001,0.004813313600000007,0.4602195696,1.2361849824000002,3.4998521823999997,1.6159206255999998,0.08376878559999999,0.6917146176,0.05439413,9.761456,8.469904000000003,152.19648399999997,2655.666223999999,11.396755999999998,2070.8996960000004,1.4780958759553642,1.3170489985530855,3.8441894401046195,29.608594654638924,496.71274286856664,61.481306210483254,18.362445620724188,485.7498322524268,56.44597995896668,22.037719663585,12.83596092187626,16.130077827473627,1.6594745127178938,21.31922979983606,2.5391707240298107,1657.7413719645783,1265.4127309611465,440.6205310332369,11824.693954202236,4148.098154999756,1316.5850847565766,23.318770028941884,17.22918286608344,500.91423160152493,0.36241537653656797,1.0072603264831754,0.3571871260614137,0.03977218309087824,9.038850103056247e-05,0.08136306794021281,0.5015127826766299,0.9449459374657992,0.3523489307323693,0.022844769618891834,0.6268315979768062,0.02201152932465729,8.277241055444,0.9139444822423988,32.51082798795871,3378.3387652084502,0.54364310205216,2663.0568132151275,0.2425936314792154,0.4360558082733415,1.0326112315080271,0.0
0.84272,9.75784,1.47152,0.73118,9.660540000000001,1.40646,0.13916000000000003,0.08470000000000003,0.05797999999999998,-0.006020000000000002,-0.15742000000000003,-0.014100000000000003,28.704,-25.785999999999998,-9.952000000000002,253.012,-80.23,-27.498,0.0446499951560653,-0.017925978797579078,9.902571221137862,0.9515,9.7125,1.1875,0.8435,9.6695,1.3864999999999998,0.3145,0.028,-0.076,-0.041,-0.22699999999999998,-0.0035,30.299999999999997,-25.15,-8.75,256.25,-80.35,-30.55,0.4258099547081948,0.14832174601275155,9.909190110030114,1.08112521087985,2.155465484390785,1.3293133601976626,0.444939757270577,0.04721534072735255,0.36041455076064843,1.0605785658780778,2.1000329735506535,1.3262934741602252,0.2820441447717006,0.6128851145198422,0.22087999003984043,5.303657605841463,2.3297218718121697,18.582908706658387,21.292708986880935,1.6620770138594658,17.987256488970182,1.2933754317636443,1.0643005517597466,2.191834696217537,1.1688317216000002,4.6460314544,1.7670740096000004,0.1979713876,0.002229288399999996,0.12989864840000004,1.1248268944,4.4101384900000005,1.7590543796,0.07954889959999999,0.3756281636,0.04878797000000001,28.128783999999996,5.427604,345.324496,453.3794560000001,2.762499999999999,323.5413959999999,1.6728200074897932,1.132735664476101,4.804139335543022,46.58710985997351,487.9064311212865,73.89838111371736,39.33951259120764,483.0270342530246,70.66742434954271,19.929548476955272,5.732469130378916,12.005918767367826,0.6693732632077427,18.118165401323854,3.2059014398569032,1445.4469230674351,1291.4912279081357,810.0104899933124,12670.65260824612,4011.508966367976,1487.3592605253705,17.289693103856898,12.601162248793718,495.15265650652896,0.6480345385597932,1.5198657732145233,0.10998848349722537,0.04344279766156216,0.0014198624289537224,0.05393801543451136,0.7551648736262154,1.3301133661008584,0.15467481200595357,0.042752772471214125,0.06400535110252789,0.016338345459539105,1.7783440368066967,0.6544958661903875,13.559250867233406,131.7015743161059,1.86867288463998,76.57110778554663,0.6948841733860003,0.20498209403300693,1.4354963701796981,0.0
0.6898199999999999,9.67948,1.40452,0.8142,9.6549,1.3484,-0.12057999999999999,0.01808,0.05115999999999999,-0.004620000000000005,-0.006539999999999993,-0.0074400000000000065,28.142,-24.291999999999998,-22.882,268.566,-80.24,-33.934,-0.12278824645758338,0.04740572537264553,9.8228258836627,0.7275,9.7915,1.1265,0.94,9.6735,1.2934999999999999,-0.1795,0.11499999999999999,-0.12200000000000001,-0.017499999999999998,0.023500000000000004,-0.042,27.7,-24.15,-24.55,269.25,-80.4,-38.0,0.29028442137274013,0.3209911400672002,9.992063436699391,0.9997924122536638,2.0761886931586924,1.525743913505802,0.4125060484405047,0.07547774506435653,0.5439951470371772,0.8782057182687892,2.0475701095689005,1.4771265532783575,0.28049655185046396,0.5879600738145405,0.21573086566367825,5.572471265067232,1.3570320556272797,8.076724336016428,13.989290332250595,2.342818815017499,19.334328123831973,1.1547756201649384,1.178936356915932,2.133136122331233,0.9995848675999999,4.310559489599999,2.3278944896000002,0.17016124000000002,0.005696889999999997,0.29593072000000004,0.7712452836000001,4.1925433536,2.1819028544,0.0786783156,0.3456970484,0.046539806399999994,31.052435999999997,1.841536,65.23347600000001,195.700244,5.488799999999999,373.8162439999999,1.333506732927318,1.3898909336582097,4.550269716394329,36.33292761116404,484.0300934090634,72.2590304277434,42.83663103018055,482.7482810260527,69.11727726210466,7.684936982082895,4.9362736345502265,6.945076406701602,2.694579285761079,13.412339568200105,0.909944167745909,1420.0906113095696,1215.1511279059011,1176.5705491029769,13433.08361955739,4012.3761088923798,1800.854321963375,8.409872163216997,8.864318644282589,491.17759031364733,0.2627299790423873,2.6085308087224757,0.2752655936882099,0.014933034623053556,0.001050362414457288,0.061169291704605666,0.3195475957306173,2.511980264337795,0.2966151723778622,0.018575276668947493,0.11132696236076584,0.00917258943949659,16.005807694027407,0.4216526702163902,30.44082057604214,53.85018208995589,0.9803465857345908,45.49966382826894,0.2531697950134279,0.3022326343121451,2.6606500777547653,0.0
0.33692000000000005,9.803339999999999,1.4724800000000002,0.40926000000000007,9.645280000000001,1.4690600000000003,-0.04379999999999999,0.16328000000000004,-0.017639999999999975,0.013240000000000007,0.10422000000000001,0.012279999999999998,33.264,-24.595999999999993,-15.89,262.55799999999994,-80.366,-19.985999999999997,0.11994207112833653,0.056295051411747454,9.972730159509121,0.46199999999999997,9.9,1.271,0.35350000000000004,9.669,1.5939999999999999,-0.0155,0.2885,-0.15800000000000003,-0.057,0.107,0.0415,34.7,-24.75,-14.9,273.3,-80.0,-11.600000000000001,0.25096425708634,0.22978166052881205,10.149597871717246,1.2250689097352851,2.1995574610361968,1.749654802982577,0.40961468772493986,0.10772781256481545,0.7964420734742735,1.0722659931192446,2.176632261453459,1.5323506616959448,0.3880928012730976,0.5020927918223882,0.22932597236248667,3.7798814796234024,1.887745745591816,5.982382468548797,38.16048788996284,3.8089688893452527,40.969007847396064,1.2390265680793908,1.24714602420732,2.2855774478836737,1.5007938336000002,4.838053024400001,3.0612919296000003,0.1677841924,0.01160528160000001,0.6343199764,1.14975436,4.7377280016,2.3480985504,0.15061602240000002,0.2520971716,0.0525904016,14.287504000000002,3.5635840000000014,35.7889,1456.2228360000001,14.508244000000007,1678.4596040000001,1.535186836406593,1.5553732056961254,5.223864270274448,22.53384600091687,490.2255037867665,78.08855658397866,24.076360368806714,482.2750794206735,77.29014175442923,4.831850574206122,10.134428042866439,5.420860586480065,2.8523619740325614,9.747014990788648,1.5181415251542265,1667.5225582602152,1231.0422960682536,812.7551696287597,13152.315287013018,4019.8238285736534,1238.96656697811,16.05991844481113,8.8894511252436,498.6689315653103,0.17384438792066614,1.333669589728455,0.47095834793553926,0.031044020453712077,0.0012209821222867586,0.11536383373194957,0.194570599033951,1.1862567795556394,0.3373898966144814,0.03173333752745697,0.06157265282337342,0.009803612866174245,6.590229145102907,0.37965653464510185,21.501692775203548,86.96354237827248,2.013478452119177,167.70280679746102,0.2776805918712936,0.289726107117669,1.424358277834359,0.0
0.50634,9.711500000000001,1.1116000000000001,0.43310000000000004,9.68606,1.2376800000000001,0.08084000000000005,0.07466,-0.06684,0.023240000000000007,-0.08684000000000001,0.0010800000000000033,34.300000000000004,-25.14,-17.35,261.654,-81.77399999999999,-22.541999999999998,0.32427979082315794,0.04555904886326871,9.843304369612936,0.6035,9.777000000000001,0.9664999999999999,0.476,9.713000000000001,1.091,0.08449999999999999,0.2315,-0.253,-0.040999999999999995,-0.1295,0.049,34.5,-25.4,-15.8,269.75,-81.95,-22.799999999999997,0.3980382074675577,0.12008305985722963,10.051774569173396,1.2163531495416946,2.237133569995319,1.720364333506133,0.3389097962585324,0.09837853627697463,0.7126226614415233,1.0641672304670915,2.233534397406944,1.5865628050600453,0.41777278800802714,0.45763371204490605,0.22827359374224607,1.761476653265663,1.84499322491981,6.6648105749526,36.955060330082,3.6729720935504,38.94707737430371,1.2640104010312354,1.1313110042355836,2.3181331357947452,1.4795149844000002,5.004766610000001,2.9596534400000007,0.11485984999999996,0.009678336400000013,0.5078310576,1.1324518944,4.988675904400001,2.5171815343999997,0.1745341024,0.2094286144,0.0521088336,3.1028000000000002,3.4040000000000004,44.419700000000006,1365.6764840000003,13.490724000000007,1516.874836,1.5977222939151445,1.2798645883045245,5.373741235269579,30.059669198258643,485.59421962667784,59.769693441995784,23.08221172893129,484.3118713363629,65.45771721119726,9.373655079872263,4.55232729123439,6.406231285793725,2.9937971950846083,6.418331634509955,1.4144564918372429,1715.6899691362967,1258.1407044021498,894.3187491524686,13110.217936286648,4090.151633855538,1249.2630257755923,20.776424124401146,6.3156503128908765,492.16716557350213,0.4727338764480178,2.3352919835972,0.9483076446236812,0.022676034574445014,0.003907298299906754,0.10287432903995893,0.40780824248364145,2.3071123500611006,0.6327683047267342,0.05522038640735907,0.06628760675412237,0.011181509831375943,0.324891549709716,0.5044451497219578,2.3314983354704677,20.638391185106702,3.0535327977851403,20.37008338190153,0.4357987086185847,0.340754581101918,2.66103782303231,0.0
0.95402,9.656279999999999,0.90276,0.9289799999999999,9.69536,1.00368,0.04232000000000003,0.00554000000000002,-0.07878000000000002,0.02918,-0.06344,-0.0058000000000000005,31.15,-26.107999999999997,-22.311999999999998,258.7,-81.73400000000001,-41.214,0.1296538354664535,0.04244544742895595,9.770305628868359,0.752,9.479,0.6295,0.7865,9.6965,1.0205,0.0135,0.015,-0.357,-0.0395,-0.134,0.009000000000000001,31.65,-26.25,-24.15,260.05,-81.2,-42.8,0.2616898608232764,0.12959263134233434,9.707787083062632,1.2200371877938805,2.0212636843321556,1.5492862299781793,0.44930045581993344,0.05930455631736911,0.30856684462203643,1.0772336318552256,2.0384948487548358,1.5429720190593217,0.3895792443136569,0.47651053125822934,0.23879447229783188,2.836564823867066,1.016236193018139,5.102612664116296,12.504639139135527,2.3999674997799456,15.57933259160995,1.3778944334234606,1.1283167033203187,2.072192846429525,1.4884907396000002,4.0855068816,2.4002878224,0.2018708996,0.0035170304000000045,0.09521349759999997,1.1604322975999999,4.155461248400001,2.3807626516,0.1517719876,0.22706228639999998,0.0570228,8.046100000000001,1.032736,26.036656000000004,156.3660000000001,5.759844000000003,242.71560399999998,1.8985930696593594,1.2730985829916321,4.2939831927936964,49.386966525043604,482.89023241710356,45.788387141136596,48.6304995194752,484.7702379453725,50.228760835652096,3.3906782662972454,6.165738872763423,8.824904346111873,2.6648141143667776,6.235347293367199,1.6926865563012878,1559.8312420940865,1305.5533693978796,1126.8364738499752,12939.163221806044,4087.0997632284434,2107.4992008373824,10.365053881026622,5.37967141475444,488.5683954587244,0.26369945801952843,2.0206817499108007,0.6008468445013021,0.014544508156658968,0.0003992186156451031,0.037160370932860017,0.2554152706365421,2.0031999091800516,0.6193721009646522,0.0428478447018211,0.050474853146160965,0.011963330772274999,1.2452232977740507,0.6064058906594305,14.399450929731486,56.44519658607485,1.0170682137599465,83.25800421739741,0.354541447496051,0.2587211109891305,2.1269496788368683,0.0
1.27194,9.808100000000001,0.90616,1.32784,9.66552,0.8845999999999999,-0.04468000000000002,0.13272000000000006,0.0027799999999999782,0.025579999999999988,0.040539999999999986,0.009020000000000002,28.740000000000006,-26.003999999999998,-20.291999999999998,242.67399999999998,-80.492,-56.272,-0.022353154061814796,0.08453467100277216,9.948407967832615,1.4305,9.924499999999998,0.6415,1.37,9.654,0.885,0.051500000000000004,0.20099999999999998,-0.23099999999999998,0.0025000000000000005,0.032,-0.0085,28.25,-26.35,-19.1,245.2,-80.1,-57.900000000000006,0.11870547029894843,0.1583292875488181,10.246852787352719,1.299568734773194,1.8046658887450606,1.3588832968286866,0.31974047976444897,0.052947234110952444,0.3114554221714562,1.1148873923405898,1.7999432662170214,1.2474865015702574,0.32329355638490537,0.4302170247677328,0.22208029989172837,1.9926866286498737,1.4260378676599017,4.344414344880102,12.717370954721737,1.9426620910492907,11.859966947677384,1.3705929749917116,1.0872080002011204,1.8414753304534186,1.6888788963999999,3.2568189699999994,1.8465638144000003,0.1022339744,0.002803409600000006,0.09700448000000002,1.2429738976,3.2397957615999995,1.5562225716,0.10451872359999999,0.18508668840000003,0.0493196596,3.970799999999999,2.0335839999999994,18.873936,161.73152400000006,3.773936000000002,140.658816,1.8785251030966308,1.1820212357013196,3.3910313926685274,65.21144619898037,490.45489932055744,45.802053330209596,66.96167398903872,483.27763139234463,44.51666037594097,8.18589611178698,8.789164156665624,4.280478765328535,2.298076468542863,5.615944522737349,1.6156006210518086,1438.4685668668421,1300.8976958961316,1021.7901978113089,12137.298961228411,4024.8367896224263,2825.744928364297,5.229373698081541,9.28461098059191,497.4602880305359,0.6667972225276403,2.3902496546783683,0.5480960076288801,0.04886107299983248,0.0011635840401472421,0.04896847863938859,0.5143564404249026,2.5327140811524833,0.5653381421374251,0.03296879902963801,0.09275444230922664,0.0076522781243366774,1.1120457107150674,0.29749981830466704,6.305328262376894,55.228052179079505,2.046426710720872,64.33108391868002,0.6216352020849154,0.22153571933039493,2.548209808725257,0.0
1.2676999999999998,9.81456,0.79586,1.4407599999999996,9.66646,0.69512,-0.20226000000000002,0.15014,0.12666,0.031019999999999995,0.06514,0.0001400000000000029,28.632,-26.034000000000002,-17.875999999999998,231.392,-80.44800000000001,-65.05000000000001,-0.1407019452529142,0.2102903074913528,9.931877860264967,1.2690000000000001,10.075,0.5375000000000001,1.425,9.6705,0.653,-0.1895,0.2905,-0.0685,0.061,0.0715,-0.028000000000000004,28.35,-26.35,-18.4,232.64999999999998,-80.30000000000001,-64.9,0.1509420755254538,0.28286244142174755,10.246852787352719,1.1044780713078917,1.7072943057364187,1.2478799943904864,0.23304356330952372,0.048613664745624785,0.3376276434180116,0.9540587153839118,1.6994303046609474,1.2198298505939262,0.26576572314728625,0.35649734977977043,0.19217325620387452,1.4662114445058736,1.957100917173154,2.5869333195890456,9.65206382075875,1.6821700270781195,10.463388552471901,1.2591440274934682,0.9296883027158045,1.7612477553645745,1.2198718100000001,2.9148538464000002,1.5572044804,0.054309302399999995,0.002363288400000002,0.11399242559999999,0.9102280324,2.8880633604000003,1.4879848644000004,0.07063141960000001,0.1270903604,0.0369305604,2.149776,3.830244,6.6922239999999995,93.162336,2.829696000000001,109.48250000000002,1.5854436819724718,0.8643203402065934,3.1019936557767522,65.10645362259844,490.746584029388,40.23525189830266,72.24314428135052,483.32459858995605,35.88663541713152,14.579186694421425,8.137839619719726,8.097827711346223,2.47639830609869,5.2722471452418045,1.3418955136140753,1432.196207300208,1303.244715800375,896.4392246086782,11571.707877339575,4022.617828028332,3261.9413624974804,10.606869523304368,14.725031964914136,496.6010249910127,0.5506723283220152,1.1037033993026542,0.4753050466173881,0.012363498461146708,0.0002644439478019402,0.017449732407343977,0.3957366141994421,1.036132148972269,0.5298449254631363,0.0201618853535165,0.013624364136752921,0.015061127327218619,0.8005346104489063,0.16509878140574955,2.750117828719308,33.77540191639253,0.39425444561550466,32.217742199982034,0.542882125658541,0.4044227441215782,1.2057029797731984,0.0
1.2862799999999999,9.73692,0.43152000000000007,1.4414000000000002,9.68078,0.43232,-0.17858000000000004,0.06636000000000004,0.03160000000000003,0.01638,0.058779999999999985,-0.006100000000000001,29.342,-27.852000000000004,-16.236,220.18400000000003,-80.932,-74.214,-0.04117639251178232,0.18501751608653522,9.836656351318378,1.3745,9.531500000000001,-0.011,1.4455,9.688500000000001,0.3425,-0.0335,-0.0745,-0.2185,0.061,0.11,-0.015,29.45,-28.65,-17.1,218.55,-81.15,-77.3,0.3070395853604176,0.2992741236896192,9.833856906738095,0.995096056468922,1.7314615310771417,1.141965818052362,0.20686633365533408,0.040244895328476166,0.37701174729708353,0.9391476580389263,1.7530354561160477,1.1378976052351988,0.28601754421713366,0.37301545758855625,0.16904736022783673,1.5375421945429661,2.1155840801064842,3.168265140419911,13.514190467800875,1.429606938987077,12.98791761599988,1.0909573452368473,0.9152348645128523,1.7655084319148977,0.9902161616,2.9979590336,1.3040859296000002,0.04279368,0.0016196516000000025,0.14213785759999997,0.8819983236,3.0731333104,1.2948109600000002,0.0818060356,0.1391405316,0.02857701,2.364036,4.475695999999999,10.037904,182.63334400000002,2.043776,168.68600400000003,1.1901879291262296,0.8376548572198591,3.117020023162601,64.52945797882118,486.87983826272335,24.980166692063158,72.1699153621556,484.03958192640744,23.535362524160988,10.152840677963619,6.476679048607632,7.472404633159874,2.245326442256459,7.172574342973917,1.384091783747102,1467.827442812544,1393.9169625107322,816.9731651865043,11014.267659542962,4046.687709070521,3723.222778616404,8.8548271791118,10.091780319214918,491.8596565541951,0.25193436639667166,1.7343116154753184,0.6255649783666692,0.007539460459095141,0.0008004678079093573,0.06331758322197016,0.2616644537399645,1.8852974329402734,0.661694566389049,0.033384917123637545,0.043720346421986356,0.009527081497272055,0.8319929698521601,1.4673197096321293,0.6077331928681653,25.073893637977797,0.874827197916379,50.21661310972417,0.4526340883104202,0.2191610604604734,1.9195270807994387,0.0
1.4653600000000002,9.746479999999998,0.52394,1.5053000000000003,9.64614,0.65134,-0.07944,0.11093999999999998,-0.08911999999999999,-0.0008599999999999952,0.01634,-0.00602,30.224,-29.79,-11.796,216.51000000000005,-80.00399999999999,-69.34400000000001,0.15977471703486612,0.11777113181704521,9.899991844684488,1.4735,9.9805,-0.0335,1.4905,9.682,0.5640000000000001,-0.0335,0.29550000000000004,-0.4335,0.0135,0.10300000000000001,-0.0555,30.3,-29.7,-10.95,217.2,-80.80000000000001,-68.35,0.46758147485924173,0.08714953217394891,10.232952389100557,1.215730262188122,1.8906229263393586,1.5101074055841195,0.2512426914359898,0.09276896248207146,0.5985852858198236,1.1247471210898918,1.8488933058454184,1.3246718482703557,0.4310346162432897,0.4956544606880886,0.19187417648031743,1.391338923483419,0.9853425800197614,3.842965521573151,11.981740274267342,2.467627200368808,16.223478788471972,1.235345307639479,1.148861461699782,1.9629945818065206,1.4780000704,3.5744550496,2.2804243764,0.06312289,0.008606080399999981,0.3583043444,1.2650560864,3.4184064564,1.7547555056000002,0.18579084040000002,0.24567334439999997,0.0368156996,1.9358239999999995,0.9708999999999998,14.768384000000001,143.56210000000002,6.089184,263.20126400000004,1.5260780291068787,1.3198826581789598,3.853347728201757,74.17648705788226,487.38327239940196,33.4832726708423,75.57874248592547,482.31447107349715,36.31786938339638,6.175640156264078,6.887149008456129,7.863744205093834,2.717630516114865,6.3764087000625675,1.6712136484988798,1511.804586358932,1489.7465793204462,601.2301806415993,10827.342922071257,4000.8825504147653,3489.280938310815,8.569226294681352,8.156793118419506,495.016414141344,0.42915839960808383,1.1795475311637342,0.27749585412323985,0.014427995345050244,0.00018879869517309254,0.029026728900989937,0.3687869192903733,1.1739382186479679,0.385520536610199,0.02043240462117595,0.036595510006870446,0.006228186529184709,0.8899620224387588,0.20223412173500996,2.5329513298915143,41.950330988536585,0.28916398211335004,62.89460715423288,0.3212548170570948,0.44172928247346843,1.157427517486486,0.0
1.4142000000000001,9.83698,0.82588,1.3791400000000003,9.64184,0.9377999999999999,0.03554000000000004,0.25966,-0.0851,-0.013419999999999996,-0.06446,-0.012860000000000005,30.786000000000005,-29.662000000000003,-12.466,226.80800000000002,-80.006,-58.38400000000001,0.18519445664791825,0.0513753626911312,10.013550736641164,1.119,10.2715,0.3305,1.3760000000000001,9.666,0.8375,-0.074,0.7925,-0.21350000000000002,0.0115,-0.040999999999999995,-0.069,30.8,-29.9,-11.7,227.7,-80.4,-59.5,0.4549909885519795,0.28401389619290074,10.693136339562516,1.388301192104941,2.139566016649171,1.7503639923170264,0.35643366900448675,0.10567428447829658,0.5333992875885756,1.238141239277652,2.076623158977093,1.520406712034645,0.46866303844019963,0.5163359840259053,0.2389341340202358,1.0652717963036478,1.2664738449727257,4.572247149925297,13.921247645236399,3.115600102708946,13.087801343235617,1.4521898575779486,1.2720491585246814,2.2320422858657554,1.9273802000000004,4.5777427396000006,3.0637741055999994,0.12704496040000002,0.011167054399999952,0.2845148,1.5329937284,4.3123637444,2.3116365699999997,0.21964504360000003,0.2666028484,0.05708952040000001,1.1348040000000004,1.6039559999999997,20.905444,193.80113599999996,9.706963999999996,171.290544,2.1088553824522625,1.6181090617033498,4.982012765892827,72.13828266463484,492.0947775063166,45.0634939654841,69.73190916064088,482.1012607982184,48.434640574893535,6.2083330227466,17.0144686875944,6.687559928769699,3.2378791336219908,4.906949795169704,1.898071363996685,1539.5513723189815,1483.500097811067,638.7690340613223,11345.507193561732,4001.262213456147,2927.1349588376365,9.41608127947964,6.5949552047069675,500.8145483951367,1.2390835292766214,1.3994663071075293,1.3871637996496764,0.04474853766167499,0.006932470804107387,0.20771500932709253,0.9492576269991968,1.2717008595262844,0.9285247025673282,0.14683156549360904,0.11899258707936528,0.010328915903529844,0.4524350914059541,0.7664891683557131,1.3049012313168131,86.02003171575885,4.1662926900060855,106.00519874185804,0.9778358532151002,0.8133812994511023,1.6309010168029614,0.0
0.9829000000000001,9.85036,0.65408,0.9395,9.7163,0.7888600000000001,0.07391999999999999,0.16898000000000002,-0.14333999999999997,-0.02380000000000001,-0.024260000000000007,-0.011619999999999997,31.985999999999994,-29.489999999999995,-15.192,238.234,-82.63799999999999,-51.903999999999996,0.12533500171537318,0.01950747152567667,9.947673378375498,0.8225,9.9385,0.3315,0.921,9.738,0.69,0.0555,0.1855,-0.07150000000000001,-0.061,-0.0035000000000000005,-0.0025,31.95,-29.65,-15.149999999999999,238.55,-83.05,-50.55,0.24737178960227227,0.18436820383375382,9.969113398970219,1.1229297618284058,2.019400086758441,1.5373281216448231,0.3141567284016053,0.06692600391477135,0.393564988788383,0.9522852690239412,2.0155304561330745,1.331891911680524,0.3106089502895884,0.38706112230499196,0.2016216149126874,1.5222365125038881,1.1747765745025731,2.929357608759982,13.112674936869288,2.539440095769144,13.612949129413508,1.3135187874273981,1.0576933852027632,2.0759308637410485,1.26097125,4.0779767104,2.3633777536,0.09869445,0.00447908999999999,0.15489340040000002,0.9068472336000001,4.062363019599999,1.7739360644000002,0.09647792,0.14981631239999996,0.04065127560000001,2.317204,1.3800999999999999,8.581135999999999,171.942244,6.4487559999999995,185.31238399999998,1.7253316049247425,1.118715297101681,4.309488951032655,50.15977986412409,492.54118523497414,33.961353899428495,47.776360968073305,485.8181740974328,40.864601195608756,5.400539249792305,9.113668441928786,7.357572446551223,3.0693820228339073,4.301719577819195,1.2761466629270342,1599.9747308863164,1474.7898865674208,764.3214480799197,11916.544985832254,4132.487364110648,2622.992653811596,7.097537711932837,6.632954636273201,497.3968553342666,1.1370628922335975,2.5882744029780076,1.0378315062609467,0.0344343509658159,0.003454053908106237,0.1003397939053253,0.8173094389590481,2.6176173002878933,0.8363343165693351,0.04813613024198017,0.09714362044696141,0.030049200434700985,0.3638918504344175,0.5789019515405944,4.049431857486094,56.367047667163135,3.861725692814413,46.957711770278266,0.7709562464807094,0.7760788244901906,2.7918902653175297,0.0
0.68332,9.83832,0.711,0.6755199999999999,9.749360000000001,0.7615999999999999,-0.009059999999999988,0.07313999999999996,-0.04988000000000001,0.006920000000000001,0.012099999999999994,0.0022200000000000015,33.593999999999994,-30.012000000000004,-14.208,245.92399999999998,-83.978,-42.72599999999999,0.030135857592242406,0.01647004257830893,9.8929767971871,0.6775,9.5445,0.7144999999999999,0.624,9.755,0.772,0.0315,-0.16149999999999998,-0.0805,-0.027000000000000003,0.0,0.0065,33.9,-30.1,-14.25,246.65,-84.0,-42.2,0.19010830712900595,0.0366662642232608,9.555200321920033,0.6471567797682414,1.590591266667839,1.1998091848289876,0.1552424220372769,0.026424049651784843,0.24484550230706714,0.5872758946185345,1.6045437732888437,1.1105123617501969,0.21550775763299101,0.24375087692149952,0.12750047686185334,1.0412319626288853,0.8474998525073617,1.8905914418509355,9.192661420937899,1.332710020972304,9.639664102031771,1.0479189949776242,0.7453596291680512,1.6209434478950482,0.41881189760000004,2.5299805776000004,1.4395420799999996,0.0241002096,0.0006982303999999907,0.05994932000000002,0.34489297640000005,2.5745607204000005,1.2332377056,0.0464435936,0.05941449000000001,0.0162563716,1.0841640000000003,0.7182559999999998,3.5743359999999997,84.505024,1.7761159999999987,92.923124,1.0981342200349138,0.5555609767935348,2.6274576612738865,34.37314904495224,491.9300640399684,35.698592634449454,34.076048700945506,487.46829781955876,38.25899106730009,3.303639701311976,6.055859436570913,4.832568206582656,1.2722652364240243,2.010153303603619,1.0410811365951775,1679.98996304961,1500.6804813638892,711.6085166232114,12297.489777879435,4198.987681922877,2144.6066629954216,2.8805110993719754,4.800944582111398,494.66155056355024,0.2639454093582687,2.120772659619133,0.7321569367339689,0.010105152098093107,0.00043708758206331097,0.03861575938879633,0.21004730216728057,2.1871663393824106,0.6022767257537882,0.016866532269569766,0.020561764715042175,0.004371884826763867,0.4445747284041984,0.23928270356649256,1.1288860093593969,29.095030949431106,0.7652789887796172,51.31453961470305,0.4927742926360851,0.24760653123414272,2.268490575894583,0.0
0.6951400000000001,9.79448,1.05214,0.6736999999999999,9.728919999999999,0.9661000000000002,-0.018299999999999997,0.05984,0.10406,-0.018679999999999995,-0.043219999999999995,-0.0017999999999999986,33.75,-28.714000000000002,-16.772,254.51800000000003,-82.978,-36.714,-0.06633025366069742,-0.08397777046025505,9.878618460654257,0.735,9.475000000000001,1.0065,0.6575,9.7355,0.927,-0.035,-0.16149999999999998,-0.069,-0.0495,-0.025,0.0055,34.05,-29.4,-14.7,253.55,-82.95,-36.9,0.10886471333675514,-0.04254978235400114,9.535907062167656,0.5991779037981958,1.1628274203853295,1.0075868599778384,0.15797585258513402,0.034822314684695904,0.32645264587685613,0.53107107810537,1.147275579100331,0.9988603387861589,0.21590131449345096,0.19573168266788082,0.12854991248538444,0.9128526715741154,2.028892308625571,4.418825183235924,14.777492209437971,1.6344161036896323,11.018130694450852,0.8892374952495954,0.6826143862653089,1.1803428896065058,0.35901416039999995,1.3521676096,1.0152312804,0.02495637,0.001212593599999988,0.10657133000000002,0.28203649000000003,1.3162412544,0.9977219764,0.04661337760000001,0.0383108916,0.01652508,0.8332999999999998,4.116403999999999,19.526016,218.37427599999995,2.671315999999999,121.39920400000003,0.7907433229577743,0.4659624003363643,1.393209337044636,35.217558621081764,489.7344513605011,53.74816204261258,34.06675639110642,486.44706241748094,49.265251565783544,1.6047880428166978,3.564750510584796,6.976039016544663,1.6259491633627419,2.461300639212323,1.1014758421220667,1687.6293874580088,1436.9557114402594,852.1093584442373,12734.655294907512,4149.166475531622,1864.1590799487637,4.029192737077249,5.044411327169948,493.9358491299322,0.04517274923508262,0.5703940421412808,0.14668977845837816,0.0016059403947834526,0.00011745014521812036,0.01671105033178942,0.0455364305485778,0.5559436926109472,0.24541413767145975,0.005787971293608859,0.004719315432843612,0.005124549242484882,0.09821930732122326,0.19724164141471057,0.07078702874792361,17.455788044954247,0.4437293331072908,21.002658551192138,0.06318382129193588,0.1601676612368751,0.5883406391178359,0.0
0.62778,9.707620000000002,1.24604,0.61024,9.72508,1.0389,-0.010719999999999997,-0.013900000000000001,0.20280000000000004,-0.009039999999999998,-0.013660000000000004,0.0006199999999999997,32.22,-26.298,-21.009999999999994,266.632,-82.84,-31.360000000000003,-0.10152415191475078,-0.20278283944666342,9.806032027523768,0.728,9.5905,1.063,0.579,9.724,1.0945,-0.079,-0.0695,-0.0985,-0.025,0.006,0.004,32.1,-25.4,-22.0,272.15,-82.6,-29.5,0.21508854894846866,-0.03461991465295289,9.615551339070791,0.670941883921402,1.1185778987625314,1.2949118264963062,0.19787890842634037,0.03718700848414653,0.3194761493445168,0.626808265420934,1.0910718262332686,1.3192951906226296,0.23217889309754233,0.2023407630706181,0.12535994416080443,1.5203946855997623,1.851970842103083,3.25123053627392,13.301359930473271,1.8215378118501957,10.14727549640789,1.0347292635788916,0.9913558333513336,1.1400186158812609,0.4501630116,1.2512165156000001,1.6767966384,0.0391560624,0.0013828735999999859,0.10206501000000001,0.3928886016000001,1.19043773,1.7405398000000003,0.053907038399999996,0.040941784400000014,0.015715115600000003,2.3116000000000003,3.429796000000002,10.570500000000003,176.9261759999999,3.317999999999999,102.96719999999999,1.0706646489065152,0.9827863883197171,1.2996424445558257,32.03010657386028,485.4065167337861,63.21704945571029,31.14242396423586,486.2552022142645,52.775884921323346,1.6855451507579857,5.463593302545396,11.694197670199411,2.2241098248227034,2.416788790621793,1.5166821931864236,1611.6170499036784,1316.2461984279225,1055.5983620287827,13338.03396100427,4142.348886728342,1593.9494678474514,5.8342302287630625,10.830210598902145,490.33200609704164,0.06669040116994797,0.5482135825748933,0.23340834044779904,0.006535467321976742,0.00019123807801304921,0.020903683983748686,0.05875714203451156,0.5235050637203512,0.3566280686894231,0.01467169906269538,0.010130914686192436,0.0018757533988329614,0.3043565619361382,0.3732223075851774,7.632602811830642,61.86425290029766,0.36342776733797455,29.016653455188255,0.1983055700347876,0.119092078774652,0.583149634947266,0.0
0.46812,9.83796,1.1145999999999998,0.5206000000000001,9.746599999999999,0.90396,-0.034680000000000016,0.06575999999999999,0.19200000000000003,-0.0037400000000000076,0.03474,-0.0001799999999999985,32.308,-25.703999999999997,-21.24,268.77400000000006,-83.84200000000001,-30.34,-0.1639851944567603,-0.16652810733879345,9.910660656696363,0.669,9.5905,0.966,0.51,9.7515,0.8909999999999999,0.0235,-0.108,-0.052000000000000005,-0.0105,0.047,-0.029,32.45,-25.5,-21.1,271.65,-83.8,-29.7,0.1018894778838246,0.09161799771482071,9.615551339070791,0.7973812548586781,1.4097691862145376,1.365171051553614,0.16943116596423458,0.027898387050150353,0.23992348446952833,0.737827281685897,1.3800309063205796,1.4153751587476728,0.23519097006475398,0.21868990008685812,0.13606244007807594,1.573510724462976,0.9044246790087058,1.5778466338652815,8.37834852461987,1.5153996172627207,7.899721514078834,1.165025337790278,1.0247795293076378,1.43199509492687,0.6358168656000001,1.9874491583999998,1.8636920000000001,0.02870692,0.0007783199999999968,0.057563278399999994,0.5443890976,1.9044853024000004,2.00328684,0.05531479240000001,0.04782527239999999,0.018512987600000003,2.475936,0.8179840000000005,2.4895999999999994,70.19672399999996,2.2964360000000004,62.40559999999999,1.357284037693351,1.050173083687984,2.0506099518946157,24.16720954418565,491.9108842322546,56.13573797187037,26.24912041382245,487.33046874270775,45.61439862872842,3.9806397506174425,4.352440704417141,10.760835693922711,1.8461734322307906,2.9778701926205655,1.3122004857264349,1615.9582801891504,1285.3552926430493,1062.5864510037752,13440.029796168637,4192.261581449837,1526.6493116208003,9.692691509665023,9.257169973554749,495.54333409944286,0.06565869398852044,0.5083181605277836,0.2597843885813559,0.010414123887642426,0.0004913999393340991,0.04054025250345085,0.041751072998518546,0.4707862770519585,0.3387619775853449,0.011524618838900998,0.004150130755259371,0.0032900288766913805,0.23295684003785694,0.05851822396303196,0.29457631247811866,13.70546423981247,1.3577992077759566,18.7634611638424,0.055179672521773124,0.3002210502753428,0.5109943203998184,0.0
0.30517999999999995,9.903360000000001,1.2846199999999999,0.45524000000000003,9.72234,1.13172,-0.11512000000000003,0.13112000000000001,0.10487999999999997,-0.016180000000000003,0.050140000000000004,-0.003080000000000003,34.518,-26.122000000000003,-18.904000000000003,270.74199999999996,-82.73200000000001,-23.08,-0.23970251709344828,-0.0714700542523651,9.992882857492386,0.6165,9.5985,1.1185,0.49300000000000005,9.725999999999999,1.1275,0.1335,-0.10400000000000001,-0.0545,-0.036,0.0375,-0.024,34.55,-26.4,-19.4,271.15,-82.7,-22.1,0.05107641535762332,0.12410549906202067,9.862476082693519,0.938760005326175,1.5925951872337174,1.4529656278109264,0.22656244702068346,0.04054854374697066,0.32462674196683183,0.8531036429414658,1.557662680300199,1.4728859513214185,0.2503644295821593,0.26823400306448847,0.19851557520758917,1.3680190057159292,0.9579749474803607,2.212054248882699,10.235625823563504,1.7500217141509988,12.39796757537299,1.1699862543203439,1.1970812080626831,1.6206533364923157,0.8812703476,2.5363594303999997,2.1111091155999997,0.0513305424,0.0016441843999999933,0.1053825216,0.7277858255999999,2.4263130256,2.1693930256000002,0.06268234760000001,0.0719494804,0.039408433599999994,1.8714759999999993,0.917716,4.8931840000000015,104.76803600000007,3.0625760000000004,153.7096,1.3688678352985482,1.4330034186968128,2.626517237083675,16.122299995695492,495.1767439285498,64.61176791978288,23.151786928463977,486.1179417706409,57.226751446366684,6.220720710886743,6.936361549653428,6.7562490363534495,1.4175675975520363,2.9897064335238475,0.6941788659436535,1726.2719490055706,1306.1199498977562,947.3477353052159,13538.841380818147,4136.811567122531,1201.1142309965978,12.235782273334594,4.694513790135832,499.6504637666138,0.2753130100932906,1.214723772446478,0.3435827860958244,0.009841513603022899,0.0003016626886551798,0.021681932745069823,0.22952833336593054,1.1935465606418414,0.4059060831815192,0.018325648080937035,0.01097458229059885,0.009183016678142647,0.34248993794301774,0.3078156024779177,0.6852177121312538,19.892573274256204,0.9091643507851738,13.481153755146362,0.4516076742140662,0.0869948771692135,1.2755448685892792,0.0
0.48594000000000004,9.86654,1.2412599999999998,0.52094,9.71488,1.1453,-0.031220000000000008,0.14742,0.08188000000000001,0.031479999999999994,-0.039080000000000004,0.0069800000000000036,33.534000000000006,-26.035999999999998,-19.292,269.194,-82.318,-25.72,-0.06708879199163698,-0.03246997995629146,9.962426216558637,0.457,9.679,1.0835,0.528,9.719000000000001,1.1965,-0.026500000000000003,-0.0625,-0.0475,0.008,-0.018500000000000003,-0.0075,34.6,-26.2,-18.2,270.85,-82.35,-21.1,0.08849021623958073,0.17579360360568055,9.862476082693519,0.8958674547052148,1.5297031634928393,1.3882077050643393,0.26670278663711033,0.03912372170435721,0.3677496023111378,0.8194400597969324,1.5244361067621035,1.3470734299213238,0.25603696920562075,0.31567786365217315,0.19361967771897567,2.998506961806158,0.8721834669380061,3.757224507532122,12.102816366449591,1.5921921994533204,16.708716288213168,0.9612907671961975,1.259209890180131,1.5588411488640446,0.8025784964,2.3399917684,1.9271206323999999,0.07113037639999999,0.0015306655999999916,0.13523977,0.6714820116000001,2.3239054435999997,1.8146068255999999,0.06555492959999999,0.09965251360000002,0.0374885796,8.991043999999997,0.7607039999999999,14.116735999999998,146.4781640000001,2.535076000000002,279.1812,0.9240799390966541,1.5856095475274574,2.429985727391774,26.03368966256426,493.3380591771421,63.066983546797964,27.025454197264015,485.74474789293265,58.18074558067319,4.8181886767558675,7.995608115001694,6.026928846886051,1.8151924984033347,4.7051390975850484,0.7748992374210671,1679.5165902331432,1301.857951824845,972.1649927363703,13463.21604200268,4116.0572823000175,1383.8316414034714,5.233259339185046,4.24617531036828,498.1330682467227,0.33113526282429306,1.2996232713650342,0.6025993197215243,0.005082110015260486,0.00030207886171312783,0.009812964555927284,0.3228205685398538,1.2008274043827383,0.6610453160948773,0.006210464909960853,0.022200723881012917,0.006504341037587846,0.1739927669887543,0.24098189051996616,1.472043680442352,7.446210165781915,0.3671606467717615,2.8309080597699006,0.24397004510302475,0.6946192495775104,1.3586862183598325,0.0
0.6508400000000001,9.93042,0.6070199999999999,0.62674,9.757779999999999,0.56356,0.01765999999999999,0.17606000000000002,0.04578,0.0292,-0.03882000000000002,0.00832,31.244,-26.28,-20.322,245.78400000000002,-84.558,-54.025999999999996,0.04178222429996304,0.04614851628993612,9.977416053905044,0.5315,9.712499999999999,0.6499999999999999,0.648,9.763,0.4805,-0.1285,-0.1195,0.027,0.027500000000000004,0.0135,-0.0055,31.3,-26.25,-18.950000000000003,250.45,-84.7,-50.25,-0.06847967178707873,0.15509095120747796,9.76984777866468,0.7154182933081876,1.4729673735694215,0.9976100338308552,0.17944779853762485,0.034457097962538916,0.46049026743243987,0.6774143077910297,1.4742120798582543,0.9506210872897781,0.25334940299909925,0.29009423917065297,0.1552542997794264,2.456270343427205,0.7362064927722384,3.6858806274756106,24.096384459084312,1.9581715961580084,25.228197002560446,0.7247225619346701,0.8753880256306633,1.4959130390032724,0.5118233344,2.1696328836,0.9952257796,0.0322015124,0.0011872916000000033,0.2120512864,0.4588901444,2.1733012564000003,0.9036804516,0.06418592000000001,0.08415466760000001,0.0241038976,6.033263999999999,0.5419999999999999,13.585716000000001,580.6357439999999,3.834436000000002,636.461924,0.5252227917771518,0.7663041954175509,2.237755820260006,32.91138653274404,496.5666474547158,33.293258028267104,31.65645545009351,487.8899439763514,31.032469855348644,3.6489222294142696,10.774138421240266,2.9664297806371565,2.150817289966386,5.2017640734468875,0.8965126463575246,1564.241717658887,1314.0783252662613,1023.6916192455458,12304.323722827494,4228.2790313540345,2777.625983726481,5.844346968246242,3.330850809803833,498.9173380096658,0.24759042582170604,0.7545525330755796,0.3742688083261768,0.02745284539168855,0.0004991596119362058,0.06568892616088105,0.23299570199014216,0.8225211178850177,0.31484311560514144,0.023884932813058913,0.02321772517740165,0.007030321986474363,3.311830382080137,0.11480114280673917,5.35415114553493,69.17814025026456,1.0653816140167955,147.2064109348575,0.28024377976492443,0.4038104167142954,0.7955268312440866,0.0
0.8751199999999999,9.8749,0.5741399999999999,0.8748599999999999,9.7296,0.4932000000000001,0.01899999999999998,0.14794000000000002,0.016760000000000018,-0.03764,-0.0023799999999999954,0.024300000000000002,29.920000000000005,-25.238000000000003,-19.794,237.49400000000003,-83.86800000000001,-62.748000000000005,-0.04848059747114877,0.014430198748993721,9.949644108108574,0.789,9.846499999999999,0.529,0.685,9.768,0.4615,-0.10300000000000001,0.008000000000000007,-0.18,0.003,0.032,0.026,31.0,-25.5,-18.55,243.89999999999998,-84.9,-59.150000000000006,-0.12588125689266383,0.04718727710852244,9.872427339477944,0.9075921030947768,1.3707803069784743,1.1033485579815654,0.5487224438639265,0.1040024999699526,0.4291842494780068,0.7734231959283352,1.3733627548466574,0.9898173277933662,0.24124864849362368,0.3061138278484002,0.1995747729549003,2.500319979522621,1.8224039069317206,3.25892068022528,18.577969856795445,3.7012127742133383,18.99475969840103,0.9707533898341333,0.8181195412552605,1.3854976273365,0.8237234255999999,1.87903865,1.2173780403999999,0.3010963204,0.010816519999999991,0.18419912,0.59818344,1.8861252564,0.9797383424,0.0582009104,0.0937056756,0.039830090000000005,6.251600000000001,3.3211559999999998,10.620564000000002,345.1409640000001,13.698975999999995,360.8008959999999,0.9423621438744608,0.669319583783718,1.919603675355071,47.019222938243324,493.76463687314003,31.84801177294521,46.52347280684139,486.48864465651513,26.88473891620457,3.137518328685661,7.783465691366336,6.339950571414613,2.8049911227200233,5.318859946288973,2.465644815998287,1498.1206071808238,1262.8915477341068,995.6227207069826,11880.176980689284,4194.763938405781,3159.589062897039,6.407462374282119,4.614326261682512,497.4880638750291,0.2375088406003808,0.9877595361663637,0.2651930185094345,0.006275212758870959,5.3552441274110126e-05,0.02190450391641448,0.18716939450695333,0.899196344384795,0.3764130507266653,0.01528874478708153,0.016936269836437312,0.006669809773371347,0.9186892571006621,0.09421330223625696,3.0325683162353823,166.17090619366866,0.30518024411066225,133.7465881838923,0.1584669953790847,0.2797762025091491,1.0072877871916928,0.0
1.3220599999999998,9.648880000000002,1.43128,1.25566,9.588379999999999,1.34248,0.07812,0.07370000000000006,0.043419999999999986,-0.022319999999999993,-0.03545999999999999,0.018979999999999997,30.118,-23.610000000000003,-21.436000000000003,254.03199999999998,-78.834,-45.052,-0.023565486745479224,-0.06446442390320499,9.882768956683238,1.524,9.703,1.087,1.1684999999999999,9.598500000000001,1.2475,0.061,0.021000000000000005,-0.28500000000000003,0.044000000000000004,-0.032,0.026000000000000002,30.7,-23.9,-21.950000000000003,255.95,-78.15,-43.45,0.16877776972106048,0.003776069187656758,9.801568878153317,0.9500951828106488,1.1948036598537854,1.4733975164903732,0.5106451452819267,0.16304084028242735,0.7526994417428513,0.8554916864587289,1.1916530073809237,1.157063992871613,0.3014951701105674,0.4044605399788711,0.23645274284727594,2.6295771523193614,1.5205591076969023,3.299439952476784,10.780750252185605,4.691976555781155,13.36649901806752,1.0849312542426566,1.0299434616855663,1.2193172737241016,0.9026808564000001,1.4275557856,2.1709002415999996,0.26075846440000006,0.026582315599999982,0.5665564496000001,0.7318660256,1.42003689,1.3387970836000003,0.09089933759999999,0.1635883284,0.0559098996,6.914676000000002,2.3120999999999996,10.886304000000003,116.22457599999998,22.014643999999986,178.66329599999997,1.177075826432544,1.0607835342688476,1.486734614001976,67.4973416752846,482.48653879441247,76.66473330105235,64.54963310270129,479.4447900386663,71.31932561111978,5.979613258629315,5.034135466311295,6.302109650791324,2.6611271282564575,8.743326700015745,2.7485787700168025,1508.0894409443983,1181.2212924675957,1077.0550919092,12703.968562646853,3944.591467560103,2279.9022681073275,6.974838634331285,6.80386584665863,494.1448479544315,0.3326448632794622,0.737665291309163,0.3443794213703061,0.006839341449770052,5.369259717355308e-05,0.007451432370970323,0.3785889380619055,0.7587842865555239,0.3551668431935461,0.00773241641002287,0.022502189999846697,0.0011995637291248506,0.14178507092774645,0.3718749107506327,0.47330858073158616,31.524120098265154,0.17224996993435465,32.429488195420795,0.3775044841497469,0.35674539023005586,0.7812986801163843,0.0
1.3765599999999998,9.557220000000001,1.7423600000000006,1.30436,9.53018,1.78864,0.08077999999999998,0.011720000000000019,-0.00920000000000002,0.036520000000000004,0.004919999999999999,-0.014760000000000004,30.556000000000004,-23.854,-25.404,265.76800000000003,-76.68,-36.168,0.09701143917200537,0.01869511350640208,9.835896911975848,1.4055,9.067,1.4425,1.346,9.5735,1.7405,0.11000000000000001,-0.38,-0.1385,0.059,-0.037500000000000006,0.0055,30.4,-24.1,-24.5,265.85,-77.4,-35.65,0.2157130506346624,0.331533801989509,9.596874682899351,0.8348520146708638,1.5270215622577175,1.3443135312865073,0.4201697637860201,0.13247002528874216,0.5012661073721223,0.7784306080826986,1.4987512674223167,1.223936665028056,0.33476638062983566,0.44155397586252126,0.23594470199603973,3.4166158695410873,1.3520665664086218,4.002247368666759,7.323399210749061,3.1094694081145082,10.225232320099138,0.9312364331563806,1.0629588284138296,1.5347410156257701,0.6969778864000001,2.3317948516,1.8071788703999996,0.17654263039999996,0.01754830759999999,0.25126771040000007,0.6059542116,2.2462553616000007,1.49802096,0.1120685296,0.1949699136,0.0556699024,11.673264,1.8280839999999998,16.017984,53.632175999999966,9.66879999999999,104.55537600000001,0.8672012944378181,1.1298814709029015,2.35542998504402,69.57138130628402,477.9089399487102,88.77584998412875,66.14722062937167,476.51944436937276,89.98092973538579,5.6467006997882105,6.0694487771137435,6.429065840004121,2.535203356015962,6.510580999926499,2.762229190922412,1531.4446719100345,1193.074853265346,1276.1532301230561,13289.50295765655,3834.7056259560213,1820.6174176767854,7.152543201798855,8.388337835887203,491.8211859999333,0.474118865179102,0.4339731657375128,1.028262793254377,0.03203009917790586,0.008818169348752212,0.17109030922711005,0.3918680799716745,0.41953147004487384,0.6565795296689201,0.04345208342076963,0.11320356007762614,0.015039545913054213,1.6326812880072084,0.8883552818730842,3.4777571370730667,16.036373046159284,3.9073678500039897,48.330232171782875,0.398717473014696,0.6231746426592868,0.5987899283971819,0.0
1.05186,9.669500000000001,1.56304,1.08292,9.57728,1.6789200000000002,-0.026419999999999996,0.08279999999999997,-0.04129999999999999,0.02074,0.006580000000000002,-0.004719999999999995,30.178,-23.872000000000003,-26.148000000000003,270.89000000000004,-77.854,-33.01599999999999,0.038763935482189045,0.14525928503254595,9.876225393905536,1.1625,9.1795,1.4554999999999998,0.99,9.585,1.7425000000000002,-0.0955,-0.365,-0.14750000000000002,0.07,-0.045000000000000005,0.008,30.200000000000003,-24.5,-26.2,271.25,-78.1,-31.7,0.09329899892750754,0.34918922698317156,9.485098526462302,0.9630819904867912,1.7205402552686757,1.3653948434061116,0.4654646212119671,0.10554563752235331,0.4764796675620063,0.8573890153250157,1.7079958430862767,1.355687401283939,0.4636993340517107,0.47774587763789234,0.2598373368090121,3.2895160738321367,2.0720077219933324,4.059519183351644,12.6814234216826,2.8473995153472935,12.713431637445494,0.9692797619876763,1.1078106560099057,1.7526105898416968,0.9275269203999998,2.96025877,1.8643030784,0.2166573136,0.011139881599999997,0.22703287360000005,0.7351159236,2.917249800000001,1.8378883300000002,0.21501707239999998,0.22824112359999998,0.0675154416,10.820915999999997,4.293215999999999,16.479695999999997,160.81850000000003,8.107684,161.631344,0.9395032569988864,1.2272444495690977,3.07164387962526,53.635741168415755,483.4867891727423,79.17901921214434,55.4282889032383,478.86811346763113,84.27768597458922,6.491268946082831,5.887785773178223,5.114169558787072,2.784459358837877,7.649170945429421,1.7788181213168763,1512.7026688874926,1194.6400402284119,1313.03141062958,13546.50959755455,3893.060122906677,1672.5213904025436,8.57408224572994,8.202630883158905,493.82444792306154,0.2038961842209144,1.4238104254549504,0.4550822945670515,0.05662092086933901,0.006499306274091872,0.074883268431612,0.16849039086351847,1.339120444140549,0.38477380567411507,0.032226621478188215,0.02382445975962836,0.02558122246920612,1.8948831513620736,0.7558637943530404,1.0242408354736119,17.72545786018911,3.4588170459472796,19.779232361164695,0.18151814058855845,0.3133043957255445,1.3907700348857661,0.0
0.64744,9.82806,1.3908600000000002,0.66322,9.63888,1.5481400000000003,-0.010660000000000003,0.18575999999999998,-0.17381999999999997,-0.005060000000000002,-0.0007799999999999954,0.036379999999999996,32.356,-23.623999999999995,-20.906,273.116,-79.79799999999999,-23.642,0.046245571790998544,0.1731109125343891,9.977812538716414,0.6114999999999999,9.470500000000001,1.367,0.6245,9.675,1.384,0.044,-0.171,-0.2985,0.0955,-0.04,0.034,32.45,-24.0,-20.05,274.9,-80.5,-21.7,0.10447372035229531,0.19215541781605816,9.798467668873425,1.0362219870278762,1.6792088066705702,1.5468392160790339,0.3804495388353099,0.09682864039115706,0.5210275620348697,0.9014105970089323,1.6867148965963397,1.4426519842290446,0.5021614644713391,0.46621558489608644,0.2523169348260239,2.2048274308888662,2.116842932293277,4.561903550054517,14.573583773389442,3.0335121559011435,13.111065402933509,1.0108808987469287,1.2387799555430687,1.7565130718494686,1.0737560064,2.8197422164,2.3927115604,0.14474185159999997,0.009375785600000013,0.2714697204,0.8125410643999998,2.845007142400001,2.0812447475999996,0.25216613639999996,0.21735697159999998,0.06366383560000001,4.8612639999999985,4.481024,20.810964,212.38934400000005,9.202196000000004,171.900036,1.0218801914513984,1.5345757782552871,3.085338171578057,33.04880349750649,491.4348617754836,71.8568821307455,34.42087755779691,481.949869311617,78.35257900556198,4.518843640972211,9.73520289662171,11.62085152215804,2.908451433593698,4.051953511918239,2.726864662470803,1619.20900700225,1182.5335163761786,1056.2095503943406,13661.14198010341,3990.5792511624454,1219.4271212975991,5.657547177416978,10.496299921095192,498.9052298784229,0.24857926989077164,0.7464421771376302,0.9838232577409322,0.016361561091197067,0.004239629626237753,0.14841154766947484,0.20609203231300438,0.6965915678384434,1.033986681496852,0.08312733392977285,0.07458551263867658,0.020998286478354965,0.42476648846309195,2.8625133191033276,3.159453924893633,88.72012839856296,3.442789561699975,66.68640937185033,0.3335910374652374,0.502834150966806,0.8692027530670503,0.0
0.6616600000000001,9.799579999999999,1.4138200000000003,0.64998,9.64674,1.5598799999999997,0.02992,0.17215999999999998,-0.18147999999999997,-0.026760000000000003,-0.038220000000000004,0.015539999999999997,33.524,-24.300000000000004,-18.130000000000003,269.274,-79.902,-22.614,0.061124458745150795,0.13907395959645177,9.94132603614251,0.7815000000000001,9.464500000000001,1.391,0.6415,9.664,1.5394999999999999,0.044,-0.335,-0.366,0.022,-0.033,-0.028,33.7,-24.4,-18.85,269.2,-80.25,-24.0,0.26720398136839485,0.19441482323293197,9.629252450655184,0.8948597568334381,1.8149162525031286,1.4014643583052693,0.32873043607186725,0.06977042639972911,0.37790303729925223,0.7398311385714986,1.781544401467446,1.3469811467129005,0.36023312229721466,0.3952139820401095,0.19993270968003207,1.270206282459664,1.4452681412111734,2.518590875866901,11.836279989929269,2.3221102471674326,10.296659846765843,1.0640040707938248,1.0456253747435027,1.8570859566662592,0.8007739843999999,3.2939210036000004,1.9641023476,0.1080636996,0.004867912400000016,0.14281070560000003,0.5473501136,3.1739004544,1.8143582096000004,0.12976790240000002,0.1561940916,0.039973088399999995,1.6134239999999997,2.0888000000000004,6.343300000000002,140.09752400000002,5.392195999999996,106.02120400000001,1.1321046626658307,1.0933324243074902,3.448768250447035,34.06169164708218,489.9879613863407,71.19638505561362,33.562155728401294,482.3390192132964,78.30068728878429,4.452881154257815,8.98555132258754,10.080094802288192,2.0802998243722817,2.802212275985325,1.9882086170272883,1676.4795472967214,1215.5504486540067,909.8043592065072,13468.01477261508,3995.3852596699576,1158.15664227461,6.010713876011304,7.620141674556463,497.0744370737286,0.15909770493037623,1.3339730328599304,0.573116676359767,0.02127597613789709,0.0015647172482077898,0.05750805289090783,0.12614781823307808,1.450094818532683,0.4951515532020898,0.04955237888839916,0.03233876331791987,0.01790418000810434,0.4985699315218806,0.5868226859417467,0.2594689867727244,24.872417951270677,1.821869743684636,33.90737250630283,0.18387412614340687,0.34175856667022203,1.4629366447792291,0.0
0.80332,9.716660000000001,1.5256200000000002,0.8244600000000001,9.62708,1.6326000000000003,-0.008820000000000017,0.12119999999999999,-0.12882,-0.05866,-0.0599,0.005780000000000003,31.142,-24.007999999999996,-21.288,270.19199999999995,-79.206,-27.162,-0.005088802566753343,0.11985943253852614,9.873885892042889,0.6955,9.6525,1.391,0.815,9.6305,1.6775,-0.079,-0.0365,-0.41700000000000004,0.0165,-0.022000000000000002,-0.0165,31.4,-23.7,-22.0,271.4,-79.1,-27.1,0.08011349700133466,0.3312583930860848,9.788826278335932,0.778747210332082,1.7782158880181,1.3257249170171013,0.20523832098319256,0.06210534276533704,0.31743389863088034,0.6747981828665516,1.7447215594472374,1.2878719764013813,0.3219103359632927,0.3379299483620829,0.18887819249452809,2.368551456059167,1.2743374749256964,3.308633554807785,9.23256930653651,1.8681980623049583,6.546995952343334,1.0829502019024706,0.9565128652899539,1.821168221271887,0.6064472176,3.1620517444000003,1.7575465556,0.04212276839999998,0.003857073600000002,0.10076428000000001,0.45535258759999997,3.0440533199999997,1.6586142275999998,0.10362626439999997,0.11419665000000002,0.0356749716,5.610035999999999,1.6239359999999996,10.947056,85.24033600000004,3.490164000000001,42.863156,1.172781139800602,0.9149168614651976,3.3166536901706083,40.3308944195043,485.8354121001883,76.45228704833819,41.43615645074769,481.3556695792545,81.94462645813863,2.5267892306177413,6.1248889136367906,10.484601873303113,3.1585227885805423,3.547164596890523,0.9841564724897931,1558.3917099658354,1200.785843340784,1068.0964531177976,13511.41049103615,3960.5126902098536,1368.3662101856416,5.503842607710317,8.434182499007688,493.69489017391663,0.17418405202934106,1.2428005848028578,0.5084784603790332,0.022980592845134463,0.0012930332906340924,0.04437340221701845,0.14830630909160128,0.9657179301930406,0.5080886668920224,0.031380091365994026,0.052159684757146337,0.010751966895857192,0.3173047318859184,1.0950900268247568,2.0997139805249767,54.069760341617965,1.1427895849740528,31.893029708904002,0.44370478370091876,0.14970999062205012,1.271161892236831,0.0
0.6989,9.81524,0.97528,0.74062,9.6891,1.10436,-0.03704000000000001,0.11704,-0.13834000000000002,-0.03042,-0.019899999999999987,0.014379999999999999,27.272,-24.581999999999997,-21.028,263.19,-81.672,-38.986000000000004,0.03874360923221052,0.12396631447920012,9.904725428676125,0.624,9.781,0.925,0.78,9.702,1.1865,-0.0895,0.02550000000000001,-0.30200000000000005,0.0125,0.0115,0.002,28.4,-23.95,-22.6,271.7,-81.55,-32.8,0.1344364590239164,0.19174746887151406,9.831469049005857,0.9153282962959246,1.7214070007990556,1.321262533185589,0.27016675517169025,0.07532097981306403,0.6676575697166924,0.7851769471908864,1.712479359992406,1.1847162801278626,0.3769193064834966,0.4077710754823103,0.235656944731107,4.134345897478826,1.607319507751959,4.291947809561528,32.32116489237354,3.1357959117263996,31.32097706011101,0.9635568494858882,1.0633508462496655,1.7736289983374849,0.8378258899999999,2.9632420623999995,1.7457346815999997,0.07299007560000001,0.0056732499999999995,0.4457666304,0.6165028384,2.9325855584000005,1.4035526644,0.14206816360000002,0.16627725,0.05553419560000001,17.092816,2.583476,18.420816,1044.6577,9.833216000000002,981.003604,0.9284418021911705,1.1307150222198799,3.1457598237436297,35.191986289020456,490.77597716684227,51.5113829827508,37.37439058194934,484.45800032940144,57.92795013845061,3.4815204239664017,6.23041639302463,10.177146930946606,4.295113047492718,2.989538780697791,0.9777044471070195,1370.8996830661843,1230.099378654543,1060.9194330000175,13177.617472966747,4084.2627190009684,2036.2087844459877,7.443537997450935,8.881253318103473,495.2430989625539,0.12173396790556068,1.4861759266165282,0.248347011174417,0.014259564711470806,0.0023240148897261384,0.043407868483494774,0.12206261440073961,1.5893128364549116,0.2022583897867855,0.04638752999102974,0.0200822714640252,0.015781322928758522,0.26120034821380694,0.1347931230768097,0.5989522739226952,11.086328090436016,1.843713412969676,4.660395248345898,0.07825982299268655,0.0886817397998006,1.6171633457476597,0.0
0.5925,9.82262,0.8513199999999999,0.73978,9.714500000000001,0.9177600000000001,-0.11826,0.1,-0.05106,0.048240000000000005,0.09280000000000001,0.022119999999999997,27.651999999999997,-25.914,-18.972,257.742,-82.66,-41.85999999999999,-0.08049269161460063,0.11705709687405007,9.891929782253833,0.6485000000000001,9.4345,0.716,0.8294999999999999,9.7075,1.0739999999999998,0.04100000000000001,-0.31,-0.256,0.035500000000000004,0.0635,-0.0005,29.45,-25.75,-19.9,264.9,-82.1,-36.6,0.2545245136226477,0.22806242319757786,9.562111882907612,1.1494744929749419,1.7460786338535845,1.5343207414357662,0.3092160597381708,0.0546451278706528,0.5568588532114759,1.0936142795336936,1.6986219708928765,1.4334705634926723,0.4233294490110509,0.6210728459689733,0.33090999622253786,4.1450809401023765,1.3741921263054888,3.8176977355469095,31.684533072147364,2.794709287206811,30.97016628951159,1.4289165713540688,1.1237160337588759,1.7632048812349248,1.3212916099999998,3.0487905956,2.3541401375999995,0.0956145716,0.0029860899999999955,0.3100917824,1.1959921923999999,2.8853166000000003,2.0548378564,0.17920782239999997,0.38573148,0.10950142560000002,17.181696,1.8884040000000004,14.574816,1003.909636,7.8104000000000005,959.1511999999999,2.041802567890268,1.2627377245267788,3.1088914532106653,29.959032671301266,491.1795988906899,44.824128645350825,37.718895758287104,485.7266709428714,47.81573587641889,9.459033794284299,7.601794243612726,3.953720815313277,2.6421764523207116,7.713114949566034,1.6963224644076196,1389.0146741189233,1295.8630246739117,953.584293199101,12899.253819603315,4133.560653434728,2148.2334073241996,9.34770884953602,8.543102426796363,494.64783886100145,0.17942328355345893,1.1074826196034415,0.2754309297099886,0.010137898617078681,0.0006131317971183018,0.06000718874156483,0.13825488894974233,1.0345036974266393,0.3500465590249121,0.019273104313903222,0.036125555466128514,0.008433018839627632,2.597659038510739,0.5277784205261263,4.8362367751305975,89.54746303672172,1.1023887133498877,98.84532224657646,0.285691859510816,0.15858170157606186,1.152011980516749,0.0
0.86142,9.76454,1.18006,0.8330999999999998,9.69166,1.17198,0.06045999999999999,0.12358000000000001,-0.05061999999999999,0.027340000000000003,-0.03176000000000001,0.00714,27.599999999999994,-25.436,-22.034000000000002,267.788,-81.48,-34.494,-0.04555826858218408,0.004867470543656172,9.883611550421454,0.827,9.564,0.857,0.8395,9.692,1.2185000000000001,0.093,-0.041,-0.47050000000000003,0.034,0.11649999999999999,-0.0165,29.45,-25.1,-21.45,270.05,-81.2,-34.45,0.382438651875324,0.3391541291200927,9.75552303584703,1.4691305468201252,1.6832912310114376,1.5740742982464329,0.30559033034440075,0.045605091820979715,0.27985456866022396,1.4479554027662593,1.6488579573753466,1.5234507526008183,0.38984348705602356,0.8763903824209848,0.3121535525987171,3.782591704109763,2.407302224482834,8.256624249655545,21.08971920154463,2.0051932575190845,11.435145998193464,1.6269819423973422,1.302972555230032,1.7081179735897147,2.1583445636000005,2.8334693684000007,2.4777098964,0.09338545,0.0020798243999999907,0.0783185796,2.0965748484000004,2.7187325636,2.3209021956,0.1519779444,0.7680601023999999,0.09743984040000003,14.308,5.795104000000001,68.17184399999998,444.77625600000016,4.020799999999997,130.762564,2.647070240887029,1.6977374796826787,2.9176670117002335,43.947652262256184,488.242896958615,60.9092563181179,41.98275247622221,484.5835423378887,58.71550236297349,8.131821734615727,7.357257077747771,13.730015954049568,2.2522389306958384,11.586603072891865,1.4286637778313978,1385.3474665633978,1273.6279507430202,1124.955961344154,13397.935008686081,4074.1468248121632,1728.7152057203543,9.95861793908155,9.53868931387504,494.1900373197112,0.5076781537607675,1.4280515751713112,0.7956620671548112,0.021150138480039743,0.001318550115273865,0.06789436731618648,0.4546402042410199,1.2965514859182008,0.5372089362907637,0.020429791942165994,0.03564289788959393,0.034057357540045935,0.15014933706119762,0.25928322951106436,0.5864285989836052,49.72975275645108,2.9787297629033667,49.81943970634775,0.7029181012198813,0.4270658732816857,1.3758797069527797,0.0
0.76018,9.79604,1.2055799999999999,0.6891800000000002,9.698,1.2039000000000002,0.05706000000000001,0.13512,0.005199999999999989,-0.010139999999999998,0.019060000000000018,0.004920000000000001,24.833999999999996,-21.386,-21.518,275.108,-81.6,-29.644000000000002,-0.010103957380144744,-0.016876436896600695,9.909461870377866,0.4895,9.7005,0.9000000000000001,0.646,9.706,1.1915,-0.051500000000000004,-0.0205,-0.3945,-0.0205,0.259,0.0035,24.7,-21.6,-26.5,274.95000000000005,-81.85,-31.25,0.18661427162140737,0.2347841132114435,9.860456807446162,1.353114417778482,1.6665783985159532,1.2127814492314763,0.33952423713190194,0.040197014814535595,0.27636571784503233,1.2495805121719847,1.6631705341305203,1.2790191554468604,0.29535179092059016,0.769750307827155,0.19398524067567616,4.134760452553449,4.312262051406431,10.193580136536918,21.18560681217321,1.62726764854464,13.75655712742109,1.247617394019168,1.170113795619711,1.7173818908126888,1.8309186276,2.7774835583999997,1.4708388436000002,0.11527670759999997,0.0016157999999999943,0.07637801000000001,1.5614514563999997,2.7661362256,1.63589,0.08723268040000001,0.5925155364,0.0376302736,17.096244000000002,18.595604,103.909076,448.8299359999999,2.648000000000002,189.242864,1.5565491618591796,1.3691662946995666,2.949400558891366,40.40004024533883,489.803418769234,62.01382860419263,35.02097796394335,484.9005695601943,60.50814701642952,11.598292956667393,7.24147770445053,11.700872459929498,1.5099975734726392,15.220048815725615,1.5994654086308187,1248.9874350871635,1077.7285249980712,1126.8016914049228,13765.46269942183,4080.1180363997223,1509.8751674619448,9.320175376079902,12.91159788483518,495.4763131393411,1.742284074752823,0.9099131170113078,0.6183789496221843,0.06412400993361947,0.0006551114710925878,0.017747398331614678,1.67348003596378,0.9497066737045703,0.7371352631179421,0.030472748288399756,0.6361770545625165,0.018758180863109063,9.538089857060552,4.23155847723166,80.47682093172065,536.1254224367024,0.9565903308642005,93.70324889708624,1.086817765043124,1.068048463529079,1.049636827805155,0.0
0.41118000000000005,9.83932,1.3038399999999999,0.49652,9.695260000000001,1.3429399999999998,-0.10007999999999999,0.15026000000000003,0.019839999999999983,-0.007440000000000002,0.23468,0.03734,28.195999999999998,-22.421999999999997,-9.096,260.996,-81.548,-21.605999999999998,-0.10129343660059638,0.09243245024290161,9.933506082320955,0.437,9.6475,1.0465,0.508,9.699,1.3359999999999999,-0.08099999999999999,0.036500000000000005,-0.3575,-0.019,0.299,0.028999999999999998,30.45,-22.700000000000003,-4.15,259.1,-81.75,-21.049999999999997,-0.02408170383199154,0.2969132756754741,9.804751867495042,0.8066867716778304,1.6518895052635933,1.0295320560332255,0.15713042226125404,0.039778793345198425,0.3081659559393282,0.751785949323343,1.6494296566995514,1.0810680341218124,0.24360181936923214,0.3125512719538988,0.12948785425668308,4.790739400134388,4.916840042140887,11.719384966797532,20.7908822323633,1.5546369351073575,9.32985337505365,0.9791814765425686,0.7548735007557382,1.7025648205542794,0.6507435476000001,2.7287389375999993,1.0599362544000004,0.0246899696,0.0015823524000000025,0.09496625639999998,0.5651821136,2.7206181924,1.1687080944000001,0.05934184640000001,0.09768829760000002,0.016767104399999996,22.951183999999994,24.175316,137.343984,432.2607839999999,2.416895999999998,87.046164,0.9587963640040847,0.5698340021432236,2.8987269681890258,21.215375184988037,491.969008877483,65.32784310573442,25.02162128043119,484.7632954072801,67.35110069634865,7.0743807199346085,7.57290561386524,2.2863607543865023,0.7352039197492712,12.770013001076013,1.9788465577662215,1419.1992623865592,1133.312036689326,587.6343797356935,13067.71370157558,4077.474937280775,1098.1787797597349,6.7507843219720725,5.492964939272302,496.67790939542647,0.21365742485700512,1.3346956647070094,0.31582538926842896,0.008104662653603677,0.0008581895935102647,0.05605052418706544,0.16533521160722112,1.2514883241631662,0.3761213348315371,0.022893703353658194,0.04025317171464474,0.005019887567664313,5.206640919146856,1.8213434172854612,10.834372431587292,69.73033198494144,1.580463746505441,46.04242787610544,0.24115545744943867,0.19793548948979728,1.4374522919207344,0.0
0.5738199999999999,9.79278,1.7143800000000002,0.5059,9.65568,1.5949200000000001,0.054040000000000005,0.16488000000000003,0.17012,0.0057199999999999985,0.10600000000000001,0.02258,30.578000000000003,-29.143999999999995,5.97,233.85799999999995,-80.12799999999999,-18.534000000000002,0.024021078966439822,-0.09915907286044678,9.958817666484812,0.6705,9.5075,1.5635,0.4895,9.666,1.575,0.10700000000000001,0.08,-0.2855,-0.0415,0.08099999999999999,0.0205,30.45,-30.3,9.149999999999999,232.2,-80.4,-18.0,0.013322411921152189,0.22404666870011672,9.647491468177337,0.7449256523976067,1.4349195139797908,1.1752309711711992,0.09034782786542242,0.06017422704115114,0.3559277926771103,0.7529749254789299,1.4267508772031647,1.4018519841980466,0.26549350575861547,0.2718783551517112,0.10979910564298782,1.462640078761689,2.551482706192617,5.946940389813908,10.075596061772226,1.966625536293068,5.693210342153186,0.9447395722384395,0.9715416893548227,1.4618821492299143,0.5549142276,2.058994011599999,1.3811678356000001,0.00816273,0.0036209376000000053,0.1266845936,0.5669712384,2.0356180656,1.9651889856,0.0704868016,0.07391784000000001,0.0120558436,2.139316,6.510063999999999,35.366099999999996,101.51763599999998,3.8676159999999977,32.412644,0.8925328593532698,0.9438932541544227,2.1370994182370735,29.37360516270653,489.6684034780307,86.82839821183423,25.35254727511505,482.7869913305604,80.39277009692003,7.122041336746466,9.061569923170069,12.365424526656792,0.8223037944482002,6.737592409569591,1.4965240363663255,1529.5884309291089,1459.232705505934,352.2070415908969,11696.560895450973,4006.7675634969514,939.6185537042579,5.694608425199256,8.346099181911605,497.95921751078197,0.19102619201439636,1.0835344077601676,0.20465390436201608,0.0016801533807294326,0.0003313275372191819,0.016603688146426026,0.17567047022904356,1.0914997270382767,0.23341109510690966,0.0076666494246885415,0.019083656192085945,0.005231962883727856,0.320439447136984,1.1065060500764623,0.9667632143934658,7.892694646946515,0.49386948461669034,7.595162698764033,0.2587733492489004,0.13014759612809637,1.138553742906412,0.0
0.61348,9.71988,1.7641,0.528,9.66278,1.54316,0.06442,0.08796,0.26538000000000006,0.02408,0.07746,0.0228,27.011999999999997,-31.508000000000003,15.512,215.24,-80.30199999999999,-19.692,-0.0071336288402994216,-0.20283850498049727,9.899345213919897,0.6535,9.383,1.5085,0.5275000000000001,9.6845,1.4409999999999998,0.07450000000000001,-0.1385,-0.22,-0.0155,0.027000000000000003,0.0175,28.4,-31.4,14.1,217.64999999999998,-80.7,-19.45,0.09512639935574897,0.0916070566951424,9.574145870510849,0.6262156893595049,1.3563722444815804,1.3791142991064955,0.09838231548403402,0.0604073803437957,0.3578870972806927,0.6300903138439758,1.3651004206284607,1.5490747159514289,0.26278529943663137,0.25483431558563696,0.1051730003375391,3.224694714232651,0.6659849848157241,4.564587166436851,12.27320658996662,1.9356125645386784,6.125711060766742,0.9216164416869644,1.1729220346916869,1.354610188513666,0.39214608959999997,1.8397456656,1.9019562500000005,0.00967908,0.0036490515999999945,0.1280831744,0.3970138036,1.8634991584000002,2.3996324756,0.06905611360000001,0.06494052840000002,0.01106136,10.398655999999999,0.4435360000000002,20.835456,150.63160000000005,3.7465959999999994,37.524336000000005,0.8493768655877418,1.3757460994652868,1.8349687628250297,30.932433185054276,485.9997455469171,88.87787169092483,26.45924875178785,483.14210316310056,77.85558179648137,5.5973892886510015,5.143351293698811,15.26899433563576,1.673862520382281,4.557904957364395,1.2284914782008,1354.3547587067121,1575.478164940888,788.4439935342584,10768.85871010151,4015.4615115101547,997.7227616533966,5.262184814517957,11.625115216579113,494.9771496866674,0.18826351189772564,0.7479273710500798,0.5041465500254179,0.0008344904812056858,0.0012955869449062284,0.031326062156318994,0.186124724285493,0.7335555381426098,1.10776418236851,0.02313736962916109,0.022410192647884748,0.0033859291802005335,0.20808478051502244,0.10092115105228053,0.07396270999881267,1.028087309168096,1.0906257310785654,2.060674680228947,0.2648285304006388,0.5250470324024805,0.7460536160679856,0.0
0.4820999999999999,9.729640000000002,1.6302,0.5704600000000001,9.677760000000001,1.44382,-0.1075,0.05813999999999998,0.16558000000000003,0.020019999999999996,0.09604000000000001,0.031039999999999998,20.928,-31.166,22.108,198.446,-80.766,-22.104,-0.17797080780201974,-0.11355534546150865,9.876407481598669,0.5275,9.382,1.1145,0.5555,9.687000000000001,1.3944999999999999,-0.041,-0.2025,-0.47850000000000004,0.0075,0.08099999999999999,0.0335,20.25,-31.35,22.9,197.25,-81.0,-21.65,-0.062324791308462996,0.3798680497767172,9.460559845454629,0.6969687295711336,1.735477349434443,1.6124922077331103,0.14776023957749934,0.04572419928221814,0.28024201612178,0.6553188918381645,1.7650289517172233,1.5833099771049257,0.24481401022000354,0.2726330104737869,0.17344681720919528,4.296186215703411,1.101201162367712,3.2046116769430895,10.876345158186181,1.5453944480293689,6.6295085790728105,1.0304567819327934,1.3649665498452646,1.7721955622564627,0.48576541,3.0118816304,2.6001311200000004,0.0218330884,0.002090702399999998,0.0785355876,0.42944285,3.1153272004000003,2.5068704836,0.0599338996,0.0743287584,0.0300837984,18.457215999999995,1.2126440000000003,10.269536,118.29488399999997,2.3882439999999976,43.95038399999999,1.0618411794312888,1.8631336821964848,3.1406771108814997,24.168608602555516,486.48666113933416,81.84330608481905,28.673232357052918,483.8896510848773,72.59051762946206,6.129812009822106,3.914715681993019,8.802561245333143,2.497695719825198,5.620152407487952,1.710316635021186,1055.075823239355,1558.5008100458842,1109.0549700757801,9926.271446897574,4038.523825836685,1115.2227244143485,9.358158170895093,6.361775251187399,493.8241942578269,0.03601061201632741,0.8230984545338484,0.3680421218504887,0.006414068273602255,0.00023352104883555592,0.011270812341530441,0.027923060224488767,0.8135714603668014,0.36928231889468577,0.006031843119295664,0.023860484460249354,0.002283482532563109,0.5604741638349537,0.1145521816394314,0.5605244221571648,14.159840471490568,0.32024444932869583,12.596966647495556,0.09540965692118553,0.3118208747367506,0.8327123242213625,0.0
0.60312,9.663639999999997,1.8828799999999999,0.7270600000000002,9.61774,1.6992600000000002,-0.12666,0.043800000000000006,0.13812000000000002,0.016079999999999994,0.05808,0.018940000000000002,12.021999999999998,-28.999999999999996,25.390000000000004,181.572,-79.01599999999999,-23.022000000000006,-0.20808392326893219,-0.096011223417181,9.864736149354682,0.7424999999999999,9.5495,1.554,0.685,9.656500000000001,1.6015000000000001,-0.1225,-0.1285,-0.109,0.02,0.024,-0.021,14.0,-29.9,25.1,179.7,-79.85,-23.05,-0.0949185069379598,0.29558965170119555,9.657659622477269,0.8542002725356626,1.8225263977237751,1.5611922449205287,0.2878471406840791,0.091547541747444,0.4032401671460818,0.8032316629715242,1.8299895955988383,1.5173833746288379,0.31384281670925657,0.27543956433308564,0.18994277138127685,5.821075158422196,2.586580754587028,1.789776522362499,12.839595632261945,2.637146943194481,6.9307803312469805,1.0727211550296563,1.2882781693644616,1.8993638385945746,0.7296581056000001,3.3216024704000002,2.4373212256,0.0828559764,0.008380952400000002,0.1626026324,0.6451811044000002,3.34886192,2.3024523056,0.0984973136,0.07586695360000001,0.0360782564,33.884916,6.6903999999999995,3.203300000000001,164.855216,6.954543999999996,48.035716,1.15073067644816,1.6596606416610482,3.607582991360717,30.982784892544746,483.2027519605893,94.57061352882502,37.33377533876317,480.8938353178715,85.5973889970736,7.39194187599698,3.476909462637053,7.464798242866726,3.0953292129557433,4.424677573605436,1.3141350642668828,629.7814023763434,1452.622534588713,1270.7017159417885,9087.57393114942,3951.398052840095,1167.1647548076596,11.35015937866616,5.539873265417332,493.24314600272317,0.28681723455273667,1.5976574267710635,1.0049968667244955,0.0071706835130292785,0.001503024357657507,0.044834072963293545,0.29857418441384376,1.667868876344147,0.9214732330147966,0.017362469984574375,0.034973935351618926,0.00893538457900412,0.7786251914107067,0.2242289378630347,0.4658449441166322,11.345287879911274,1.657388133750078,10.556816763274238,0.5425102972290361,0.5342089729692046,1.7962999692124686,0.0
0.8137800000000002,9.59844,1.8892800000000003,0.97104,9.583679999999998,1.7864999999999998,-0.13121999999999998,0.026900000000000014,0.10647999999999999,0.009539999999999996,-0.03386,-0.00876,9.928,-29.892,25.605999999999995,174.002,-77.898,-28.077999999999996,-0.2009136195545992,0.013603502018196916,9.815534086313974,0.9204999999999999,9.542,1.871,0.9775,9.59,1.7235,-0.12,-0.0715,0.063,0.009000000000000001,-0.037500000000000006,-0.054,10.55,-31.25,25.6,174.45,-77.9,-28.1,-0.05320548522995561,0.0858888026584324,9.865600786123991,0.824398745510933,1.5155833353530912,1.1217237813294323,0.2750071242713541,0.07827424608388124,0.32699163597865927,0.7840553880944892,1.500765328090971,1.1257788635429251,0.3216246389815307,0.2817517353983823,0.1522217540300991,4.3500822980720715,3.161824789579587,1.5701477637470937,8.006259800930769,2.2121925775121842,6.259977316252831,0.9994213240655537,0.8319780519467685,1.5875346990540806,0.6796332916,2.2969928464000002,1.2582642415999998,0.0756289184,0.006126857599999997,0.10692353,0.6147428516,2.25229657,1.2673780496,0.10344240839999998,0.07938404040000001,0.023171462399999995,18.923215999999996,9.997135999999998,2.4653639999999992,64.10019599999998,4.893796000000002,39.187316,0.9988429829969445,0.6921874789211399,2.5202664207007306,41.61288869899183,479.9582063937923,94.77762991608168,49.339528237175784,479.19046011359035,89.80878487048157,9.370150252327951,6.726547792745277,6.878821880019376,2.2051320530836165,4.230733947071326,1.389913135377802,517.3809054190335,1498.5201013071885,1280.779784086759,8702.88732338098,3895.502882066336,1413.2550801920627,12.406059322842609,6.022020613494624,490.8074401078925,0.07554839477242392,1.5464615362744476,0.5718818957881646,0.01347232490026099,0.001559790912876775,0.04050624891112993,0.09207202432433963,1.5029164092227565,0.5437442405065017,0.032833665888391345,0.018070933307480108,0.005759947911154092,2.715210568312859,1.5132547057587362,0.5544827365756146,12.398062058738953,1.5022437695660065,9.0809854224132,0.06564110851020179,0.41979642340456386,1.7544003991695765,0.0
0.78778,9.754280000000001,1.6198,0.93848,9.6397,1.48356,-0.12431999999999997,0.11108000000000001,0.14812,0.017419999999999988,-0.03786,-0.007760000000000002,15.642000000000001,-31.792,24.56,180.24800000000002,-79.556,-32.09799999999999,-0.209661848520024,0.018387079497546935,9.913382003152648,0.8594999999999999,9.436,1.562,0.9155,9.628499999999999,1.5425,-0.0335,-0.0865,0.025,0.02,-0.011000000000000003,-0.0285,16.0,-31.9,24.75,181.95,-79.05000000000001,-31.4,-0.04866746226050478,-0.06618718426185016,9.644673016147078,0.7765617371465067,1.3188292086544033,0.9313202027229948,0.23119656052804935,0.06360919744816786,0.32629784921142213,0.7298588751258698,1.3063195296710526,0.9646227167136383,0.2840526070994597,0.25787043335752935,0.18499195225738876,3.3489156453992686,0.9820061099606253,1.459726001686618,8.669884428295454,2.1776280674164727,5.981955867440013,0.954585789287451,0.7160911292611039,1.3625652900451968,0.6030481316,1.7393104815999998,0.86735732,0.05345184959999999,0.004046130000000004,0.10647028639999999,0.5326939776,1.7064707136,0.9304969856,0.0806858836,0.06649716039999999,0.0342220224,11.215235999999999,0.9643359999999997,2.1308000000000002,75.166896,4.742064000000003,35.783796,0.9112340291095457,0.5127865054064429,1.856584169635951,39.70221736080033,487.74638007081967,81.28377038471972,47.2185705064026,481.9889000458696,74.82528212410098,8.872358050989797,8.073437925075035,8.7243620792033,1.6016172274664742,3.4955014385090837,1.1239368343859906,788.4408855495009,1589.7941278022918,1228.676583611541,9014.17233183705,3978.354616906354,1606.550041874423,11.307376329155362,6.7990700570192075,495.69102694337784,0.24406484119267485,0.7316370243876298,0.21133737128959992,0.012137136610002073,0.0003151463492824647,0.00861958330572237,0.21622953087117763,0.720893588723715,0.20193112893759496,0.015137016452347064,0.017592198239005787,0.008331690009107141,2.5651735468209207,0.08787333389113024,0.502644379064193,30.84317643723085,0.3025473333992361,11.121684384624679,0.3040807094972406,0.12469186282477471,0.7723316630136214,0.0
0.85488,9.85828,1.30582,0.92444,9.68882,1.1371,-0.056839999999999974,0.17188000000000003,0.1655,0.04298,0.04331999999999999,0.013779999999999992,15.209999999999997,-30.018,25.082000000000004,173.658,-81.208,-38.428000000000004,-0.1743710940194842,-0.03276471807491829,9.97747647449744,0.9555,9.68,1.274,0.9045000000000001,9.690000000000001,1.0895000000000001,0.091,0.1565,-0.0235,0.023,0.0585,0.009000000000000001,15.649999999999999,-29.95,24.7,176.05,-80.75,-36.5,-0.004650461092726265,-0.11238448427012188,9.917039314554376,0.8125552938723616,1.4693192442760694,0.934595199859276,0.27891949806350935,0.04066334467305915,0.2626365739953215,0.7508756850504615,1.4567087373939926,0.9547335177943636,0.3055128468657251,0.2415412544473511,0.1928106107038718,3.6403433903960214,1.366409894577758,2.184279286171986,13.881845554536326,1.5643324454859335,10.821590271304862,0.8977008749407335,0.8094624437288725,1.5072065774117378,0.6602461056,2.1588990416,0.8734681876,0.07779608639999999,0.0016535076000000078,0.06897796999999999,0.5638142944,2.1220003456000005,0.9115160900000002,0.09333809959999999,0.05834217760000002,0.037175931599999996,13.252099999999999,1.8670760000000002,4.771076000000001,192.70563599999997,2.4471360000000013,117.10681600000002,0.8058668608693584,0.6552294478075181,2.271671666993205,43.53619232686746,492.9396327192252,65.55381485265826,46.786691690181414,484.4412823183259,56.89704321829664,3.8301024359759914,10.932904115111546,9.667819158739912,2.7004239811577824,3.368665972116164,1.0986166423457426,769.0679050016522,1501.3577891169498,1255.7339105339445,8690.931433797621,4060.467346083175,1939.5882174353048,9.08401091353807,4.832216659529407,498.90116541625474,0.09334489135089313,0.6798515766782168,0.18699736978092646,0.015047650231201375,0.0007225409147461262,0.0346997413213959,0.13471807941937383,0.6544236471999595,0.17607610797126116,0.026869551624625457,0.01607861245977058,0.020038690752062112,0.392387079533851,0.2896772002842556,0.8266822759579331,31.141879214182868,1.2251285904808906,25.41757369087999,0.09549005781620878,0.22989356426826155,0.7393786748581678,0.0
0.8394999999999999,9.761679999999998,1.33314,0.9244600000000002,9.680019999999999,1.17736,-0.07995999999999999,0.08607999999999999,0.18471999999999997,-0.001600000000000002,0.003100000000000002,-0.00902,12.550000000000002,-29.053999999999995,26.288,168.76000000000005,-81.038,-38.332,-0.1690861988418743,-0.06907320035219178,9.89885874091361,1.0070000000000001,9.668,1.075,0.9775,9.6765,1.1400000000000001,0.045,0.0435,0.144,0.014,-0.018000000000000002,0.014499999999999999,12.9,-29.15,26.5,169.85000000000002,-80.65,-36.05,0.01891323597036329,-0.11699037787117292,9.90376782486317,0.9916345949995896,1.6017595255218555,1.1824628029667572,0.30768030226194204,0.05187773703622785,0.35820071245043605,0.8574474201955476,1.5732461452678026,1.1839712334343264,0.33163371360583954,0.2398511413356209,0.23675349965734402,2.1675100922487074,1.1916727738771244,1.901119670089182,12.672679274723242,1.9895617607905518,12.990634164658783,1.067534414495695,0.9279699684514394,1.6425852639397793,0.98333917,2.5656335776,1.3982182804,0.0946671684,0.0026912996000000066,0.12830775039999998,0.7352160784,2.4751034336,1.4017878816,0.10998092,0.057528569999999994,0.056052219599999994,4.6981,1.4200840000000001,3.6142559999999997,160.59679999999997,3.958356000000001,168.756576,1.1396297261326664,0.8611282623477655,2.6980863493121143,43.145643488149894,488.0874960732311,67.67489007027221,46.89431977109414,484.0030542819781,59.86644969293607,6.887355136212748,4.620067868480104,10.876573539922783,1.8803002760028613,3.493461619149326,1.518781740189529,630.3403667003905,1453.0269844305135,1315.621463153724,8444.87125980917,4052.2834171335057,1950.9326010260472,9.76085025027171,8.455955545873168,494.9478700067061,0.28105089069532585,1.1202889374366276,0.4509667577673244,0.05304695471261688,0.0010192277268900563,0.010219687190901206,0.19806591289048908,1.0742474602674603,0.5236613858244523,0.00678776125302998,0.025751077453576455,0.012273450963103755,4.572288513668535,0.14131226886426096,1.9572032166288869,53.82772273210926,1.4661729137174868,34.46661440640232,0.36430934125734193,0.2817170815245458,1.1721169229752868,0.0
0.6812600000000001,9.604819999999998,1.79332,0.7731399999999999,9.621539999999998,1.6474599999999997,-0.10978000000000003,-0.043380000000000044,0.17968,-0.030059999999999986,0.010159999999999995,-0.02016,12.497999999999998,-30.078000000000003,26.195999999999998,178.872,-79.226,-26.622,-0.1708622546945807,-0.10906097456158069,9.811123014852104,0.7589999999999999,9.5675,1.6855000000000002,0.792,9.628,1.7395,-0.0055,0.025,0.15,-0.0565,0.0445,-0.018,13.0,-30.1,26.15,180.05,-79.05,-24.85,0.002328187860170916,0.03884838691338116,9.782610534837922,1.0509665229682628,1.7294507994158146,1.3581778004370417,0.22977336747325613,0.07725728703494586,0.473653595362687,0.9167005681246193,1.6869869340335746,1.2829606297934477,0.29385740827823276,0.2847949690566882,0.2625585923179815,2.892299431248432,1.5942760112351941,1.2569741445232672,11.019619594160226,2.600677604010155,10.937628444960087,1.1346031714806961,0.9746646983167473,1.8265645431543909,1.1045306324000002,2.9910000676000004,1.8446469376000005,0.0527958004,0.005968688400000013,0.2243477284,0.8403399315999998,2.8459249156,1.6459879776,0.08635217639999998,0.08110817440000001,0.06893701440000001,8.365396000000002,2.541716000000001,1.5799839999999992,121.43201599999996,6.763524,119.63171600000001,1.2873243567340538,0.949971274144876,3.336338030308809,34.3221141487965,480.2924620978467,90.6977174373261,38.70683285421326,481.08275908976987,83.59036316685192,6.250657716957911,8.753646056248597,10.880202513174545,1.9290245846558605,4.152824974966027,2.099878089355368,630.8239188651644,1504.5209217941435,1310.3421347972806,8947.079875916737,3962.0797535002266,1346.8814216819576,8.819688905518262,8.399234169778305,490.6238326958023,0.40042300162993477,1.0719931919644152,0.5995145043366994,0.03393922935817114,0.001208949847625047,0.06175620556451707,0.27987309256868087,1.0853138903390405,0.6063870030733773,0.019849719974717198,0.0124459913793998,0.021154764538490738,0.9536125922851794,0.9745102875696696,0.44286695567407064,65.26017238217986,2.1799841399992754,77.21350308892515,0.3802758489429534,0.37847555976810654,1.175109331048909,0.0
0.7643599999999999,9.61488,1.81698,0.77,9.60374,1.7769599999999999,-0.007479999999999998,-0.011300000000000003,0.011319999999999983,0.000180000000000001,-0.02864,0.009780000000000004,11.524000000000001,-30.690000000000005,26.493999999999996,179.76600000000002,-78.524,-23.630000000000006,-0.05759608410843427,-0.034325829138167674,9.826485510241294,0.7985,9.583,1.5935000000000001,0.736,9.620000000000001,1.8025,0.0115,-0.0485,-0.037,-0.0005000000000000004,0.006,0.0165,11.5,-30.7,26.6,180.35000000000002,-78.8,-23.25,0.06441707273556115,0.04279899852362956,9.710857562522248,0.9694936360801962,1.7127805421594444,1.274813358731387,0.23997108159109504,0.067401427284591,0.35300962933041924,0.8994918174169235,1.6988231485354797,1.151053994215736,0.24922878565687392,0.3172555915976896,0.21107972806501338,2.9934301394888108,1.0833743581975719,1.3676856363945622,8.767225558864103,1.9695238003131617,8.027658438174857,1.075260839728651,0.9265375850269733,1.8031343032746165,0.9399179104000001,2.9336171856000006,1.6251490996000002,0.05758611999999999,0.004542952400000008,0.1246157984,0.8090855296000001,2.8860000900000005,1.3249252975999999,0.06211498760000001,0.10065111040000002,0.044554651599999995,8.960624000000001,1.1737000000000009,1.8705639999999988,76.86424399999999,3.8790239999999985,64.4433,1.1561858734539634,0.8584718964676157,3.251293315645637,38.41813104962602,480.8070360325509,91.6405841970761,38.732302872696444,480.19030203702164,89.40272623802656,3.810373845424672,6.6899718460219955,5.4143948984056935,1.3033094602610305,5.414890726204302,0.8497156248039637,583.6312848718995,1534.6827639622488,1325.3547218479066,8990.892264091744,3926.55762561415,1195.4605346021965,5.806842063739256,4.924444374201585,491.3792896473177,0.16816881283915364,1.2350780115242557,0.5139175984787453,0.017289088002386467,0.0011804257286696773,0.025792035779982223,0.1348979042833937,1.1621177600367876,0.43128403889550593,0.007395853733860135,0.019880196039127714,0.025006623877988507,2.9843537649017824,0.44418460273328936,0.42001822264858496,19.656335940544245,0.8850507144628528,11.937507464220129,0.1661671060175344,0.2944279942014111,1.4319845250295598,0.0
0.833,9.617259999999998,1.85506,0.7608799999999999,9.56782,1.8877000000000002,0.0332,0.15646,-0.09312,-0.036939999999999994,0.027160000000000004,0.04003999999999999,15.254000000000001,-28.676,24.811999999999998,186.708,-77.832,-23.114000000000004,0.06209551265853169,0.0027140561006690754,9.843676688115615,0.6910000000000001,9.461,1.7455,0.7805,9.620000000000001,1.7255,0.0465,-0.0595,-0.196,0.0335,-0.035,0.0455,12.75,-29.85,24.35,184.2,-78.8,-24.85,0.034461180473895306,0.0012560786618284188,9.675523625329859,0.9960221282682429,1.3248227777329316,1.1348795955518807,0.3106659067229618,0.149255980114701,0.6047294353675865,0.9599426857891048,1.321172664113211,0.98314535324132,0.5578166512394552,0.5591907495658346,0.3540966512126315,5.795522754678822,2.672493966316856,2.7672831441686627,15.407645374942922,3.3665079830590026,10.412127736442729,1.0826773593548311,0.9143438986065618,1.3236104758114324,0.99206008,1.7551553924000003,1.2879516964000002,0.0965133056,0.022277347600000025,0.36569769,0.9214899599999999,1.7454972084,0.9665747855999999,0.3111594164,0.3126942943999999,0.12538443840000002,33.588084,7.1422240000000015,7.657856000000001,237.39553600000002,11.333375999999994,108.41240399999998,1.1721902644595503,0.8360247649190466,1.7519446916777666,42.1199628188046,480.9830529497496,94.16767509057576,38.75006996918195,478.406656624791,95.93236518350417,3.6624325659952546,8.344219719954904,10.108061664549394,2.533185726172556,8.501400418174816,4.1285975935424135,785.6552531335689,1436.3851404383367,1243.6559416039638,9347.346449715016,3892.6749087461912,1190.5136232756035,6.106665805116495,9.184520594406967,492.2454044983782,0.18854112840908788,1.2019294227715065,0.17838422348210084,0.019246012027911198,0.000701301709145881,0.03272913314495149,0.1718034728581449,1.2569889508322967,0.18232753469441723,0.02230776983109412,0.011256141962750797,0.009596345262263706,0.9928884837719261,0.2847127020523023,0.22586494627221382,31.31091042773127,0.8525447155346246,33.053497872715354,0.1545463101711319,0.09349483739569721,1.2792751147971024,0.0
0.41468000000000005,9.56654,2.30538,0.4517999999999999,9.500119999999999,2.27468,-0.10385999999999994,0.16874,-0.013760000000000012,0.0025200000000000023,-0.006780000000000017,0.012919999999999994,19.416,-28.39,20.576,205.28199999999998,-76.00399999999999,-12.495999999999999,-0.06126627446489316,-0.06572924938909416,9.860935072558535,0.3175,9.261,1.8279999999999998,0.4635,9.5465,2.2190000000000003,-0.262,-0.178,-0.2375,0.098,-0.038500000000000006,0.024,20.4,-28.75,21.1,205.55,-76.65,-12.1,-0.17077560439652134,0.2508336029404711,9.42610752143427,1.4627621602981122,1.2495500663838965,1.5832147787334476,0.47621587541786126,0.1426744041515507,0.5409270353753822,1.2516725451970256,1.203131361240326,1.4829673436728132,0.64501144920071,0.6232622655030545,0.397898823320703,4.122492449962765,2.862953020920881,2.772981067371359,14.927835610027334,3.0990295255127847,12.516228825009552,1.266292844620802,1.6998228030281355,1.2140972095102898,2.1396731376,1.5613753684000002,2.5065690355999997,0.22678155999999997,0.020355985600000022,0.2926020576,1.5666841604000001,1.4475250724,2.1991921424,0.4160397696,0.3884558516,0.1583234736,16.994944,8.1965,7.689424,222.84027600000013,9.603983999999995,156.655984,1.6034975683378425,2.8893975616944276,1.4740320341406723,25.16185552937361,478.4868205998435,116.12356708944368,24.60002491417872,475.0215242019246,114.87031477087122,5.8466942505154655,10.347024392607548,6.396470909419516,2.4362451775150578,6.331326448948089,3.0922346773164433,973.9274214688663,1422.3113999989264,1031.7053644113805,10267.61318058135,3801.1536733508037,701.4313365540096,5.496003572500025,8.729814443038213,493.15309855815417,0.1897207040722863,0.4997436477336622,0.2619187421922001,0.04248868985036865,0.000863938195445751,0.028351322829830043,0.14620481947131664,0.467500658394888,0.23921655885448542,0.009207319697457264,0.028655374004891085,0.023791060509168443,1.596014072306149,2.751058380909293,0.0942988630514732,46.02989474553298,0.4999785908320179,38.39156568408319,0.18452960001834984,0.14126254643555322,0.5721978873572805,0.0
0.37252,9.57154,2.05946,0.40797999999999995,9.554799999999998,2.0789,-0.08574,0.042519999999999995,-0.08394,0.026779999999999998,-0.06572000000000001,-0.020840000000000004,20.886,-30.62,19.496000000000002,208.834,-77.19,-12.224000000000004,-0.04923806783260352,-0.04242047875846229,9.819366831722755,0.1855,9.3115,1.6389999999999998,0.404,9.574,2.013,-0.319,-0.20400000000000001,-0.449,0.064,-0.07400000000000001,-0.0095,21.45,-31.200000000000003,19.85,207.25,-77.4,-11.9,-0.03741057313675346,0.5528651034618136,9.543965502503706,1.583218737130154,1.2881244848227986,1.8787985119219146,0.4574550683947004,0.09483164028951509,0.4106123841288765,1.363158579329639,1.2509795560279955,1.7144145170873935,0.4597516412151239,0.4286592138284211,0.288480180255074,2.714333067256117,1.8451016232175397,2.114612021151871,11.185912747737666,2.411907958442859,11.775339655398481,1.242786149166706,2.02333180705575,1.2758043916356905,2.5065815696,1.6592646884000006,3.529883848400001,0.2092651396,0.008993039999999982,0.16860253000000003,1.8582013123999999,1.5649498496000005,2.939217136400001,0.2113715716,0.18374872160000003,0.0832208144,7.367604,3.4043999999999994,4.471584000000001,125.12464400000003,5.817300000000001,138.65862400000003,1.54451741256061,4.093871601443487,1.6276768457169144,23.949893459849214,478.5918487135239,103.65567434544262,23.393193960676026,477.7468753551078,104.64170666392931,9.28485651628497,4.454428031065507,7.606049876156325,2.7493213174131217,6.5661497113586105,2.3358184244046787,1046.1356293071035,1531.8680678945245,976.4676794092727,10444.535899683888,3860.036783124497,691.7259712326171,7.920571027580034,9.575885731578246,490.9747288968584,0.6391991905567841,0.5880228140256849,1.298471131429066,0.12483281506339257,0.0033348904252171116,0.04231937166447603,0.4023876537653333,0.5224767158352358,1.3749736111005786,0.04010319438986698,0.11018210410687128,0.04104868458329475,4.397031383358236,2.4198607580848797,2.5493535198817496,110.57732459528476,1.4305197190930428,59.862105077750975,0.3958939805015071,1.4575513512875595,0.5616092241479741,0.0
0.6682999999999999,9.451540000000001,2.06514,0.5824999999999999,9.552,2.0831,0.08029999999999995,-0.08933999999999999,-0.015319999999999999,-0.013099999999999999,0.035300000000000005,-0.015440000000000004,22.302,-31.615999999999996,20.105999999999998,206.59199999999998,-77.12599999999999,-15.946000000000002,0.08330096863993482,-0.0876413881518918,9.733268631510786,0.2525,9.192,1.6019999999999999,0.5525,9.558,2.021,-0.319,-0.238,-0.4845,-0.021,0.08449999999999999,-0.037,22.25,-31.6,20.0,206.15,-77.1,-15.350000000000001,-0.03741057313675346,0.6417881699045905,9.63789086463655,1.637834805467267,1.1577667677041001,2.055220873872198,0.3101245072547476,0.08609645753455826,0.38350943925801884,1.5859832943634684,1.1355751953965885,1.9575455288702737,0.34669463508972853,0.383648654370115,0.2539589069121223,1.6297840347727055,0.8998577665386902,1.502851955450037,7.4200226414748895,2.159612002189283,8.273698326625162,1.1354795425424076,2.2268682108624063,1.1360026067191702,2.6825028499999997,1.3404238884,4.223932840400001,0.09617721,0.007412599999999995,0.14707949000000003,2.51534301,1.2895310244,3.8319844975999997,0.12019717000000002,0.14718629,0.0644951264,2.6561959999999996,0.8097439999999998,2.2585640000000002,55.056735999999994,4.663924000000003,68.45408400000001,1.2893137915323152,4.958942028549535,1.2905019224727496,34.32688139904429,472.6172339762221,103.79052282173802,29.624971422034054,477.6036176118553,104.5752072009451,10.165396656587465,7.550405083321009,6.552775326330623,1.4230308015179338,4.212292393288777,1.5572481214365548,1115.4211449415473,1580.855442877993,1005.6371812988675,10330.32848019545,3856.592026542955,818.1426500869563,9.59306621089611,8.323210751388656,486.69091445467683,0.2923524368158083,0.5651909018432744,0.6561612697594036,0.04061154947827642,0.00129403634580611,0.014105389347136737,0.1889299065804561,0.4919412884628207,0.5392666860919277,0.02121776851729456,0.02500288139778752,0.020729936541044755,0.8414802992768886,0.2012793535299039,0.49385536704071387,28.550595901025396,0.8728017526328145,22.02429347568116,0.07863756750463934,0.743762391904834,0.5859782452615172,0.0
0.17048,9.5196,2.39528,0.25282,9.45584,2.5082999999999998,0.005599999999999961,0.010759999999999987,0.026840000000000027,-0.0028999999999999994,-0.01389999999999999,-0.005159999999999997,23.399999999999995,-31.407999999999998,18.942,215.72199999999998,-74.832,-6.758000000000001,-0.06223166153960716,0.08369132035739986,9.861907709955105,-0.0585,9.084,1.767,0.376,9.457,2.577,-0.4795,-0.4,-0.602,0.026000000000000002,-0.010499999999999999,-0.019000000000000003,23.35,-31.45,19.25,215.8,-74.95,-8.9,-0.3210705364514398,0.8485123929418917,9.771228887743174,1.7268015663648209,1.3722784848564813,1.9653099606932236,0.4475132932103805,0.1234881953872515,0.4339204189710368,1.648000485436822,1.329255168280342,1.8857938525724385,0.4093706999774166,0.4627469827022106,0.2870170977485487,2.329120005495638,1.0314727335223168,2.0274210218896322,10.184091319307775,2.567367523359288,9.885000556398568,1.32369011956996,2.116836469960762,1.2709823485492837,2.981843649599999,1.88314824,3.8624432416000003,0.20026814760000003,0.015249334400000003,0.18828693000000007,2.7159056000000006,1.7669193024000003,3.5562184544,0.16758437,0.21413477,0.08237881439999999,5.4248,1.0639360000000002,4.110436,103.71571599999997,6.591376000000004,97.71323599999998,1.752155532647135,4.48099664055594,1.6153961303238529,16.124963683544728,476.0517115109236,120.19915964465044,17.019546181314254,472.8014721496127,125.90851141901832,5.2376889928342845,8.419107338342076,5.726477319624749,1.1385985886247105,4.311227976829049,1.9781078337043236,1170.7723817333506,1570.510012024966,947.8055244625759,10789.225417455948,3742.188832141283,422.59025725623104,8.01998738490177,10.101493111404,493.13212607014253,0.40485539329977627,0.5419691256236817,0.8590720647081503,0.02406529943396452,0.001155228340956793,0.024504699985723234,0.38742386390438066,0.49754272483162887,0.841983198469704,0.019219272461328117,0.04789011376079766,0.011961936639054952,0.4895246432374938,0.06194010820285813,1.0306418512490412,17.567356308001955,0.6936318982878911,16.755249069150537,0.1198971932508437,1.0467089231004667,0.5523297928774482,0.0
0.3742599999999999,9.5403,2.36544,0.5706,9.39794,2.5810199999999996,-0.10019999999999998,0.08434000000000004,-0.1121,-0.014599999999999997,0.017800000000000003,0.010319999999999989,24.900000000000006,-31.623999999999995,16.164,215.88800000000003,-73.722,-12.276,-0.12780040678679036,0.24066528870882536,9.882414540853128,0.1915,9.2635,1.9405000000000001,0.4195000000000001,9.399999999999999,2.6485000000000003,-0.309,-0.138,-0.589,0.0495,0.025500000000000002,0.0575,25.4,-31.55,16.55,218.25,-73.30000000000001,-12.45,-0.1259647952935679,0.7236308463893789,9.722746396913848,1.6480855658611901,1.5054038959694505,1.4806048650467145,0.8019386759597021,0.15684991679946786,0.442866819258341,1.4421490214260106,1.4224007959784049,1.3748084993918244,0.4679130688493323,0.4480125444672281,0.2995610415257632,2.0668817092422103,1.693228868168742,2.803552032689959,11.65754073550678,3.0606724751269945,15.173405155073134,1.1517682402688783,1.750668442695329,1.3414688822440577,2.7161860323999996,2.2662408899999997,2.1921907664,0.6431056400000001,0.02460189639999999,0.19613101960000004,2.0797938,2.0232240243999997,1.89009841,0.21894264,0.20071524000000004,0.0897368176,4.272,2.867023999999999,7.859904,135.89825599999998,9.367716000000001,230.23222399999997,1.3265700792920683,3.0648399962492885,1.7995387620291214,31.462700922830884,477.10143293937836,119.01775338467574,38.006349353512,469.9159722507083,129.60317109915644,11.658365480164397,11.368729516560517,9.925437090608916,1.9746181487651797,5.077451894513586,3.263537505741487,1245.8938393816097,1582.0530535470987,811.6532291667226,10799.323867442907,3687.0852059109843,774.8524361624421,11.478321785101848,15.87509968102753,494.15980815236867,0.34985487425942,0.8260640545014897,0.7770533382810365,0.08250556596975885,0.006499437553014652,0.04735513476206906,0.46201344087170937,0.7315950013712357,0.47752164459641594,0.06297637604105588,0.12213808530526829,0.054964851381862585,1.697988618564505,0.3484984704717257,1.4175144222125304,28.8027920548538,1.81021475204988,30.997853383407218,0.3634654296018044,0.6433061246131319,0.678629148081553,0.0
0.91802,9.311219999999999,2.755,1.03478,9.312080000000002,2.8007000000000004,-0.06971999999999999,-0.018699999999999984,-0.011219999999999966,0.006920000000000002,0.04598000000000001,0.015700000000000002,24.814,-32.38,13.798000000000002,211.532,-72.006,-19.882,-0.05776919866097507,0.04580542315066109,9.778641347996551,0.6465,8.7905,2.607,1.0385,9.334,2.785,-0.309,-0.41800000000000004,-0.33699999999999997,0.064,0.006999999999999999,0.07100000000000001,25.35,-32.349999999999994,14.25,211.39999999999998,-72.35,-20.95,-0.09335659202664015,0.5558875777744535,9.659784926824923,1.4509835076940054,1.469488445548314,1.4774679285859305,0.5639988400697292,0.15247712484172826,0.447382576772945,1.2857774308176357,1.3783904127641053,1.390682153333392,0.4050456685362775,0.4271459464866781,0.28213395754499315,2.0880622596081757,1.4641038214552953,2.586927907770141,9.677653434588365,2.9504853837970457,10.145436215363045,0.9226006768518975,1.8587980529892376,1.282840706956278,2.1053531395999996,2.1593962916000002,2.18291148,0.3180946916,0.023249273599999985,0.20015117000000004,1.6532236016,1.8999601300000004,1.9339968516,0.16406199359999996,0.18245365960000004,0.07959957,4.360004,2.143599999999999,6.692196,93.65697599999996,8.705364000000001,102.92987600000001,0.8511920089275794,3.4551302017965804,1.6456802794240832,47.490140589364955,465.5974742626027,138.16573720303407,53.53111829861902,465.6209166864846,140.54018388093755,5.0592519665148545,8.039016954518926,2.4214750769291205,2.842111366444687,3.778508546471622,3.3666060479879802,1241.8999405965358,1619.5230706416194,690.8302914127332,10579.485783198548,3601.1700385854247,1025.3700601074727,3.6030749860478646,6.643638069890777,488.9868978704696,0.36536945716820035,0.5902598421883269,0.5072763146620481,0.08868684934061882,0.005674409006778858,0.05452702700274391,0.36931257398550854,0.5145644615951445,0.4921072568212612,0.03853571785392698,0.05634912860430174,0.01516194703278521,1.0687036688063507,1.1337866402202295,2.7637921586398098,29.711368685779796,2.5205646713439767,34.315596923393095,0.17312095073963368,0.5621248637414812,0.6028266993025797,0.0
0.8543200000000002,9.35582,2.9440799999999996,0.93088,9.307039999999999,2.88404,-0.08416,0.06472000000000001,0.08876,0.010420000000000002,-0.0017800000000000016,0.029559999999999996,23.303999999999995,-32.622,15.09,209.864,-71.808,-17.774,-0.053444617680668174,-0.06361196807618275,9.875351924841755,0.5865,8.8565,2.7880000000000003,0.9964999999999999,9.315999999999999,2.918,-0.3735,-0.42400000000000004,-0.126,0.034999999999999996,-0.07749999999999999,0.0055,23.3,-32.75,14.850000000000001,209.75,-71.85,-20.299999999999997,-0.10935198261037977,0.38673206894841394,9.84214609143709,1.4632074144153315,1.5462811217886612,1.5955846557296796,0.41414044187932186,0.1253108071955488,0.4209777647334833,1.267142176079701,1.4914051232311092,1.47020412950039,0.4462476034669542,0.45327983806915567,0.30389387358089337,2.163974121841571,0.8355333625894297,3.352327549628765,8.826749345030706,2.5248239542589888,7.86289539546343,1.0537909999817983,1.8087436232924465,1.447474284551875,2.1409759376,2.3909853076000003,2.5458903935999997,0.17151230559999997,0.015702798400000002,0.17722227840000002,1.6056492944,2.2242892416,2.1615001823999993,0.1991369236,0.2054626116,0.09235148639999999,4.682784,0.6981159999999994,11.238100000000001,77.91150399999998,6.374735999999996,61.825124,1.1104754716426382,3.271553494801088,2.0951818044389627,44.69967350037173,467.8149108219695,147.65871292101227,46.82812388074234,465.35879823574237,144.4448552750846,8.48012342595155,5.330139975159798,9.805084560751768,3.0511532848343106,2.0453527547016463,2.754486789888301,1166.4322204474383,1631.2029283471036,757.4219320910181,10494.64233418179,3590.7429453728373,895.1669277325251,5.939965117125911,12.100262541648922,493.77662156288426,0.757176274373409,0.6584698423016402,0.680208830383181,0.13004774963376825,0.005040745165994606,0.044970414363037045,0.39021849232688033,0.6407905085207242,0.5630314379121413,0.05350222324907758,0.06850332813021491,0.03411394720143903,1.4573483954729451,0.20115295988012338,3.8603237415963028,35.249442934259946,1.526594782306527,43.276105166843394,0.2423317811399345,0.9471552588362503,0.5723776445983697,0.0
1.41492,9.32808,2.66434,1.36656,9.31646,2.6286799999999992,0.07558000000000001,0.015359999999999992,0.09093999999999997,0.011120000000000017,0.018299999999999997,0.006759999999999991,22.642000000000003,-32.846000000000004,16.435999999999996,200.57199999999997,-72.102,-26.9,0.04238706473881305,-0.1079532435354971,9.845305936701406,1.227,8.957999999999998,2.4684999999999997,1.3255,9.327,2.6799999999999997,-0.1185,-0.383,-0.14550000000000002,0.056,-0.051000000000000004,-0.0305,22.65,-32.95,16.45,199.25,-72.1,-27.75,-0.021609880665361014,0.2980282929349955,9.917097186398458,1.6542263429168331,1.6445798836176975,1.6807740670298312,0.5967501708420367,0.16635458635096323,0.46047711951844034,1.4334439241212054,1.6408569195392997,1.5679451700872709,0.4731764846228097,0.46137075113188525,0.29032613110087074,1.67285265340376,2.1121751821286034,3.300470269522209,8.90478612881859,3.2130664481146356,10.203254382793757,1.0142803564963283,1.9207569403448213,1.648733016970281,2.7364647936,2.7046429935999994,2.8250014643999997,0.3561107664,0.027673848400000086,0.2120391776,2.0547614836,2.6924114303999995,2.4584520564000005,0.22389598560000004,0.21286297,0.0842892624,2.7984360000000006,4.461283999999999,10.893104000000001,79.29521599999997,10.323796,104.1064,1.0287646415743188,3.6893072238827993,2.718320561247925,74.24531991015968,466.43617265769905,133.6497282944798,69.9377582581156,465.8327580727171,131.55259198647724,11.322998302239357,4.2274935573034425,9.53212352946683,1.6253136494736402,2.633772559935967,3.2639919115626457,1132.6858316858866,1643.3247090077434,822.2198182179196,10030.074857976595,3605.557667527318,1368.2173538472011,8.080786939826435,10.966870239995986,492.27021369381373,0.5447023465327232,0.9448563253106903,0.6253529361964273,0.06606420348535805,0.005554129979565982,0.06524655159345383,0.3470075837525444,0.8536060710847995,0.44757863469423265,0.0489923273113355,0.07126536892407531,0.011461916063948058,0.943370271696475,0.33132100411962895,3.75197528986966,21.630526191611214,2.5610845034570833,23.10874328374547,0.2596124013902269,0.8000758363429332,0.8153247604147246,0.0
1.51952,9.28306,2.63848,1.4759,9.27412,2.71598,0.08903999999999997,0.018699999999999998,-0.023460000000000016,-0.0021599999999999866,-0.023460000000000005,-0.013979999999999998,22.232,-32.43600000000001,15.481999999999998,199.672,-71.18400000000001,-28.378,0.09153311866841159,0.041159109165455884,9.79963822658537,1.323,9.122,2.3335,1.4745000000000001,9.278,2.745,-0.0775,-0.0465,-0.2185,0.036,-0.051500000000000004,-0.014000000000000002,22.5,-32.4,16.25,200.75,-70.8,-29.75,0.10651857196852588,0.43459230180223596,9.714159335023982,1.5322920510137745,1.6047285678269705,1.6704909965635852,0.5749230296309238,0.16764505838228588,0.4987594005129126,1.3482856071322573,1.6365074671384792,1.5137510919566664,0.48894099275883995,0.5628049114924283,0.2841343689172431,2.440036065307232,2.2037023392463873,3.6656071802635917,9.950096280941205,3.1029895262472285,10.379273384972572,1.0339506565380467,1.7936856299453772,1.6822573301187533,2.3479189296,2.5751537764,2.7905401696000003,0.33053649,0.02810486560000004,0.24876093959999998,1.8178740783999998,2.6781566900000002,2.2914423684,0.23906329439999996,0.31674936840000006,0.0807323396,5.953776,4.856304,13.436675999999999,99.004416,9.628544,107.729316,1.0690539601554578,3.217308139072544,2.8299897247382764,77.39195048431652,464.189247460946,132.16837530077902,74.9219666695363,463.7129786690283,136.03431852898163,5.5240717058482245,6.562586409626666,5.648437152653264,2.072445641122172,4.693014631131638,1.4865227116020139,1113.559132688302,1622.9413019009264,774.3875823317162,9985.337694947291,3559.5155545057723,1439.1909820761787,5.547439911124401,7.5923138442959,490.0159152332583,0.8885193521274205,1.396315686291804,0.6678538416768698,0.11510318115230268,0.010959332971811236,0.07173468456618963,0.6102912625163415,1.5237856596437993,0.5983842245086735,0.07161873043817152,0.07702479116104219,0.024741927775924814,0.5742599298937809,1.6468129437863746,6.332318944931286,25.49649668895537,2.827545026283098,31.059127953853856,0.1559726336128539,1.055307602834818,1.5861646250979688,0.0
