ACCELEROMETER_X,ACCELEROMETER_Y,ACCELEROMETER_Z,GRAVITY_X,GRAVITY_Y,GRAVITY_Z,LINEAR_ACCELERATION_X,LINEAR_ACCELERATION_Y,LINEAR_ACCELERATION_Z,GYROSCOPE_X,GYROSCOPE_Y,GYROSCOPE_Z,MAGNETIC_FIELD_X,MAGNETIC_FIELD_Y,MAGNETIC_FIELD_Z,ORIENTATION_Z,ORIENTATION_X,ORIENTATION_Y,PRT_X,PRT_Y,PRT_Z,OUT
0.8640000000000001,9.493,2.612,0.605,9.116,3.565,0.257,0.377,-0.8759999999999999,-0.12300000000000001,0.134,-0.006999999999999999,1.0,-34.7,18.3,176.0,-68.4,-9.8,1.024744515634835,9.777616243034668,1.0169603146735549,0.19
1.034,9.577,2.895,0.568,9.14,3.509,0.873,0.193,-0.691,0.10400000000000001,0.079,-0.182,0.7,-35.2,18.6,176.2,-68.5,-9.2,1.2092509446096917,9.904350488432767,1.2691192045045012,0.19
0.38299999999999995,9.869,2.957,0.5379999999999999,9.21,3.325,-0.10400000000000001,0.53,-0.201,0.12300000000000001,-0.003,-0.29600000000000004,2.5,-34.2,19.3,177.6,-69.6,-9.8,0.5538602390836105,10.21069835036105,1.3124698219374058,0.19
0.39,9.369,4.856,0.409,9.222000000000001,3.31,0.17300000000000001,0.14,1.34,0.077,0.021,-0.162,3.3,-35.1,19.3,180.9,-70.4,-7.6,0.6697265409371687,10.021220625083085,3.2615334650703343,0.19
-0.237,8.892000000000001,4.578,0.263,9.23,3.304,-0.40399999999999997,-0.37799999999999995,1.379,0.223,0.09300000000000001,-0.04,3.6,-34.9,19.4,184.4,-70.5,-5.2,0.02724124527598501,9.51214282272241,3.0984373214067737,0.19
0.275,8.706,3.764,0.29,9.19,3.411,0.217,-0.44299999999999995,-0.303,-0.154,0.188,0.127,3.9,-33.7,19.2,184.8,-69.7,-4.5,0.4984634620981203,9.19171745304197,2.302525014065378,0.19
0.6579999999999999,9.146,3.3739999999999997,0.37,9.148,3.514,0.131,0.10400000000000001,0.17300000000000001,-0.03,-0.094,0.067,4.0,-34.0,19.1,184.7,-69.1,-5.0,0.8635636020886268,9.55866746917772,1.8309260276787105,0.19
-0.23199999999999998,9.287,2.425,0.354,9.158,3.491,-0.612,0.163,-0.802,0.053,-0.025,0.065,2.9,-33.9,20.3,181.8,-68.8,-5.7,-0.08390693263476354,9.556109756000511,0.9254966007110386,0.19
0.151,8.962,3.589,0.304,9.189,3.411,-0.10800000000000001,-0.287,0.45799999999999996,0.18600000000000003,0.062,-0.048,1.9,-34.5,21.5,180.3,-69.2,-5.3,0.36427097967780586,9.417673621037183,2.0966392682063715,0.19
0.139,9.28,3.283,0.21899999999999997,9.262,3.214,-0.03,0.003,-0.02,0.18100000000000002,-0.109,-0.076,1.9,-33.6,20.9,181.0,-70.6,-4.0,0.32284437760942497,9.685324849163612,1.733800471224938,0.19
-0.069,9.0,3.594,0.226,9.315,3.057,-0.336,-0.138,0.13,0.142,0.08800000000000001,0.049,2.8,-33.1,19.9,183.1,-71.5,-3.9,0.1227641505303906,9.46282095960586,2.08843133710175,0.19
1.25,8.418,3.409,0.316,9.363999999999999,2.895,0.09300000000000001,-0.237,-0.191,-0.209,0.162,0.368,2.0,-32.5,23.0,179.8,-72.7,-5.2,1.4205790045944346,8.849511850757851,1.9273298355501616,0.19
0.43799999999999994,8.684,4.034,0.434,9.283999999999999,3.128,-0.285,-0.624,1.088,0.005,-0.544,0.064,1.9,-33.1,21.1,178.5,-71.7,-7.5,0.657469932611089,9.216219472384983,2.5506642124247163,0.19
-0.6970000000000001,10.168,4.398,0.415,9.094,3.647,-1.112,1.075,0.7509999999999999,-1.5659999999999998,0.722,0.18100000000000002,1.3,-33.3,20.9,178.4,-69.5,-7.8,-0.41583518121614377,10.7409162845574,2.7706020050149043,0.19
-0.024,8.073,5.612,0.447,8.693999999999999,4.516,-0.46799999999999997,-0.804,1.357,0.159,0.465,0.345,-0.4,-35.7,18.1,178.4,-64.6,-5.8,0.41794946283767187,8.826186065436632,4.311868131657777,0.19
-0.716,9.23,4.908,0.293,8.845,4.226,-0.9179999999999999,0.294,0.256,0.207,0.865,-0.03,-2.5,-35.5,17.9,173.4,-64.1,-5.3,-0.35237890689483603,9.880961012723908,3.469359965614077,0.19
0.09300000000000001,9.536,4.477,0.165,8.874,4.171,-0.273,0.847,-0.111,-0.221,1.145,0.754,-4.0,-34.9,17.7,171.5,-65.0,-2.1,0.4183812597734641,10.109612518425102,2.933967595044777,0.19
1.1059999999999999,8.243,4.305,0.359,8.78,4.353,0.596,-0.35,0.121,0.05,1.379,0.972,-8.4,-35.5,17.4,163.0,-63.7,-4.2,1.4295640152172386,8.788816129807724,2.9010976824001498,0.19
1.506,7.485,4.681,0.625,8.721,4.442,0.905,-1.109,0.33899999999999997,-0.092,2.011,1.003,-14.9,-33.2,16.4,151.0,-63.5,-6.9,1.8640194112578121,8.088392119208576,3.3627914833332566,0.19
-1.171,7.961,5.05,0.379,8.61,4.68,-1.569,-0.62,0.39399999999999996,-0.25,2.247,1.264,-20.3,-32.6,11.3,138.6,-61.8,-5.0,-0.7550630337697741,8.639089707106393,3.8790811860030407,0.19
-0.9309999999999999,8.126,6.417000000000001,0.024,8.361,5.124,-0.955,-0.235,1.2930000000000001,-0.39399999999999996,1.881,1.025,-26.0,-30.5,4.7,128.5,-59.7,-2.1,-0.35416727757781863,8.981088763267495,5.224091898675164,0.19
-0.903,7.997000000000001,6.7589999999999995,-0.324,8.148,5.4479999999999995,-0.579,-0.151,1.311,0.11800000000000001,1.801,0.879,-28.8,-28.0,-0.4,120.0,-56.2,2.7,-0.25720552588040246,8.882053458314084,5.611993467664355,0.19
-0.35700000000000004,8.179,5.44,-0.439,8.226,5.32,0.083,-0.047,0.11900000000000001,0.083,1.2670000000000001,0.9670000000000001,-30.2,-25.0,-5.6,111.1,-56.7,4.9,0.14892479700290528,8.874577660234744,4.223361547073621,0.19
-0.46399999999999997,8.603,5.16,-0.37200000000000005,8.372,5.093,0.03,0.324,-0.063,0.14800000000000002,1.008,0.826,-30.7,-23.4,-10.1,104.0,-57.6,4.6,-0.0041012415525378265,9.265648157281241,3.873015931452964,0.19
-0.086,8.521,4.224,-0.154,8.481,4.921,0.065,-0.024,-0.753,0.276,0.89,0.638,-31.2,-20.5,-12.8,90.8,-59.5,2.2,0.2766607356558445,9.049574849209245,2.913016801514517,0.19
0.63,9.038,3.795,-0.042,8.594,4.724,0.852,0.47100000000000003,-0.7709999999999999,0.157,0.669,0.336,-32.0,-19.4,-15.1,88.2,-60.7,1.1,0.9404009208024825,9.493935890173047,2.3377759562109377,0.19
1.324,8.504,4.743,-0.034,8.734,4.459,0.966,-0.5529999999999999,0.217,0.435,0.56,0.267,-31.9,-18.4,-16.5,81.6,-61.9,0.8,1.6887405401120874,9.107789155139491,3.2807580059653016,0.19
0.441,8.921,6.002000000000001,0.08199999999999999,8.857999999999999,4.207,0.359,0.063,1.796,0.009000000000000001,1.0959999999999999,0.34299999999999997,-31.2,-18.2,-18.9,72.0,-64.6,-1.0,0.8801188918328994,9.731352345529471,4.508757951298438,0.19
0.6920000000000001,8.399,3.56,0.174,8.861,4.198,0.446,-0.33,-0.583,-0.1,0.5870000000000001,0.35,-30.5,-16.9,-21.7,64.9,-64.8,-2.1,0.950747544707446,8.837858091704529,2.1642570219651613,0.19
-0.256,9.498,4.1419999999999995,0.161,8.857999999999999,4.205,-0.384,0.379,-0.09,-0.015,0.818,0.457,-29.6,-16.0,-23.7,63.1,-64.4,-2.6,0.048402359812757756,10.02370175388001,2.6375678874348094,0.19
0.764,8.442,5.105,0.327,8.802,4.311,0.447,-0.37,0.8290000000000001,-0.039,0.708,0.47100000000000003,-29.9,-14.5,-25.4,57.9,-63.9,-4.0,1.1455823167919648,9.112749835617134,3.682053311525168,0.19
0.797,9.199,3.596,0.342,8.837,4.237,0.47200000000000003,0.268,-0.62,0.159,0.7709999999999999,0.244,-27.8,-12.9,-25.7,52.6,-64.2,-4.7,1.0605023511216087,9.631678299355956,2.072229210531761,0.19
0.34,9.649,4.075,0.17,8.911,4.092,0.14400000000000002,0.738,-0.026000000000000002,0.174,0.935,0.2,-26.9,-13.4,-27.9,51.6,-65.0,-3.3,0.6299179423722467,10.158388593329462,2.496952256810559,0.19
-0.096,9.342,3.895,-0.057999999999999996,8.988,3.9219999999999997,-0.11900000000000001,0.33299999999999996,0.54,0.309,0.782,0.14300000000000002,-24.5,-13.3,-30.6,47.8,-65.9,-0.7,0.17063658450181424,9.835397777279532,2.3851705848249996,0.19
-0.006999999999999999,8.236,4.705,-0.095,9.039,3.803,0.095,-0.7929999999999999,1.182,0.035,0.446,0.223,-22.0,-13.1,-32.6,42.7,-67.1,1.6,0.30508006014518463,8.871354930730082,3.3428667113591097,0.19
0.16,8.603,4.295,-0.073,8.991,3.9160000000000004,0.068,-0.47,0.547,0.042,0.038,0.061,-19.7,-13.9,-34.5,41.3,-66.7,1.3,0.4529488394421408,9.165239147397148,2.877057997306763,0.19
0.35,9.292,4.006,0.003,9.043,3.795,0.282,0.391,0.10800000000000001,-0.08199999999999999,-0.318,0.191,-20.2,-13.5,-35.1,37.4,-67.1,1.0,0.614377072730411,9.801130786187226,2.46417859023168,0.19
0.127,9.302,4.121,0.215,8.988999999999999,3.9139999999999997,-0.254,0.174,1.473,-0.42700000000000005,-0.5489999999999999,-0.184,-21.8,-12.7,-35.6,34.7,-67.0,-2.6,0.4079995319940751,9.828785051880228,2.5989410893339677,0.19
0.8,9.704,4.7,0.342,9.057,3.745,0.28600000000000003,0.858,0.615,-0.017,-1.5619999999999998,-0.289,-24.8,-13.5,-31.6,40.2,-67.4,-4.8,1.1052772634715526,10.313067344324578,3.0523138964200305,0.19
1.235,9.479,3.991,0.653,9.125,3.534,0.899,-0.012,0.297,0.7759999999999999,-1.339,-0.804,-30.0,-15.1,-27.1,44.9,-67.4,-9.4,1.4786601899912917,9.978692482537452,2.3545715919218555,0.19
0.747,10.232999999999999,3.3569999999999998,0.8059999999999999,9.222999999999999,3.233,0.28600000000000003,0.201,0.22,-0.35700000000000004,-2.9539999999999997,-0.877,-32.8,-18.3,-22.2,50.9,-70.2,-11.9,0.9351344299662109,10.63115075074516,1.626623592851891,0.19
1.8630000000000002,7.59,4.444,1.173,9.163,3.2910000000000004,0.738,-1.9369999999999998,1.8259999999999998,-0.039,-2.5610000000000004,-0.742,-37.1,-20.2,-10.4,68.0,-69.3,-18.6,2.115045361772267,8.182627366598664,3.065811066754801,0.19
2.4330000000000003,8.205,4.14,1.436,9.091000000000001,3.385,1.001,-0.853,0.647,-0.14300000000000002,-2.266,-0.772,-36.2,-23.2,-1.8,77.0,-68.5,-21.4,2.6732017312743346,8.732227044893994,2.6425967040647365,0.19
1.8869999999999998,8.586,4.271,1.525,9.072000000000001,3.397,0.36200000000000004,-0.484,0.92,-0.107,-1.993,-0.772,-34.0,-26.2,5.3,90.6,-67.6,-23.6,2.136758803640527,9.133216459300836,2.7459469992374173,0.19
1.0270000000000001,8.947000000000001,4.02,1.412,9.102,3.366,-0.397,-0.25,0.613,-0.075,-1.416,-0.741,-30.0,-28.2,11.1,104.5,-67.9,-23.4,1.2612586284532068,9.459640102595158,2.487644227281267,0.19
1.2830000000000001,8.773,3.924,1.215,9.111,3.417,0.068,-0.33899999999999997,0.507,-0.19899999999999998,-1.473,-0.775,-25.0,-29.3,13.3,116.0,-68.4,-20.8,1.514599589199333,9.270457545683968,2.402914683892957,0.19
-0.136,9.488999999999999,3.3569999999999998,0.978,9.185,3.2939999999999996,-1.114,0.304,0.063,-0.064,-1.198,-0.47600000000000003,-20.4,-31.2,16.5,130.7,-69.4,-16.9,0.05711625278583368,9.90354862858388,1.8015349829914533,0.19
-0.244,8.651,3.637,0.8759999999999999,9.272,3.071,-1.053,0.166,-0.40399999999999997,0.015,-0.85,-0.083,-17.3,-31.3,19.1,137.0,-70.8,-15.8,-0.04880305096961679,9.12523478210798,2.2033643442750908,0.19
-0.20800000000000002,10.066,1.86,0.7909999999999999,9.347000000000001,2.859,-1.004,0.659,-0.894,0.11699999999999999,-1.044,-0.369,-15.0,-31.0,20.9,140.2,-71.9,-16.1,-0.11496750250055818,10.235749616120989,0.20840410132199172,0.19
-1.391,9.96,3.843,0.6,9.293,3.074,-1.955,0.636,0.654,-0.361,-0.6920000000000001,-0.37,-11.9,-32.1,21.2,147.0,-71.9,-13.5,-1.1829149000827597,10.461012435232698,2.252345703720696,0.19
-0.218,9.235,1.86,0.35200000000000004,9.283,3.142,-0.52,-0.01,-1.296,0.09300000000000001,-0.441,-0.331,-8.7,-33.2,20.5,157.3,-70.9,-8.7,-0.11572422875838156,9.415569881757499,0.35496577950461283,0.19
0.39299999999999996,9.005,3.594,0.268,9.279,3.162,0.125,-0.27399999999999997,0.43200000000000005,-0.073,-0.52,-0.25,-7.6,-32.5,21.1,163.3,-71.4,-5.0,0.5906442986934114,9.462295184487486,2.068192243009805,0.19
-0.192,9.065,2.8280000000000003,0.223,9.273,3.1839999999999997,-0.491,-0.1,-0.217,0.057,-0.562,-0.183,-5.0,-33.1,19.2,167.3,-71.1,-4.1,-0.034628829934066435,9.403251870214719,1.3365358616366345,0.19
-0.23199999999999998,10.032,3.23,0.141,9.333,3.009,-0.39899999999999997,0.6970000000000001,0.16399999999999998,0.077,-0.439,-0.11800000000000001,-3.4,-32.5,20.2,172.2,-71.9,-2.9,-0.062128260618436404,10.424270216520094,1.5679536128995126,0.19
0.263,9.711,3.0860000000000003,0.23,9.38,2.853,-0.094,0.501,-0.068,0.127,-0.645,0.033,-2.4,-32.4,22.0,173.4,-72.9,-3.9,0.4162756252631189,10.081359637669726,1.44533333863698,0.19
-0.39299999999999996,9.651,4.9030000000000005,0.33299999999999996,9.417,2.718,-0.596,0.043,2.267,0.124,-0.318,0.061,-0.4,-32.3,21.7,173.4,-73.8,-6.4,-0.16005625622702416,10.32530917633254,3.2707845248480742,0.19
0.728,8.612,3.304,0.354,9.421,2.699,0.225,-0.8759999999999999,0.557,0.2,-0.521,-0.261,1.0,-32.6,21.7,174.5,-73.9,-7.7,0.8827746047918577,9.030455860797113,1.8123244586247853,0.19
-0.848,9.706,3.115,0.126,9.479,2.51,-0.948,0.239,0.597,0.039,0.057,-0.026000000000000002,1.9,-31.1,23.6,180.9,-75.0,-3.8,-0.7107688218531938,10.09209566095715,1.5077061557117957,0.19
-0.45,8.77,2.3609999999999998,0.11199999999999999,9.466000000000001,2.5580000000000003,-0.531,-0.612,-0.135,0.021,-0.021,0.002,3.2,-31.9,22.4,183.8,-74.9,-2.7,-0.3441784892767352,9.041793824371426,0.9040058656214005,0.19
-0.239,9.448,2.1069999999999998,-0.13,9.468,2.552,-0.11,-0.02,-0.445,0.034,0.637,0.023,2.4,-32.1,21.7,185.9,-74.8,0.3,-0.14494648121167425,9.667297269220692,0.5325673911370536,0.19
0.366,10.025,3.79,-0.161,9.463,2.569,0.85,-0.128,-0.395,-0.518,0.93,0.26,0.5,-31.8,24.6,184.6,-75.1,3.6,0.5355094540203544,10.508372706348062,2.0702689895600317,0.19
-0.618,10.154,1.3119999999999998,-0.192,9.458,2.5839999999999996,0.11699999999999999,0.61,-1.198,0.297,1.693,0.091,-2.6,-32.0,24.6,177.0,-74.3,2.9,-0.5582213550927776,10.235922805612375,-0.34822009744249405,0.19
0.455,9.242,0.261,-0.29600000000000004,9.512,2.369,0.6459999999999999,-0.332,-2.235,-0.299,1.686,0.209,-7.4,-30.7,24.9,174.6,-75.7,7.1,0.4653995876464027,9.154918228647935,-1.2886370515348182,0.19
-0.67,9.151,2.069,-0.49200000000000005,9.501,2.38,-0.17800000000000002,-0.35,-0.312,-0.265,1.7719999999999998,0.44,-12.2,-31.1,22.3,167.1,-75.8,11.3,-0.5835028731531042,9.371290333385273,0.5557912237718392,0.19
-1.3119999999999998,9.838,3.733,-0.5329999999999999,9.469,2.495,-0.779,0.369,1.237,-0.23800000000000002,1.754,0.584,-18.7,-31.1,19.4,157.7,-75.2,12.1,-1.148250468430104,10.326899493140774,2.1164934964036357,0.19
-1.137,9.769,3.522,-0.525,9.417,2.6839999999999997,-0.591,0.27699999999999997,0.847,-0.034,1.383,0.344,-21.8,-30.5,16.1,148.2,-74.3,10.7,-0.9708261517883858,10.221694098260746,1.924858525862408,0.19
-0.79,9.57,2.445,-0.486,9.446,2.591,-0.304,0.124,-0.146,-0.005,1.0590000000000002,0.429,-25.2,-29.9,12.4,138.8,-74.2,11.2,-0.6786634813237804,9.846957077660411,0.874000680681088,0.19
-0.9940000000000001,9.113,2.6460000000000004,-0.363,9.466000000000001,2.5380000000000003,-0.789,-0.205,0.38799999999999996,0.015,0.888,0.48100000000000004,-26.3,-28.0,10.1,131.2,-74.8,8.9,-0.8758548100904967,9.430891132280298,1.1520815087128933,0.19
-1.6159999999999999,9.544,2.5860000000000003,-0.39799999999999996,9.478,2.487,-1.263,0.106,0.049,0.046,1.0979999999999999,0.265,-29.0,-27.0,7.1,122.5,-75.0,8.1,-1.502264282092836,9.850693664799213,1.045860578199969,0.19
-1.839,9.414,2.411,-0.5820000000000001,9.487,2.414,-1.2570000000000001,-0.073,-0.003,0.085,1.338,0.312,-30.2,-26.3,4.1,120.0,-75.2,12.0,-1.7358171680778522,9.69504956415673,0.900661261268964,0.19
-1.255,10.221,0.9790000000000001,-0.833,9.515,2.222,-0.42200000000000004,0.706,-1.242,-0.129,1.56,0.23600000000000002,-30.0,-25.5,-0.9,116.9,-75.9,18.4,-1.2160990578005264,10.25013929209752,-0.6767972918202625,0.19
-0.40700000000000003,8.667,3.17,-0.897,9.49,2.303,0.49,-0.823,0.867,0.02,1.659,0.24100000000000002,-31.1,-25.1,-4.9,111.9,-75.4,20.6,-0.27928757893023143,9.073316559857215,1.7112460526984798,0.19
1.125,9.175,2.722,-0.677,9.517000000000001,2.266,1.7830000000000001,-0.433,0.696,-0.515,1.5030000000000001,0.634,-30.8,-23.6,-10.7,103.7,-76.0,22.0,1.231745087538275,9.491070425589255,1.1215704239281394,0.19
0.601,9.702,4.592,-0.309,9.421,2.705,0.91,0.281,1.8869999999999998,-0.14300000000000002,1.003,0.684,-30.2,-21.3,-15.9,84.2,-74.7,10.7,0.8170435377755356,10.317314861947429,2.9089384484409293,0.19
0.165,9.426,2.82,-0.026000000000000002,9.386000000000001,2.842,0.263,-0.003,0.045,0.245,0.9940000000000001,0.13699999999999998,-30.1,-19.5,-18.1,69.3,-73.0,0.5,0.30461813331942583,9.757804724155717,1.2335135824535306,0.19
0.177,9.292,3.352,0.031,9.375,2.8760000000000003,0.159,-0.16899999999999998,0.47100000000000003,-0.102,0.983,0.317,-28.9,-18.4,-21.4,63.6,-73.4,0.5,0.3449623695343107,9.71178119323196,1.7806751580204843,0.19
1.092,9.189,2.947,0.083,9.376,2.872,1.112,-0.319,-0.051,-0.005,0.976,0.40700000000000003,-26.8,-17.3,-25.2,53.1,-73.0,-0.8,1.2382875140120595,9.53682653322001,1.352988435986293,0.19
0.8640000000000001,9.213,2.459,0.068,9.395,2.81,0.782,-0.225,-0.298,0.024,1.028,0.175,-24.9,-16.9,-27.0,48.5,-73.2,-1.4,0.9835114200617047,9.483430518942033,0.8773806921781881,0.19
-0.10099999999999999,9.747,2.248,-0.063,9.415,2.7430000000000003,-0.038,0.332,-0.495,-0.125,1.217,0.138,-22.1,-16.9,-29.6,44.0,-73.7,0.4,0.00669627124874847,9.983808518461522,0.6254891099343824,0.19
-0.165,8.876,2.9739999999999998,-0.13,9.365,2.908,-0.16399999999999998,-0.45299999999999996,0.152,-0.193,1.073,0.187,-18.1,-16.1,-32.0,38.7,-73.2,2.0,-0.01390934269172553,9.242376494425315,1.494510041946961,0.19
-0.168,9.455,1.9269999999999998,-0.157,9.317,3.056,0.006,0.145,-1.1909999999999998,-0.319,0.647,0.33899999999999997,-14.7,-15.4,-34.6,31.8,-72.4,3.7,-0.06502886616972331,9.643248200209634,0.3769793040981795,0.19
-0.862,9.232000000000001,4.348,-0.17300000000000001,9.2,3.392,-0.6890000000000001,0.033,0.956,-0.259,0.551,0.23600000000000002,-13.0,-13.6,-34.9,28.4,-69.7,2.9,-0.6032316667917337,9.815341996843769,2.8588712879692,0.19
-0.505,9.527000000000001,2.806,-0.182,9.179,3.446,-0.324,0.34700000000000003,-0.64,-0.114,0.40700000000000003,0.36,-11.5,-12.1,-36.8,25.6,-69.5,3.5,-0.33542436623396976,9.856649082563203,1.2752840302232802,0.19
-0.019,9.304,3.412,-0.057,9.162,3.495,0.040999999999999995,0.171,-0.318,-0.09699999999999999,0.321,0.204,-10.2,-12.4,-37.3,19.7,-69.2,1.2,0.18903584504295604,9.72775515792588,1.8819048957732478,0.19
-0.7490000000000001,9.726,3.199,-0.049,9.177,3.457,-0.7,0.5489999999999999,-0.259,0.10300000000000001,0.147,0.052000000000000005,-10.9,-11.8,-38.5,19.5,-69.1,0.5,-0.554739107574234,10.11797775166141,1.6457426103168276,0.19
-0.20600000000000002,10.214,2.397,-0.027000000000000003,9.246,3.2680000000000002,-0.239,0.846,-1.025,-0.07400000000000001,0.011000000000000001,0.198,-9.5,-12.0,-38.3,16.1,-69.8,0.7,-0.06902051252915492,10.467690839295699,0.7324791203680383,0.19
0.07400000000000001,8.908999999999999,4.427,-0.011000000000000001,9.267999999999999,3.2060000000000004,0.013999999999999999,-0.402,1.365,0.565,0.165,-0.006,-9.9,-11.9,-38.2,17.3,-70.6,-0.1,0.32146896221953025,9.503898107736386,2.923467883198688,0.19
-0.022000000000000002,10.657,3.0380000000000003,-0.124,9.366,2.904,0.141,1.315,0.11,0.198,0.21600000000000003,-0.034,-10.4,-13.5,-37.6,20.3,-72.2,1.2,0.13194149020623108,11.008882725443907,1.2604243652773748,0.19
-0.225,9.184,3.139,-0.019,9.397,2.803,-0.20600000000000002,-0.213,0.336,0.2,0.193,0.141,-9.2,-14.7,-39.1,18.0,-73.2,1.0,-0.07122715051651327,9.574458729676877,1.6045151064242116,0.19
0.4,8.615,2.373,0.12,9.459,2.585,0.28,-0.8440000000000001,-0.212,0.355,0.40399999999999997,0.195,-8.8,-15.1,-38.1,13.1,-74.4,-2.0,0.506618766847287,8.884487233373541,0.9047530188403363,0.19
-0.5529999999999999,9.572000000000001,2.3680000000000003,0.151,9.546,2.241,-0.7040000000000001,0.026000000000000002,0.127,-0.055999999999999994,0.733,0.445,-7.2,-17.2,-38.8,8.5,-76.7,-2.7,-0.4599814557298155,9.835447846409636,0.7673328618929136,0.19
-0.002,9.988999999999999,2.397,0.193,9.574,2.113,-0.183,0.39799999999999996,0.23600000000000002,0.41700000000000004,1.6269999999999998,0.201,-5.1,-17.9,-37.7,1.9,-77.1,-5.8,0.08637986204427252,10.248282732469262,0.7006950512209364,0.19
0.9359999999999999,9.766,1.999,0.139,9.646,1.76,0.878,0.156,0.141,0.337,1.495,0.131,0.1,-19.0,-38.0,357.0,-78.9,-4.2,0.9969536794081714,9.95790475427413,0.305072558449919,0.19
0.929,9.163,1.125,-0.044000000000000004,9.714,1.3430000000000002,0.973,-0.551,-0.217,0.598,2.102,-0.115,5.6,-20.7,-36.7,349.3,-81.5,-0.4,0.9551121445371549,9.217718849759715,-0.4589716746620476,0.19
-0.747,9.407,1.097,-0.48700000000000004,9.73,1.125,-0.301,-0.361,-0.05,-0.098,1.97,-0.172,14.0,-21.7,-33.8,357.3,-83.1,18.4,-0.7253178386578292,9.459523293534987,-0.49436837681401125,0.19
-0.982,9.484,0.644,-0.735,9.721,1.061,-0.32,-0.182,-0.28800000000000003,-0.254,1.857,0.03,21.0,-21.7,-31.3,358.8,-82.6,33.0,-0.9699067547076244,9.45961680748476,-0.9488133339726796,0.19
-2.121,10.123,1.973,-0.9279999999999999,9.67,1.345,-1.258,0.408,0.628,-0.626,1.6469999999999998,0.242,27.1,-21.4,-27.5,352.2,-81.4,35.8,-2.0741043199009748,10.318850418386758,0.29311484631038454,0.19
-1.446,9.732999999999999,1.9180000000000001,-1.037,9.599,1.7209999999999999,-0.565,0.017,0.59,-0.218,1.3159999999999998,0.079,31.7,-19.9,-23.2,333.5,-78.5,30.8,-1.3877451860751044,9.923654505143459,0.3101186241928289,0.19
-1.5230000000000001,10.221,1.626,-1.138,9.597999999999999,1.6569999999999998,-0.37799999999999995,0.57,0.040999999999999995,-0.07400000000000001,1.338,0.379,34.9,-20.9,-18.5,331.2,-77.9,33.5,-1.475345588820508,10.35626448293618,-0.058200970975592625,0.19
-0.9790000000000001,9.565,1.64,-0.925,9.622,1.652,0.01,-0.071,-0.081,-0.151,1.11,0.397,35.9,-21.0,-14.0,317.0,-78.8,30.5,-0.9313137653498043,9.709164071499162,0.04531780201854585,0.19
-1.226,9.297,1.726,-0.7020000000000001,9.646,1.621,-0.488,-0.289,0.1,-0.044000000000000004,1.048,0.368,34.6,-23.4,-10.2,309.2,-79.3,26.0,-1.1766842401457682,9.46046195614394,0.17729854862843175,0.19
-1.652,9.747,0.8240000000000001,-0.72,9.667,1.482,-0.904,-0.026000000000000002,-0.5720000000000001,-0.078,1.202,0.25,33.8,-23.6,-2.1,293.7,-80.2,25.0,-1.630136369544586,9.754091616194831,-0.7825861994475194,0.19
-1.075,9.596,1.4080000000000001,-0.828,9.664,1.445,-0.235,-0.078,-0.073,-0.065,1.255,0.027999999999999997,33.5,-24.1,-0.5,291.9,-80.3,28.6,-1.03915211976549,9.700661027497159,-0.1965795044878227,0.19
-0.302,9.998,1.82,-0.958,9.66,1.3940000000000001,0.623,0.308,0.428,0.025,1.121,0.069,31.9,-23.7,3.5,291.0,-80.1,33.7,-0.25763457095350095,10.16277752983889,0.1232286770657105,0.19
0.833,10.705,0.946,-0.8959999999999999,9.704,1.093,1.868,1.058,-0.48700000000000004,0.262,1.056,0.313,29.0,-25.1,7.4,288.5,-81.2,39.3,0.850893669282142,10.708578321290597,-0.8877839266176416,0.19
-0.9840000000000001,9.809,2.593,-0.664,9.716000000000001,1.1520000000000001,-0.147,0.005,1.24,-0.087,1.2329999999999999,0.36700000000000005,26.9,-26.0,12.5,274.2,-82.2,33.4,-0.9316692429863704,10.109160437003057,0.9193767892465887,0.19
0.7809999999999999,8.927999999999999,0.745,-0.38799999999999996,9.711,1.311,1.1059999999999999,-0.73,-0.581,-0.03,1.162,0.171,25.7,-26.8,11.5,258.3,-82.1,20.1,0.7978406249702147,8.92269015772778,-0.7894432761984145,0.19
0.292,9.934,1.5319999999999998,-0.326,9.713,1.314,0.494,0.228,0.14400000000000002,-0.281,1.143,0.265,23.8,-26.8,14.5,250.2,-82.2,16.0,0.32705446533456883,10.048868907080283,-0.17295393901206113,0.19
0.235,10.444,2.363,-0.24100000000000002,9.695,1.453,0.456,0.746,0.93,0.109,1.228,0.17600000000000002,20.5,-27.3,19.6,228.6,-81.3,9.5,0.2948428564832001,10.691646288578347,0.5638238465244758,0.19
0.68,9.649,0.883,-0.16,9.7,1.436,0.8759999999999999,-0.156,-0.44,0.228,0.998,0.032,19.0,-27.3,21.2,223.8,-81.4,7.3,0.7019146980159761,9.656910884956847,-0.7724492971781702,0.19
0.34700000000000003,9.453,0.8759999999999999,-0.212,9.729,1.217,0.758,-0.376,-0.611,0.163,1.0590000000000002,-0.207,16.7,-27.7,21.7,221.3,-82.6,8.4,0.36552715006773284,9.463802385974857,-0.7415040807574672,0.19
-0.261,9.754,-0.486,-0.41100000000000003,9.751,0.963,0.47600000000000003,0.035,-1.6380000000000001,-0.22699999999999998,0.8390000000000001,-0.105,13.4,-26.6,25.6,227.1,-83.6,19.4,-0.26913120950822333,9.531527157833471,-2.12659150556744,0.19
-0.122,9.831,1.609,-0.39299999999999996,9.737,1.0959999999999999,0.247,0.149,0.49200000000000005,-0.316,0.72,0.314,12.3,-27.1,26.2,223.2,-83.3,22.5,-0.09120129082644145,9.961847539701957,-0.07484597708416052,0.19
-1.37,9.785,2.866,-0.33399999999999996,9.696,1.4269999999999998,-1.04,0.096,1.264,-0.23,0.909,0.182,9.4,-27.8,26.2,213.2,-82.1,14.1,-1.2982023023531046,10.133513333155305,1.2098178825462893,0.19
-0.14800000000000002,9.251,2.394,-0.39299999999999996,9.65,1.704,0.245,-0.39799999999999996,0.691,0.005,0.547,0.21899999999999997,5.9,-28.7,27.5,202.2,-80.0,13.4,-0.07674647452466674,9.521963989512283,0.812682447872068,0.19
-0.687,9.548,3.326,-0.461,9.619,1.8519999999999999,-0.217,-0.054000000000000006,1.452,-0.113,0.489,0.092,4.0,-28.8,27.8,200.3,-79.2,13.7,-0.5791518595523163,9.97294167326148,1.7039854768458569,0.19
-0.754,9.465,3.347,-0.46399999999999997,9.585,2.02,-0.315,-0.135,1.38,0.201,0.075,0.069,2.6,-29.2,28.0,196.1,-78.0,12.9,-0.6355551813127299,9.89425561667281,1.7484065326591305,0.19
-0.395,9.843,1.808,-0.397,9.589,2.0140000000000002,0.018000000000000002,0.258,-0.221,-0.136,-0.102,0.157,2.5,-28.8,27.9,195.5,-78.0,12.3,-0.33121617230268985,10.008775981005469,0.15568304099409191,0.19
0.294,9.809,1.015,-0.22699999999999998,9.568,2.138,0.49,0.284,-1.185,-0.245,-0.115,0.134,1.7,-28.9,27.1,188.5,-77.3,6.1,0.33166143160241945,9.839317960260738,-0.6410653411922345,0.19
1.0390000000000001,10.642999999999999,0.175,-0.019,9.568999999999999,2.148,0.905,1.115,-1.9180000000000001,-0.28600000000000003,0.073,0.087,2.5,-28.9,26.9,185.4,-77.2,2.2,1.044829099108826,10.517511577503532,-1.6351994895836421,0.19
0.584,9.184,2.476,0.23800000000000002,9.537,2.273,0.267,-0.34700000000000003,0.365,0.013000000000000001,-0.139,0.222,2.4,-30.2,25.0,180.0,-76.7,-4.6,0.6817410078152348,9.463140712542662,0.8953686686949687,0.19
0.5579999999999999,9.69,1.844,0.342,9.573,2.102,0.17300000000000001,0.17,-0.316,0.053,0.057,0.14800000000000002,0.1,-30.8,26.2,175.4,-77.2,-7.9,0.6252598816260049,9.858116767515133,0.18542890407383839,0.19
0.951,9.738,0.9620000000000001,0.439,9.603,1.94,0.322,0.18,-0.7909999999999999,0.065,0.124,0.157,-0.5,-30.2,26.6,168.4,-78.1,-11.9,0.9830214319701459,9.75656288971972,-0.7082643879451612,0.19
0.737,9.41,1.35,0.501,9.624,1.818,0.251,-0.214,-0.518,0.096,0.299,0.076,-0.9,-29.7,27.2,167.6,-78.6,-14.8,0.7794574723562326,9.499237378902627,-0.26590274170673345,0.19
1.396,8.787,1.5490000000000002,0.5429999999999999,9.596,1.946,0.884,-0.833,-0.38,-0.301,0.27899999999999997,-0.054000000000000006,-2.2,-29.8,27.2,163.0,-78.7,-16.1,1.447795201781626,8.914216326853882,0.014910793064129457,0.19
-0.294,10.078,1.999,0.434,9.54,2.231,-0.6829999999999999,0.449,-0.146,-0.284,0.345,-0.168,-3.3,-30.4,25.7,164.5,-76.9,-12.6,-0.2159591296140261,10.271574879345962,0.3108571252606165,0.19
-0.151,10.88,2.119,0.327,9.488,2.457,-0.22899999999999998,1.2329999999999999,-0.48100000000000004,-0.24,0.159,-0.08900000000000001,-3.4,-32.3,25.7,168.3,-75.6,-8.2,-0.060020465183491786,11.081207327413722,0.30100450267661305,0.19
-1.19,11.033,2.8710000000000004,0.152,9.492,2.458,-1.3319999999999999,1.5930000000000002,0.45799999999999996,0.221,0.126,0.013000000000000001,-2.6,-31.8,23.9,170.8,-75.2,-5.0,-1.0657763826399884,11.363380228537148,1.0599719259951574,0.19
0.431,9.261000000000001,1.235,0.174,9.572000000000001,2.126,0.221,-0.22699999999999998,-0.8140000000000001,0.3,-0.055,0.065,-3.7,-32.3,26.2,169.7,-77.1,-4.2,0.47651837032113226,9.334627134368613,-0.33878238598800303,0.19
0.326,9.797,0.426,0.204,9.627,1.8559999999999999,0.098,0.201,-1.516,-0.026000000000000002,-0.40700000000000003,0.049,-3.9,-30.6,26.8,168.6,-78.5,-5.3,0.3396261176905679,9.72847041551902,-1.2290152458588999,0.19
-0.22,10.207,1.453,0.251,9.658999999999999,1.679,-0.48100000000000004,0.608,-0.139,0.261,-0.41200000000000003,0.063,-1.3,-30.7,25.3,171.6,-79.7,-7.8,-0.1773327963934035,10.307070345481131,-0.2744302691518965,0.19
-0.022000000000000002,9.967,1.429,0.34299999999999997,9.665,1.6219999999999999,-0.317,0.28,-0.23399999999999999,0.1,-0.031,-0.14800000000000002,-1.0,-30.7,25.4,167.9,-80.3,-12.2,0.01845733375635916,10.065449721937282,-0.2645661013495635,0.19
1.348,8.737,0.036000000000000004,0.401,9.686,1.48,0.84,-0.875,-1.406,-0.19,-0.426,0.10800000000000001,-0.9,-29.8,28.0,168.5,-80.8,-11.3,1.3484801173218708,8.612647704586703,-1.4688328325119264,0.19
1.528,9.024,0.484,0.595,9.675,1.484,0.9109999999999999,-0.69,-0.9520000000000001,-0.231,-0.193,0.040999999999999995,-0.7,-30.4,27.4,160.7,-80.6,-20.4,1.540022038097012,8.970313590603649,-1.0786205117681602,0.19
0.603,9.965,1.403,0.703,9.642000000000001,1.643,-0.157,0.315,-0.156,-0.115,-0.149,0.153,0.1,-30.7,27.0,160.8,-79.9,-22.6,0.6429786879631332,10.05622779664465,-0.3034862580359561,0.19
0.888,9.919,1.1520000000000001,0.7959999999999999,9.628,1.683,0.121,0.195,-0.5529999999999999,-0.028999999999999998,0.068,0.061,-0.3,-30.7,26.5,159.0,-79.0,-25.2,0.9214508040426715,9.967512705995443,-0.5493886343459848,0.19
1.219,9.654,1.439,0.877,9.628,1.646,0.272,0.098,-0.209,0.021,0.13699999999999998,-0.032,0.0,-31.9,25.9,155.3,-79.0,-27.6,1.2598311064275094,9.752735830021077,-0.2310138807533073,0.19
1.008,9.527000000000001,1.642,0.893,9.637,1.579,0.105,-0.084,0.023,0.077,0.17300000000000001,-0.008,-0.4,-30.9,25.9,155.7,-79.3,-29.2,1.0528630009529385,9.662681830620327,-0.004042452745171232,0.19
0.479,10.006,1.899,0.8079999999999999,9.667,1.4380000000000002,-0.284,0.38,0.307,0.08900000000000001,0.33899999999999997,-0.035,-1.5,-30.4,26.1,153.0,-80.0,-29.9,0.5265049513942609,10.180682523218502,0.17937083818358457,0.19
0.215,9.879,1.88,0.7909999999999999,9.671,1.4169999999999998,-0.604,0.152,0.5870000000000001,0.002,0.313,0.078,-2.3,-30.5,27.1,149.4,-80.5,-29.2,0.26142440574875553,10.053438130106649,0.18789636557584588,0.19
-0.05,10.195,1.24,0.747,9.675,1.42,-0.639,0.35700000000000004,-0.215,0.052000000000000005,0.264,-0.01,-1.6,-28.9,25.4,152.0,-80.5,-28.3,-0.019256020340242593,10.258533116111655,-0.4901555990919353,0.19
0.287,9.421,2.081,0.746,9.647,1.594,-0.42700000000000005,-0.228,0.51,-0.094,0.10099999999999999,0.059000000000000004,-3.3,-29.8,25.6,152.3,-80.2,-26.0,0.3447760583433698,9.635032766518306,0.4641595175279476,0.19
0.836,9.56,1.212,0.728,9.65,1.589,0.10300000000000001,-0.11800000000000001,-0.361,-0.027000000000000003,-0.015,0.028999999999999998,-3.7,-30.2,26.9,151.8,-79.7,-24.7,0.8692869652697897,9.623929583859416,-0.43099830269689376,0.19
0.45299999999999996,9.776,1.8219999999999998,0.727,9.651,1.5830000000000002,-0.275,0.125,0.239,-0.081,-0.131,0.040999999999999995,-3.9,-30.7,25.4,153.6,-79.8,-24.7,0.5031599724967541,9.940879356916048,0.14427977445722684,0.19
0.278,10.307,1.403,0.6940000000000001,9.666,1.505,-0.392,0.6629999999999999,-0.042,0.14,-0.26,0.021,-3.6,-30.7,26.6,153.8,-79.9,-24.5,0.31475276716447004,10.394937067938999,-0.35518452830900005,0.19
1.034,10.35,0.359,0.7759999999999999,9.677999999999999,1.381,0.047,0.531,-0.784,-0.046,-0.267,0.033,-2.7,-29.4,25.8,149.7,-80.7,-28.6,1.0423518026390604,10.258844584961889,-1.410725877388396,0.19
1.3219999999999998,9.607999999999999,1.9869999999999999,0.8809999999999999,9.667,1.3940000000000001,0.496,-0.061,0.545,-0.075,-0.434,0.003,-1.1,-31.6,24.0,151.8,-80.6,-31.2,1.3699474866840415,9.79973077523591,0.31310959203167776,0.19
1.729,9.747,1.264,0.88,9.667,1.391,0.09699999999999999,-0.24100000000000002,0.718,0.253,-0.405,-0.036000000000000004,-0.4,-29.9,24.4,152.8,-80.2,-32.2,1.7591742861882262,9.813738391129938,-0.43242412198733304,0.19
0.311,9.658999999999999,2.509,0.892,9.662,1.422,-0.581,-0.003,1.087,-0.179,-0.23399999999999999,0.094,0.5,-30.7,26.8,154.2,-80.4,-32.4,0.3731676791229097,9.941661647772237,0.8439150220683331,0.19
1.121,9.16,2.5669999999999997,0.985,9.613,1.669,0.064,-0.36700000000000005,0.8759999999999999,-0.063,0.002,-0.07400000000000001,0.2,-29.6,26.0,155.4,-79.0,-31.7,1.195289432093968,9.454412477512072,0.9680381596757934,0.19
0.266,10.066,1.7169999999999999,0.83,9.626,1.6780000000000002,-0.526,0.43200000000000005,0.021,0.036000000000000004,0.434,-0.075,1.6,-30.8,24.7,161.3,-78.9,-27.3,0.31616390150623297,10.209957879262568,0.001221093189005984,0.19
1.307,9.096,1.86,0.825,9.607999999999999,1.784,0.507,-0.35100000000000003,0.687,0.111,0.716,0.099,-0.1,-30.6,25.9,159.5,-78.7,-24.7,1.36427136805452,9.27191227318117,0.27472064490861836,0.19
0.006999999999999999,10.133,0.584,0.596,9.64,1.6969999999999998,-0.4,-0.01,-0.32299999999999995,0.42,1.413,-0.185,-1.3,-30.0,24.5,160.0,-78.7,-22.1,0.024291459103849677,10.087632896428783,-1.1215464644420452,0.19
-0.053,10.214,1.386,0.374,9.645,1.7309999999999999,-0.252,0.667,-0.335,-0.187,1.618,0.192,-4.8,-29.8,24.4,160.1,-80.2,-14.3,-0.011108819818308538,10.30199955660738,-0.34392256364427065,0.19
-0.7020000000000001,9.177,1.6740000000000002,0.245,9.667,1.631,-1.0490000000000002,-0.473,0.215,-0.094,1.65,0.44299999999999995,-9.7,-29.8,23.5,156.8,-80.1,-9.1,-0.6540693878608144,9.331031912691884,0.12824071190154185,0.19
-1.188,9.34,3.843,0.217,9.627,1.858,-1.347,-0.33399999999999996,1.87,-0.031,2.133,0.318,-15.2,-29.9,20.6,144.4,-79.5,-8.8,-1.0627755575698177,9.857249553717606,2.2629035220190477,0.19
-0.79,9.462,3.182,-0.024,9.573,2.128,-0.7659999999999999,-0.111,1.054,-0.077,1.9669999999999999,0.259,-20.0,-28.5,17.5,139.1,-77.5,0.7,-0.6713008975035868,9.863930271078136,1.5908811119374262,0.19
-0.5479999999999999,9.687000000000001,2.9760000000000004,-0.22399999999999998,9.57,2.129,-0.25,0.096,0.41600000000000004,0.03,1.847,0.34299999999999997,-24.8,-27.8,15.5,134.1,-77.3,5.0,-0.43706473777511395,10.049998608192583,1.3421443254437109,0.19
-0.56,9.625,2.6310000000000002,-0.24100000000000002,9.573,2.113,-0.255,0.155,0.621,0.013999999999999999,1.625,0.39899999999999997,-28.2,-26.5,10.9,126.4,-77.5,6.8,-0.46261303911516916,9.931649590172647,1.012280393005871,0.19
-0.44799999999999995,9.682,1.183,-0.27899999999999997,9.58,2.08,-0.152,0.136,-0.777,-0.046,1.601,0.293,-30.4,-25.5,6.4,116.8,-77.5,7.0,-0.40476796768634166,9.7464332547733,-0.42955640209896573,0.19
-0.7040000000000001,9.426,2.813,-0.349,9.557,2.1719999999999997,-0.355,-0.13,0.6409999999999999,-0.19,1.3119999999999998,0.324,-30.7,-25.3,-0.4,109.9,-77.3,8.7,-0.5968829537087155,9.766308955539124,1.2332887433720736,0.19
-0.045,9.601,3.386,-0.35700000000000004,9.508,2.375,0.259,-0.11800000000000001,0.86,-0.149,1.2229999999999999,0.303,-32.2,-23.3,-4.6,103.1,-76.5,8.7,0.09535353964718246,10.028251901771524,1.75251062681302,0.19
1.42,9.905,2.0469999999999997,-0.27399999999999997,9.511000000000001,2.375,1.4040000000000001,0.284,0.51,0.29600000000000004,1.047,0.42100000000000004,-30.5,-23.2,-10.9,92.6,-75.5,8.1,1.5036073310591715,10.097071101141173,0.3224192495570104,0.19
-0.184,9.496,3.484,-0.06,9.507,2.403,-0.191,0.086,1.172,-0.053,1.115,0.489,-31.1,-22.0,-13.3,80.3,-76.1,3.6,-0.0377610951490559,9.941790526416797,1.8722989153824616,0.19
1.037,9.079,1.288,0.124,9.506,2.407,0.927,-0.456,-1.121,0.052000000000000005,1.208,0.321,-30.5,-19.7,-18.0,64.9,-75.8,-3.0,1.0901781465493723,9.15966406224332,-0.2731663881856654,0.19
-0.158,10.216000000000001,2.95,0.128,9.522,2.343,-0.226,0.632,0.765,-0.08900000000000001,1.465,0.503,-28.3,-18.6,-22.1,60.1,-76.2,-2.6,-0.03726693845319376,10.56391377123336,1.2232975963536286,0.19
0.7090000000000001,9.704,1.942,0.267,9.517999999999999,2.345,0.496,-0.006,-0.389,0.156,1.429,0.33799999999999997,-27.1,-17.8,-24.7,48.3,-76.0,-5.3,0.7878662252817513,9.886470111841431,0.28042207246648343,0.19
0.879,9.603,2.272,0.256,9.538,2.265,0.623,0.065,0.006999999999999999,0.247,1.41,0.10400000000000001,-24.0,-18.2,-27.8,38.8,-76.5,-6.7,0.968105944070895,9.84067117452751,0.6133479566102291,0.19
0.6990000000000001,9.867,2.033,0.19899999999999998,9.574,2.113,0.39,0.151,0.092,0.128,1.246,0.239,-22.2,-17.5,-31.1,33.8,-77.4,-5.4,0.7734823705057576,10.06318340876315,0.3368140497527725,0.19
0.16,9.675,2.588,0.225,9.566,2.149,-0.065,0.11,0.439,-0.223,1.129,0.298,-18.0,-16.9,-32.8,26.6,-77.6,-5.8,0.2569331955672579,9.969251166148913,0.936475049990197,0.19
-0.69,9.105,3.335,0.14300000000000002,9.508,2.398,-0.943,-0.563,1.6369999999999998,0.182,1.028,0.084,-14.0,-15.9,-35.6,20.9,-76.0,-5.0,-0.5498567069050526,9.53510014884746,1.8107657919567333,0.19
0.105,9.474,1.829,-0.008,9.513,2.381,0.035,-0.046,-0.485,-0.10099999999999999,0.696,0.207,-11.3,-16.6,-36.0,20.7,-76.0,-0.5,0.18089396106536137,9.645014229579978,0.23220655901553644,0.19
-0.867,9.589,2.8710000000000004,-0.023,9.472999999999999,2.537,-1.155,-0.018000000000000002,0.76,-0.166,0.484,0.311,-9.1,-15.9,-36.7,16.6,-75.1,0.7,-0.7390666693623836,9.936607842864008,1.2887420360068556,0.19
-1.077,9.517000000000001,2.6289999999999996,0.049,9.447000000000001,2.633,-1.093,-0.078,0.185,0.057,0.532,0.303,-7.9,-14.9,-37.4,12.8,-74.4,-0.9,-0.9550910210479666,9.82710568625749,1.0773365178249985,0.19
-0.426,9.477,2.658,0.121,9.45,2.616,-0.54,0.026000000000000002,-0.011000000000000001,0.218,0.525,0.187,-5.6,-15.0,-39.6,7.8,-74.4,-2.1,-0.3042396900821708,9.787536350635154,1.0823767347713065,0.19
0.11,9.876,1.903,0.121,9.526,2.325,-0.28300000000000003,0.38799999999999996,-0.172,0.171,0.6,0.384,-3.9,-15.5,-37.9,3.5,-76.3,-3.0,0.1871099451611036,10.053755437171596,0.23638205931156442,0.19
0.479,9.457,3.431,0.266,9.519,2.343,0.017,-0.141,1.186,0.048,0.767,0.335,-1.0,-17.1,-41.4,355.2,-76.1,-5.6,0.618864616800586,9.890472642503958,1.797667514851687,0.19
0.965,9.362,3.2539999999999996,0.33299999999999996,9.487,2.463,0.608,-0.099,0.7929999999999999,0.015,1.04,0.10099999999999999,0.9,-16.0,-40.7,351.0,-75.8,-7.9,1.103946689754882,9.762962234901346,1.6225458717920367,0.19
-0.62,8.957,4.312,0.18,9.431000000000001,2.6830000000000003,-1.015,-0.457,1.751,-0.27899999999999997,1.486,0.239,5.3,-15.8,-41.6,348.1,-74.5,-4.7,-0.41747524311266926,9.546478430055995,2.809992349787395,0.19
0.019,8.677,3.9789999999999996,0.052000000000000005,9.345,2.9739999999999998,-0.205,-0.732,1.079,-0.201,1.821,0.627,10.5,-15.8,-41.6,341.3,-72.8,-1.2,0.22541610893490355,9.206918443236914,2.5109702024151153,0.19
1.053,8.684,5.026,-0.018000000000000002,9.214,3.3569999999999998,1.205,-0.561,1.348,-0.126,2.024,0.81,18.8,-16.1,-37.7,332.2,-71.0,0.4,1.3455016537725242,9.365472954442495,3.501268718522123,0.19
1.317,8.507,4.396,0.057,9.066,3.739,1.244,-0.633,0.7290000000000001,-0.261,2.447,0.865,23.6,-16.8,-30.8,318.2,-68.9,-0.4,1.600866821275416,9.07840603469347,2.906565548853267,0.19
1.805,10.463,3.469,0.001,8.996,3.904,1.62,1.534,-0.715,-0.033,2.734,0.818,30.7,-19.2,-24.2,294.7,-66.5,-0.3,2.0369983093967323,10.856254435994837,1.6609432586507324,0.19
-0.503,9.486,3.141,-0.201,8.977,3.9419999999999997,-0.348,0.42,-0.542,0.049,2.437,0.8340000000000001,33.5,-21.5,-15.1,282.2,-66.0,1.8,-0.28587677378504944,9.864158091541777,1.6491651267478251,0.19
-1.449,9.242,4.553999999999999,-0.82,9.023,3.753,-0.628,0.21899999999999997,0.8009999999999999,0.483,2.718,0.325,34.3,-24.6,-4.9,271.8,-66.1,6.5,-1.1478086990042087,9.855185822929188,3.132240186516003,0.19
-0.024,9.307,1.5730000000000002,-1.229,9.238999999999999,3.049,1.172,0.079,-1.225,0.16699999999999998,2.269,0.544,30.4,-25.8,7.7,259.0,-69.9,20.7,0.05970184269650827,9.438659667741813,0.057387860411905356,0.19
-0.35200000000000004,9.924,2.33,-1.168,9.337,2.762,0.775,0.556,-0.5429999999999999,-0.134,1.7480000000000002,0.6759999999999999,27.4,-26.2,13.7,254.0,-71.8,23.5,-0.23931456974407356,10.172852953642385,0.7031154387990606,0.19
0.006999999999999999,9.84,2.351,-0.927,9.424,2.551,0.7829999999999999,0.6509999999999999,-0.535,0.33799999999999997,1.296,0.405,23.1,-29.6,15.3,243.2,-73.4,19.9,0.11163292207176914,10.091714439329461,0.7054698900300311,0.19
1.01,9.577,1.4869999999999999,-0.6409999999999999,9.507,2.318,1.615,0.08900000000000001,-0.898,-0.006,0.5529999999999999,0.46799999999999997,19.9,-28.7,17.6,238.9,-75.0,19.4,1.069316331494335,9.684120863388381,-0.1567280654042711,0.19
-0.065,9.972000000000001,1.733,-0.42200000000000004,9.604,1.9380000000000002,0.41700000000000004,0.55,-0.282,0.39399999999999996,0.036000000000000004,0.145,18.7,-29.2,20.3,226.0,-76.7,12.9,-0.006356146654307913,10.121567247357417,0.0461958506941631,0.19
0.158,9.441,1.817,-0.191,9.674,1.595,0.524,-0.085,0.095,0.40700000000000003,-0.078,0.156,17.3,-29.0,20.6,220.3,-80.1,7.8,0.2085139202051592,9.611222455469646,0.19964682956838842,0.19
0.529,9.766,1.389,0.028999999999999998,9.719,1.306,0.5,0.047,0.083,0.111,-0.009000000000000001,0.124,17.5,-28.5,20.4,216.0,-82.0,1.7,0.5605207185355505,9.858223302946314,-0.2918352846018286,0.19
0.51,9.575,1.824,0.262,9.713,1.328,0.193,-0.27,0.547,-0.069,0.231,0.16,17.2,-28.5,20.5,207.2,-82.3,-8.3,0.5521358700191896,9.74340020361754,0.1702922581441042,0.19
1.018,9.615,0.486,0.415,9.706,1.34,0.578,-0.129,-0.83,0.077,0.28600000000000003,0.10400000000000001,16.7,-28.7,19.9,201.1,-81.7,-16.2,1.0290868551402277,9.55526911350776,-1.1655717108021335,0.19
1.006,9.271,1.499,0.527,9.684,1.453,0.484,-0.397,-0.009000000000000001,-0.055999999999999994,0.445,0.035,15.2,-29.2,20.0,194.6,-81.1,-19.9,1.0436865654904655,9.386673601344702,-0.10749444094092642,0.19
0.883,9.362,0.907,0.474,9.677,1.517,0.41200000000000003,-0.267,-0.583,-0.154,0.43200000000000005,-0.03,14.5,-28.3,20.8,194.6,-80.8,-18.5,0.9067020421535797,9.377266438726497,-0.7029562887464417,0.19
0.376,10.935,1.504,0.595,9.641,1.694,-0.21,0.927,-0.231,0.049,0.6409999999999999,0.5489999999999999,13.3,-29.2,20.1,193.4,-79.5,-16.9,0.4202962940191281,11.030468641101514,-0.3601799312980851,0.19
0.069,10.003,1.841,0.8009999999999999,9.597999999999999,1.847,-0.731,0.406,-0.006,0.049,0.779,0.342,10.3,-30.2,21.5,184.2,-78.5,-22.5,0.12830080066758598,10.169404212490013,0.14424932422162962,0.19
-0.5670000000000001,9.532,1.9869999999999999,0.716,9.594,1.899,-1.2830000000000001,-0.063,0.08800000000000001,0.172,0.843,0.09699999999999999,7.6,-30.6,21.5,180.3,-77.9,-22.8,-0.5008438931588085,9.732794619785205,0.38800294298584515,0.19
-0.168,9.52,1.453,0.51,9.621,1.829,-0.675,-0.099,-0.38299999999999995,-0.102,1.0170000000000001,0.174,4.0,-30.2,25.2,173.9,-78.9,-16.5,-0.12153949619754224,9.629712231399434,-0.1539593819815539,0.19
0.8,9.905,1.4340000000000002,0.43200000000000005,9.58,2.052,0.363,0.337,-0.57,-0.008,0.61,-0.02,3.4,-30.8,23.7,174.1,-78.4,-14.4,0.8508335366651925,10.000599248265553,-0.2635867380507575,0.19
0.5670000000000001,10.317,1.535,0.35200000000000004,9.597999999999999,1.9809999999999999,0.245,0.7140000000000001,-0.45399999999999996,0.066,0.14800000000000002,0.086,1.8,-30.6,23.6,176.0,-78.1,-9.8,0.619723161469083,10.425097371627157,-0.22691627361495725,0.19
0.6509999999999999,9.359,1.959,0.493,9.615,1.8659999999999999,0.158,-0.256,0.09300000000000001,0.14800000000000002,-0.308,0.095,1.0,-30.2,23.3,170.0,-78.6,-14.8,0.7144439394829707,9.551019516464518,0.3463510552169762,0.19
0.893,10.094,1.255,0.591,9.652000000000001,1.632,0.015,0.265,-0.44299999999999995,0.237,-0.276,-0.10300000000000001,1.8,-29.9,26.0,166.5,-79.3,-18.4,0.9283800847722581,10.157180364908271,-0.48073636529821573,0.19
0.47200000000000003,8.933,2.186,0.578,9.682,1.445,-0.106,-0.7490000000000001,0.741,0.053,-0.687,0.165,1.3,-29.8,26.3,165.2,-80.4,-19.6,0.5269750166052899,9.171283692615521,0.6400951190553501,0.19
0.986,9.833,2.306,0.672,9.68,1.423,0.36,0.21100000000000002,0.897,-0.078,-0.287,0.039,3.0,-29.5,26.8,164.0,-80.9,-24.9,1.042961953042178,10.076506273285469,0.5949560395063251,0.19
0.026000000000000002,9.86,2.842,0.765,9.642999999999999,1.609,-0.7070000000000001,0.235,1.213,-0.11199999999999999,0.19,0.105,4.2,-29.3,26.5,165.9,-79.6,-25.4,0.10578932535391279,10.196433888495172,1.148383462171226,0.19
0.948,9.256,1.341,0.816,9.646,1.569,0.223,-0.43700000000000006,-0.11800000000000001,0.040999999999999995,0.409,0.135,2.4,-29.9,26.7,162.6,-79.6,-26.8,0.9843622314163449,9.34540182452878,-0.25498379449520514,0.19
0.742,9.931000000000001,0.857,0.7509999999999999,9.652999999999999,1.56,-0.013999999999999999,0.255,-0.674,-0.009000000000000001,0.951,0.057999999999999996,1.2,-29.5,26.4,159.2,-79.5,-26.9,0.7650557711647049,9.930652365606782,-0.8405993459883367,0.19
1.329,9.699,2.322,0.715,9.612,1.808,0.49,0.066,0.574,-0.062,1.2109999999999999,0.113,-0.8,-29.6,26.9,159.5,-78.7,-22.4,1.4015982421601763,9.943358806003662,0.6274265077624128,0.19
0.342,10.338,1.365,0.5720000000000001,9.613,1.8519999999999999,-0.23,0.725,-0.48700000000000004,-0.151,1.6840000000000002,0.207,-4.5,-30.0,25.3,157.6,-78.7,-18.1,0.3859352637734703,10.4188154806185,-0.3921363959139299,0.19
-1.094,8.617,3.28,0.39299999999999996,9.586,2.032,-1.4869999999999999,-0.9690000000000001,1.248,0.071,2.073,0.244,-9.5,-29.9,25.5,153.2,-77.9,-13.1,-0.9770109071882753,9.049006367639729,1.835445026594589,0.19
0.127,9.222999999999999,2.363,0.316,9.56,2.164,-0.242,-0.342,0.39399999999999996,-0.13699999999999998,1.9140000000000001,0.451,-16.9,-28.9,22.7,142.3,-77.4,-8.4,0.21613621942739075,9.486284642276557,0.7920327141978152,0.19
-1.173,10.243,2.215,0.239,9.548,2.225,-1.403,0.81,-0.28800000000000003,-0.271,1.781,0.599,-20.7,-28.0,18.4,133.3,-77.0,-6.2,-1.0861208515087946,10.475791064852372,0.5285319871843166,0.19
0.292,9.18,2.533,0.36,9.491,2.441,-0.075,-0.316,0.027000000000000003,0.203,1.6740000000000002,0.523,-25.3,-28.0,14.8,124.2,-75.4,-7.7,0.3996170781569157,9.469583256339872,0.9700784205892108,0.19
-0.081,9.577,2.5669999999999997,0.39899999999999997,9.501,2.398,-0.48,0.076,0.16899999999999998,0.005,1.496,0.518,-28.4,-26.3,10.6,113.8,-75.7,-8.9,0.026476254928450044,9.86953944180594,0.9520867683997134,0.19
-0.37799999999999995,9.548,2.72,0.38299999999999995,9.482999999999999,2.47,-0.8190000000000001,0.08199999999999999,0.214,0.001,1.36,0.326,-30.0,-23.9,6.1,107.8,-75.4,-9.6,-0.2604268743694217,9.867923229899525,1.1233240725255897,0.19
0.10300000000000001,10.173,3.395,0.278,9.468,2.539,-0.175,0.705,0.856,-0.10800000000000001,1.1840000000000002,0.335,-31.1,-24.1,1.3,96.8,-75.0,-6.7,0.25329543851142045,10.591587317873747,1.6675378582464895,0.19
0.898,8.408999999999999,2.832,0.245,9.414,2.735,0.653,-1.006,0.09699999999999999,0.017,1.113,0.24,-32.5,-22.8,-3.7,90.9,-73.9,-5.6,1.032110650060919,8.751434952646514,1.3729686360684574,0.19
2.7439999999999998,9.673,2.049,0.276,9.454,2.591,2.468,0.21899999999999997,-0.542,0.151,1.37,0.083,-32.3,-22.6,-6.5,86.5,-74.0,-4.7,2.833822036297465,9.857460026583933,0.30789688354184386,0.19
0.273,9.505,3.761,0.39899999999999997,9.439,2.6289999999999996,-0.11199999999999999,0.03,1.157,-0.163,0.915,0.581,-32.5,-22.2,-10.0,76.0,-74.6,-7.4,0.44522456604637217,9.990401351160932,2.1350248074696174,0.19
1.123,9.077,1.7209999999999999,0.588,9.439,2.594,0.552,-0.45299999999999996,-0.763,0.207,1.07,0.3,-33.2,-19.6,-12.4,67.0,-74.1,-12.3,1.1997389757675676,9.22771956121942,0.157216696036667,0.19
1.085,9.433,2.354,0.615,9.459,2.513,0.369,0.051,-0.16399999999999998,-0.006999999999999999,1.087,0.44,-32.1,-19.1,-17.1,57.6,-74.7,-12.6,1.1871702301813336,9.683414141411816,0.722597682307971,0.19
0.754,9.455,2.32,0.703,9.451,2.521,0.008,-0.044000000000000004,-0.114,0.106,0.966,0.385,-30.9,-18.2,-20.7,47.8,-74.5,-14.7,0.8553167840652083,9.701800459183275,0.7010292783383187,0.19
0.685,9.33,2.124,0.727,9.466000000000001,2.457,-0.09,-0.126,-0.29,0.231,1.236,0.239,-28.6,-16.9,-24.1,39.2,-74.7,-16.6,0.7754253275513393,9.547124118046659,0.529752428973848,0.19
0.532,9.601,4.226,0.657,9.415,2.6630000000000003,-0.39799999999999996,0.29600000000000004,1.61,-0.218,1.25,0.048,-27.3,-16.1,-26.2,36.4,-74.5,-16.1,0.7277713869413608,10.158185714694179,2.569613354987979,0.19
0.077,9.321,3.51,0.618,9.406,2.7060000000000004,-0.451,0.04,0.442,-0.129,1.256,0.479,-24.6,-15.5,-28.4,36.3,-74.0,-12.5,0.24262501038386497,9.768082788925652,1.9320356448654588,0.19
0.493,9.11,2.588,0.7070000000000001,9.375,2.7880000000000003,-0.214,-0.265,-0.2,-0.127,0.953,0.40399999999999997,-20.4,-14.9,-32.4,21.3,-73.1,-13.9,0.618298331353599,9.405489112753887,1.042772613427026,0.19
-0.006999999999999999,9.158,3.714,0.605,9.318,2.9960000000000004,-0.62,-0.129,0.61,0.08800000000000001,0.867,0.086,-17.8,-14.0,-35.5,19.2,-71.9,-12.3,0.18712646106543804,9.637744730783174,2.177537414564961,0.19
0.182,9.388,3.1630000000000003,0.48700000000000004,9.321,3.009,-0.325,0.07200000000000001,0.161,0.087,0.611,0.259,-15.0,-13.0,-36.3,15.9,-71.9,-9.1,0.3477839372793745,9.774088134981927,1.5869733654274043,0.19
0.488,9.318999999999999,3.259,0.535,9.337,2.949,-0.046,-0.019,0.31,0.079,0.39299999999999996,0.15,-13.3,-13.7,-38.9,11.4,-72.2,-10.0,0.6550197201903054,9.719504293579373,1.6748646074396378,0.19
0.35200000000000004,9.754,2.574,0.48700000000000004,9.39,2.787,-0.135,0.35700000000000004,-0.223,0.099,0.09,0.063,-11.9,-13.4,-38.6,9.7,-72.7,-10.1,0.47673968537306577,10.03997147000605,0.9282177297676237,0.19
0.20800000000000002,9.433,4.082,0.506,9.399,2.75,-0.309,0.204,0.9940000000000001,0.08800000000000001,-0.016,0.046,-12.7,-13.7,-36.9,10.4,-73.4,-10.5,0.4036072686783954,9.97059112363985,2.4722238607909643,0.19
1.475,8.509,3.395,0.6659999999999999,9.363999999999999,2.8360000000000003,1.003,-0.826,0.42,-0.036000000000000004,-0.42200000000000004,-0.12,-13.4,-13.4,-36.8,10.3,-73.2,-11.9,1.6411690899795193,8.935450554907332,1.8891845857147105,0.19
1.429,9.184,3.594,0.733,9.343,2.888,0.6970000000000001,-0.159,0.706,0.05,-0.43,-0.094,-15.4,-12.9,-36.7,9.4,-72.4,-14.1,1.6082644090393643,9.633202826112985,1.9798035007510388,0.19
0.098,9.52,3.321,0.8220000000000001,9.325,2.9210000000000003,-0.705,0.07,0.35600000000000004,-0.191,-0.034,0.281,-16.2,-14.0,-36.9,9.8,-72.3,-15.0,0.26710753949076643,9.930802267410263,1.72535935038077,0.19
0.51,9.07,3.455,0.92,9.305,2.957,-0.415,-0.214,0.43799999999999994,0.113,0.605,0.195,-16.1,-13.1,-36.2,8.1,-71.5,-17.2,0.6875523099365678,9.504294548695169,1.9125067196598722,0.19
0.314,9.041,3.1010000000000004,0.867,9.318999999999999,2.93,-0.573,-0.28,0.475,0.201,0.9690000000000001,0.29100000000000004,-13.3,-13.4,-37.2,4.5,-71.7,-16.9,0.4720998707525716,9.420570380718065,1.5762149009487654,0.19
-0.21100000000000002,9.244,3.17,0.7909999999999999,9.317,2.957,-0.9279999999999999,-0.10099999999999999,0.27699999999999997,0.055999999999999994,1.493,0.413,-10.1,-13.7,-38.3,359.7,-71.8,-15.0,-0.04718985291817357,9.63634187929098,1.6381835377039908,0.19
0.649,8.464,3.122,0.6729999999999999,9.227,3.252,-0.204,-0.833,0.207,0.14400000000000002,1.675,0.581,-4.3,-13.0,-38.8,354.8,-70.7,-13.1,0.8250586701330185,8.848374659401463,1.6831295486980127,0.19
-0.304,9.596,3.388,0.48700000000000004,9.16,3.468,-0.813,0.48200000000000004,-0.25,-0.17800000000000002,1.906,0.455,1.1,-13.5,-40.1,349.2,-69.9,-10.4,-0.09849947536956,10.014910742363591,1.8292175036999443,0.19
0.555,9.512,4.592,0.228,9.074,3.7110000000000003,0.485,0.32799999999999996,0.9670000000000001,0.027999999999999997,1.9269999999999998,0.444,8.0,-12.4,-37.9,341.1,-67.7,-3.5,0.8510485252178804,10.10998252653095,2.9894151135236005,0.19
0.711,9.34,3.1460000000000004,0.08,9.127,3.5860000000000003,0.5379999999999999,0.273,-0.555,-0.077,1.734,0.799,14.7,-14.0,-34.4,329.3,-68.5,-1.0,0.9063797469725439,9.712745839483125,1.5746367872881832,0.19
0.618,9.18,4.262,0.127,9.158,3.5039999999999996,0.424,0.081,0.846,0.14,1.5230000000000001,0.68,19.8,-14.9,-30.2,320.2,-68.9,-1.6,0.8773306441342008,9.734034303202963,2.701450559408971,0.19
0.38299999999999995,9.445,3.0380000000000003,0.142,9.235,3.295,0.21899999999999997,0.22399999999999998,-0.33299999999999996,0.34,1.4480000000000002,0.40700000000000003,23.5,-17.9,-26.0,304.8,-70.3,-2.5,0.5569817498178418,9.805789977426711,1.4561635378513256,0.19
-0.16,8.84,3.747,0.045,9.308,3.0869999999999997,-0.201,-0.46299999999999997,0.696,0.256,1.239,0.285,26.0,-19.7,-20.4,295.1,-71.6,-0.8,0.042016644028981254,9.330165153516518,2.2710045816181528,0.19
0.168,8.981,2.612,-0.054000000000000006,9.359,2.927,0.222,-0.379,-0.315,0.043,0.9059999999999999,0.264,27.3,-21.1,-16.3,290.8,-72.4,0.8,0.3011589294049183,9.284266118779692,1.1049139943539286,0.19
0.527,9.4,2.785,-0.098,9.361,2.92,0.484,0.008,0.125,0.091,0.866,0.301,28.2,-22.0,-14.2,287.8,-72.5,1.8,0.6681880553018482,9.722858936622085,1.188904042090872,0.19
1.774,9.74,2.852,0.086,9.41,2.759,2.074,0.591,-0.5539999999999999,0.38,0.905,0.397,27.2,-23.7,-11.1,276.2,-73.6,-1.8,1.9092247992938105,10.06072998429693,1.133645821599576,0.19
-0.364,9.632,4.281000000000001,0.18,9.427999999999999,2.693,-0.544,0.204,1.588,-0.02,1.605,0.309,28.3,-24.5,-7.7,269.9,-74.1,-4.3,-0.16245764837018617,10.205182725611364,2.6575804878440543,0.19
1.59,9.097999999999999,2.873,0.36,9.392000000000001,2.8,1.261,-0.29100000000000004,0.1,0.075,1.25,0.534,29.3,-25.3,-5.7,262.9,-73.7,-4.8,1.7284472054696505,9.431645979914913,1.2697863471698643,0.19
1.099,9.101,3.785,0.588,9.374,2.822,0.562,-0.213,1.0070000000000001,0.102,1.338,0.574,27.5,-26.5,-1.0,249.8,-73.2,-9.4,1.2840152943684757,9.586400643368691,2.1941865072614495,0.19
1.324,9.11,2.366,0.7559999999999999,9.347000000000001,2.87,0.568,-0.22,-0.569,-0.006,1.54,0.503,25.5,-28.1,2.9,238.7,-72.6,-13.8,1.4408050019201692,9.36206598341253,0.7866596905090415,0.19
1.6569999999999998,9.089,3.5989999999999998,0.726,9.298,3.032,1.056,-0.336,0.473,0.133,1.8230000000000002,0.22899999999999998,23.6,-29.9,7.3,225.1,-71.5,-14.1,1.8450449096812638,9.536096459630139,1.9917441085362384,0.19
0.941,9.948,2.825,0.478,9.324,3.0,0.539,0.603,-0.14400000000000002,0.11900000000000001,1.9340000000000002,0.228,21.8,-30.1,12.1,219.8,-71.8,-10.7,1.0875595307918355,10.265658705314026,1.1235103973680862,0.19
-0.098,8.325,3.654,0.27,9.293,3.1189999999999998,-0.414,-0.976,0.5489999999999999,-0.152,1.264,0.5589999999999999,19.3,-31.1,14.7,214.7,-71.7,-5.0,0.1009591653016304,8.805785096488997,2.2616147066628924,0.19
-0.9840000000000001,9.552999999999999,4.686,0.025,9.25,3.2569999999999997,-1.127,0.32899999999999996,1.8219999999999998,-0.059000000000000004,1.732,0.179,14.5,-31.6,17.6,208.6,-70.8,-3.4,-0.7161764829808498,10.189785921778743,3.137198609196572,0.19
0.35700000000000004,9.328,3.005,-0.149,9.216000000000001,3.3480000000000003,0.46,0.069,-0.27399999999999997,-0.064,0.821,0.349,11.4,-32.2,20.3,202.0,-70.2,2.3,0.5318838903552148,9.684701146224507,1.4466240823027616,0.19
-0.07400000000000001,9.759,3.522,-0.16699999999999998,9.244,3.2710000000000004,0.19399999999999998,0.539,0.325,0.297,0.7240000000000001,0.19399999999999998,8.5,-32.3,22.0,197.6,-69.9,2.4,0.12708143374133202,10.19778971171895,1.9070858147334082,0.19
0.06,8.837,2.955,-0.038,9.347000000000001,2.967,0.179,-0.531,-0.12,0.34600000000000003,0.348,0.313,5.5,-32.1,22.3,192.0,-72.0,1.4,0.21287273596669942,9.198453191731899,1.473546089472369,0.19
0.067,8.933,2.617,0.037000000000000005,9.386000000000001,2.843,0.03,-0.452,-0.226,0.01,0.20600000000000002,0.135,5.0,-30.4,22.0,189.0,-73.1,-0.7,0.1967190945994108,9.239131340383066,1.1186691525966843,0.19
0.335,10.111,2.164,0.032,9.371,2.889,0.322,0.802,-0.7240000000000001,-0.11,0.225,0.061,4.9,-31.6,22.0,188.4,-73.0,-1.0,0.44364247292379033,10.325225411587844,0.46940766516826504,0.19
0.637,10.338,3.05,0.201,9.323,3.034,0.9890000000000001,0.862,-0.82,-0.153,0.025,0.262,4.0,-31.6,22.4,185.4,-72.1,-2.8,0.7975392511742125,10.689388400028728,1.2974666763226474,0.19
1.097,9.481,2.909,0.39,9.294,3.105,0.63,0.028999999999999998,-0.07200000000000001,-0.158,-0.053,-0.055999999999999994,2.3,-32.4,23.2,178.4,-71.4,-7.2,1.2529583652602057,9.816058350846378,1.2767712354621634,0.19
0.977,9.711,2.114,0.344,9.366,2.885,0.64,0.345,-0.718,0.083,0.076,-0.052000000000000005,2.6,-33.2,21.4,179.2,-72.2,-6.9,1.082162500113995,9.917136568600963,0.45428251459258107,0.19
1.037,9.802,2.37,0.406,9.424,2.6830000000000003,0.585,0.47700000000000004,-0.222,0.221,0.106,0.142,3.0,-32.2,21.4,180.3,-73.3,-7.3,1.146803165937628,10.049397215079297,0.6825914679747211,0.19
1.391,8.686,0.9620000000000001,0.61,9.451,2.5469999999999997,0.635,-0.721,-1.5119999999999998,0.11,-0.102,-0.105,2.6,-32.2,22.8,176.0,-74.2,-12.8,1.4323760726924584,8.715757656739175,-0.5392478607936979,0.19
0.45299999999999996,9.122,1.662,0.498,9.509,2.347,-0.087,-0.34600000000000003,-0.7190000000000001,0.182,0.115,-0.218,3.2,-32.3,22.7,176.1,-75.5,-12.6,0.5206812893997662,9.267932268244039,0.1125142929137386,0.19
-0.426,9.34,2.255,0.414,9.525,2.298,-0.813,-0.204,-0.081,-0.18,0.128,0.087,2.2,-31.9,23.5,175.9,-76.4,-10.4,-0.3352388286341965,9.586913301932213,0.6934041166673046,0.19
0.213,9.714,2.7289999999999996,0.523,9.452,2.5610000000000004,-0.011000000000000001,0.317,-0.198,-0.267,0.028999999999999998,-0.063,1.6,-32.3,24.7,174.7,-75.0,-11.5,0.33472721797859906,10.028267484944873,1.084626636194102,0.19
-0.654,10.944,2.715,0.335,9.447000000000001,2.608,-0.995,1.537,-0.008,0.13,0.021,-0.109,1.8,-33.5,22.9,174.6,-74.2,-9.5,-0.5297833435945236,11.245625852370393,0.9084634265332245,0.19
-0.086,9.867,2.373,0.33399999999999996,9.527999999999999,2.2969999999999997,-0.42,0.33899999999999997,0.075,0.275,-0.09,0.214,1.7,-32.3,25.4,177.8,-76.0,-7.3,0.00917773588135562,10.12393969083215,0.7085018740677704,0.19
0.546,9.07,0.757,0.43700000000000006,9.595,1.9780000000000002,0.10099999999999999,-0.535,-1.214,0.306,-0.114,0.07,1.3,-32.6,25.7,172.9,-77.5,-11.2,0.5718031058809498,9.066078349137198,-0.7844294585306131,0.19
0.259,9.271,0.168,0.47,9.652000000000001,1.669,-0.079,-0.53,-1.7409999999999999,-0.003,-0.022000000000000002,-0.017,1.8,-31.0,26.5,169.7,-79.0,-14.5,0.26378319662580574,9.16665294365613,-1.3962944659842702,0.19
0.244,10.104,1.3530000000000002,0.488,9.665,1.5859999999999999,-0.18100000000000002,0.39799999999999996,-0.243,0.002,-0.061,0.042,1.2,-30.7,26.0,169.7,-80.0,-16.4,0.28135404615178927,10.186516507024583,-0.36970576521021026,0.19
0.606,10.324000000000002,0.52,0.535,9.69,1.412,-0.032,0.613,-0.732,0.23199999999999998,-0.264,0.09,1.4,-30.5,26.6,165.0,-80.9,-19.6,0.6186296023076034,10.261690959570728,-1.240003252178463,0.19
1.058,10.681,0.46399999999999997,0.616,9.717,1.173,0.439,0.9309999999999999,-0.759,0.046,-0.188,0.054000000000000006,1.6,-30.2,26.2,160.7,-82.1,-26.3,1.067276965688132,10.602407005956582,-1.3668601093580643,0.19
0.912,10.101,1.056,0.693,9.722999999999999,1.078,-0.027999999999999997,0.446,0.045,0.151,-0.139,0.132,2.6,-30.1,26.7,160.2,-82.3,-29.2,0.9317056907492665,10.131320027058273,-0.6821730096928535,0.19
0.397,8.866,2.5810000000000004,0.721,9.72,1.079,-0.264,-0.799,1.2890000000000001,0.419,-0.33299999999999996,-0.11699999999999999,2.9,-29.9,26.0,156.3,-82.2,-33.7,0.44553240915447734,9.173144725632492,1.0392510355990943,0.19
0.953,9.412,1.161,0.682,9.729,1.023,0.271,-0.317,0.138,-0.237,0.025,-0.132,5.0,-28.9,25.1,158.7,-83.0,-35.4,0.9735763354099868,9.469926002696083,-0.46316802846298466,0.19
0.958,9.184,2.318,0.7090000000000001,9.69,1.329,0.12,-0.36200000000000004,0.9520000000000001,-0.374,-0.048,0.13,5.5,-29.2,23.0,164.6,-82.1,-29.6,1.011504494748777,9.439285403796028,0.7165847631552491,0.19
0.22,9.953,0.57,0.61,9.687000000000001,1.403,-0.344,0.264,-0.853,0.077,0.065,-0.134,5.0,-30.8,24.9,168.9,-80.8,-24.4,0.23389022968448533,9.906063118624148,-1.1183549750828357,0.19
0.14400000000000002,10.116,1.212,0.537,9.703,1.3159999999999998,-0.434,0.413,-0.062,0.19,0.29600000000000004,0.08,5.1,-30.1,25.4,170.9,-81.3,-22.0,0.17179744405958533,10.174947403723936,-0.5138744687821668,0.19
0.34700000000000003,9.814,2.246,0.634,9.709,1.227,0.41700000000000004,-0.122,0.909,0.337,0.324,-0.083,3.7,-29.5,25.1,165.4,-81.9,-25.5,0.39501529492050774,10.050868961744404,0.550923797472747,0.19
0.268,10.662,2.6719999999999997,0.601,9.729,1.075,-0.33299999999999996,0.9329999999999999,1.597,-0.149,0.21600000000000003,0.034,4.0,-29.4,25.9,161.9,-82.8,-29.2,0.31808274783868773,10.959267348235795,0.8263985451464642,0.19
-0.958,9.625,3.3710000000000004,0.466,9.732000000000001,1.1159999999999999,-1.415,-0.131,2.267,0.321,0.623,0.087,2.3,-29.4,27.0,162.8,-82.7,-25.8,-0.8921624876997293,10.059368178421773,1.7132390219980596,0.19
-0.785,9.419,2.222,0.28300000000000003,9.731,1.179,-1.205,-0.27399999999999997,0.99,0.18100000000000002,1.186,0.203,-0.3,-29.2,28.0,165.2,-82.8,-18.6,-0.7391139626288993,9.661699956235955,0.6134610875329933,0.19
-0.419,8.969,3.1319999999999997,0.28600000000000003,9.677999999999999,1.56,-0.38,-0.8759999999999999,1.371,0.149,1.473,0.055,-1.9,-28.9,25.2,167.4,-81.4,-12.3,-0.3335798116618155,9.36959987185273,1.5897385793359087,0.19
-0.608,9.304,2.6889999999999996,-0.02,9.681000000000001,1.5659999999999998,-0.648,-0.36200000000000004,1.077,0.325,1.605,0.066,-8.0,-27.8,27.6,166.6,-80.8,0.7,-0.5342866744139099,9.626318704681642,1.1015112098567408,0.19
-1.149,9.879,0.831,-0.39,9.722999999999999,1.216,-0.6559999999999999,0.153,-0.512,0.349,2.04,-0.031,-12.4,-27.1,26.2,170.6,-82.1,14.2,-1.1311060748060102,9.88152545614014,-0.8255039110696694,0.19
-1.2590000000000001,9.879,0.998,-0.537,9.74,1.002,-0.732,0.09300000000000001,0.145,-0.311,2.154,0.304,-16.9,-26.2,24.2,175.5,-83.3,27.7,-1.2413551397235167,9.909138122394646,-0.6661419431225731,0.19
-0.36200000000000004,9.718,1.192,-0.474,9.731,1.123,0.154,0.067,0.141,-0.262,2.0069999999999997,0.361,-23.3,-25.8,21.2,163.6,-83.1,25.8,-0.3385686980884413,9.780814472052638,-0.46094630919488444,0.19
0.529,9.532,2.6460000000000004,-0.429,9.722999999999999,1.206,1.054,-0.14300000000000002,1.392,0.2,2.181,0.287,-27.5,-25.4,14.2,141.0,-82.4,19.9,0.5845735126889423,9.83997058273438,0.9866274571410008,0.19
0.754,9.579,2.318,-0.183,9.728,1.2229999999999999,1.045,-0.213,1.035,-0.012,2.103,0.473,-31.3,-23.5,8.3,125.3,-82.9,13.3,0.8033030830247728,9.83013013930377,0.6497127066284976,0.19
0.455,9.594,2.253,0.032,9.734,1.188,0.457,-0.174,1.077,0.193,2.079,0.41,-33.4,-23.1,1.6,104.8,-82.8,3.2,0.5016137238816206,9.835125718015094,0.5886898868264094,0.19
0.752,9.395,0.63,0.183,9.748,1.06,0.418,-0.044000000000000004,-0.9470000000000001,-0.009000000000000001,2.14,0.41100000000000003,-34.2,-21.8,-3.9,83.0,-83.4,-6.3,0.7635259596193791,9.363649454223177,-0.9836289988676161,0.19
0.8640000000000001,9.726,0.8640000000000001,0.26899999999999996,9.736,1.143,0.6859999999999999,-0.209,-0.21600000000000003,0.127,2.069,0.046,-32.5,-20.2,-12.0,59.3,-83.0,-13.9,0.8810629818705747,9.729086603871004,-0.8103516991745616,0.19
0.539,9.996,2.617,0.175,9.745,1.081,0.381,0.248,1.545,0.33799999999999997,1.806,0.048,-29.9,-19.8,-19.4,52.4,-83.4,-10.7,0.5882761254928334,10.29292866111503,0.8767991659279581,0.19
0.8809999999999999,10.317,2.155,0.16399999999999998,9.765,0.89,0.667,0.473,1.5730000000000002,-0.122,1.6159999999999999,0.11,-27.0,-21.4,-24.7,43.5,-84.8,-8.5,0.9143669255056536,10.53066325249742,0.36019382010489776,0.19
2.083,10.293,0.18,0.185,9.774,0.7759999999999999,1.5130000000000001,0.493,0.086,0.302,0.995,0.259,-23.5,-21.4,-25.3,37.6,-84.5,-10.7,2.0852467593885944,10.169362640378536,-1.5977945552957198,0.19
1.147,9.867,2.995,0.44799999999999995,9.736,1.085,0.55,0.066,1.9680000000000002,-0.276,0.43700000000000006,0.23600000000000002,-21.0,-21.2,-28.4,16.5,-83.7,-21.6,1.2035067646701698,10.227606511030258,1.2613324394958796,0.19
2.205,9.445,1.374,0.7140000000000001,9.695,1.2890000000000001,1.4769999999999999,-0.214,0.092,0.138,-0.485,-0.057999999999999996,-20.9,-19.4,-30.3,9.8,-81.7,-25.2,2.2353507045063497,9.533082541482532,-0.2854303507756366,0.19
2.193,9.544,2.028,1.045,9.679,1.183,1.148,-0.135,0.845,-0.168,-1.383,0.022000000000000002,-23.3,-21.5,-28.5,358.8,-80.9,-40.5,2.2344022245437882,9.741421574568259,0.3494587321700162,0.19
1.6280000000000001,9.213,2.229,1.3559999999999999,9.645,1.145,0.023,-0.192,1.271,-0.08,-2.673,0.022000000000000002,-27.4,-20.7,-25.3,359.3,-79.8,-47.9,1.6722163653430726,9.450700520319149,0.6214065518790091,0.19
2.397,10.959000000000001,2.253,1.651,9.61,1.043,0.42700000000000005,0.826,1.3159999999999998,-0.036000000000000004,-3.043,-0.21600000000000003,-33.7,-20.5,-17.5,3.9,-78.7,-55.1,2.437613732432641,11.173982855210529,0.3484902336034963,0.19
2.052,8.006,3.85,1.9240000000000002,9.556000000000001,1.07,0.128,-1.55,2.78,-0.251,-2.59,-0.034,-37.2,-20.2,-5.2,20.9,-77.6,-61.2,2.1235368761599647,8.527578908641384,2.4290387177818697,0.19
2.4419999999999997,9.551,1.271,1.965,9.552,1.037,0.461,-0.001,0.235,-0.5379999999999999,-3.11,-0.193,-36.4,-21.2,3.8,33.4,-77.2,-62.6,2.4646027048566554,9.622123863425218,-0.37532900782674994,0.19
1.3,9.761000000000001,2.476,2.077,9.514,1.16,-0.777,0.248,1.315,-0.7559999999999999,-2.198,-0.14300000000000002,-33.7,-22.7,12.2,52.9,-76.5,-62.5,1.349858823920565,10.031560539919658,0.8021042883631817,0.19
2.43,9.544,2.358,2.093,9.481,1.38,0.156,0.135,1.0759999999999998,-0.243,-1.646,-0.625,-29.0,-23.3,17.6,75.0,-75.0,-57.4,2.4860834410226147,9.792290218375884,0.695299506236797,0.19
0.017,9.886000000000001,0.946,1.6640000000000001,9.588,1.215,-1.643,0.29100000000000004,-0.31,-0.11599999999999999,-1.5619999999999998,-0.47100000000000003,-24.6,-25.1,20.9,85.3,-77.4,-54.6,0.03705532285513486,9.905374263664596,-0.7144148653123092,0.19
0.927,9.524,-0.019,1.412,9.641,1.1059999999999999,-0.5,-0.006999999999999999,-1.166,0.013999999999999999,-1.274,-0.24,-19.6,-26.5,22.7,95.3,-79.1,-51.5,0.9264605554415983,9.383309116517719,-1.6313941470675566,0.19
0.996,10.226,0.804,1.37,9.677,0.8079999999999999,-0.47,0.604,0.17600000000000002,0.47,-0.47,0.11199999999999999,-16.1,-27.4,26.4,100.6,-80.4,-56.2,1.0072388088069353,10.213267378261204,-0.9402911475594798,0.19
1.429,10.857999999999999,-0.273,1.577,9.658999999999999,0.624,-0.154,1.197,-0.883,-0.43799999999999994,-0.804,0.327,-15.2,-25.8,27.8,90.5,-80.7,-67.3,1.4259421076247292,10.6556610198775,-2.106255287273107,0.19
1.264,9.307,2.033,1.8,9.591000000000001,0.97,-0.428,-0.359,1.228,-0.49700000000000005,-0.9179999999999999,0.10400000000000001,-13.8,-26.4,27.2,99.3,-78.3,-63.1,1.2982353018227664,9.512021063595903,0.43252096690108144,0.19
0.845,9.623,1.161,1.5830000000000002,9.628,0.981,-0.7070000000000001,-0.03,0.205,0.07400000000000001,-0.857,-0.358,-12.0,-26.8,27.1,107.8,-78.6,-58.4,0.8647534539740989,9.679184259253924,-0.4792374560183228,0.19
0.5770000000000001,9.437999999999999,1.621,1.328,9.672,0.924,-0.7979999999999999,-0.22,0.596,0.11900000000000001,-1.016,-0.39399999999999996,-7.4,-27.7,28.8,118.6,-80.1,-55.7,0.6030654593485222,9.574587067723261,0.002921357082705356,0.19
0.239,9.558,0.273,1.0759999999999998,9.719,0.746,-0.87,-0.26899999999999996,-0.504,0.132,-0.9009999999999999,-0.149,-4.3,-27.0,28.4,123.0,-82.0,-55.0,0.24253414583782482,9.466376722576047,-1.347554427239619,0.19
0.223,10.372,0.745,0.981,9.743,0.527,-0.7559999999999999,0.629,0.268,-0.11800000000000001,-0.981,0.057999999999999996,-1.6,-27.2,28.8,121.7,-83.2,-59.5,0.2298428977960826,10.34812512609917,-1.0230428226265875,0.19
1.286,10.401,2.258,1.085,9.726,0.624,0.22399999999999998,0.603,1.653,-0.336,-0.993,0.113,2.0,-27.2,28.7,127.5,-83.1,-61.6,1.3105148079393496,10.630575855646587,0.4544985319178976,0.19
1.432,8.821,2.339,1.1640000000000001,9.701,0.84,0.45,-0.758,1.204,0.201,-1.15,-0.105,3.8,-28.5,27.1,136.5,-81.8,-55.0,1.4661364242735853,9.085421420661055,0.7982152556870346,0.19
0.773,9.632,1.274,1.131,9.706,0.826,-0.358,-0.07400000000000001,0.44799999999999995,-0.102,-0.54,-0.105,8.2,-28.0,26.6,141.5,-81.8,-55.5,0.7912855640878173,9.707011726985153,-0.379235399506604,0.19
1.2830000000000001,8.981,1.784,1.145,9.684,1.0390000000000001,0.14800000000000002,-0.725,0.62,-0.23199999999999998,-0.318,-0.10400000000000001,8.6,-28.4,26.0,153.5,-81.2,-49.3,1.3151382991336364,9.149156292385065,0.22462500230979288,0.19
1.111,9.589,1.544,1.003,9.693,1.0959999999999999,0.149,-0.064,-0.018000000000000002,-0.075,0.084,-0.17300000000000001,10.6,-27.7,25.1,159.5,-81.1,-44.6,1.1403298342649688,9.708443998045258,-0.11375854211556113,0.19
0.733,9.951,0.934,0.795,9.715,1.077,-0.055,0.25,-0.153,0.14,0.473,-0.159,10.4,-28.3,25.4,166.3,-81.9,-37.3,0.7504260613338382,9.963553217744781,-0.7723431903231848,0.19
0.539,10.475,-0.38799999999999996,0.621,9.742,0.937,-0.076,0.6920000000000001,-1.28,0.035,0.902,0.05,9.4,-27.8,27.2,166.4,-83.1,-33.5,0.5325829561066252,10.256810233451228,-2.163536278834923,0.19
-0.32799999999999996,9.663,1.9509999999999998,0.537,9.724,1.149,-1.095,-0.135,1.274,0.025,0.975,0.09300000000000001,6.5,-28.1,27.2,167.5,-82.9,-28.5,-0.288811625722846,9.854742773921137,0.2969624634469066,0.19
-0.7709999999999999,9.847999999999999,3.263,0.33399999999999996,9.701,1.3980000000000001,-1.043,0.168,1.8559999999999999,0.033,0.9640000000000001,-0.036000000000000004,3.5,-28.9,27.9,173.1,-81.7,-16.0,-0.6911621403092918,10.260021895717548,1.5744712112958936,0.19
-0.005,8.955,1.6159999999999999,0.126,9.693,1.482,0.013000000000000001,-0.7190000000000001,0.07,0.037000000000000005,0.547,0.083,1.8,-28.0,28.6,177.7,-81.4,-6.6,0.03679612939590343,9.099173829809244,0.0847800670914034,0.19
-0.285,10.046,3.33,0.027000000000000003,9.676,1.5930000000000002,-0.312,0.37,1.7369999999999999,0.021,0.35700000000000004,-0.18100000000000002,-0.2,-28.4,28.3,177.9,-80.7,-2.4,-0.19231743448704117,10.463895305678612,1.6006717452961474,0.19
-0.44299999999999995,9.996,1.611,-0.079,9.7,1.44,-0.33299999999999996,0.31,0.29100000000000004,0.43,-0.109,0.005,-0.9,-27.1,29.5,180.2,-81.1,2.2,-0.40237549462631783,10.126318269782756,-0.08578030303169082,0.19
0.175,8.95,1.393,0.084,9.722999999999999,1.2770000000000001,0.069,-0.7609999999999999,0.153,0.03,-0.514,0.201,0.7,-26.9,29.2,179.2,-82.4,1.1,0.2060009606001909,9.055979773571627,-0.1427163091359327,0.19
-0.084,10.288,0.14400000000000002,0.223,9.728,1.222,-0.263,0.563,-1.169,-0.31,-0.767,0.049,0.7,-27.5,29.7,173.0,-82.9,-9.7,-0.08090990627468583,10.164697850926256,-1.5947122581963673,0.19
-0.065,9.821,2.162,0.35700000000000004,9.676,1.5530000000000002,-0.371,0.035,0.42,-0.63,-0.72,-0.083,2.3,-27.5,28.3,173.6,-81.6,-13.3,-0.006382343863742784,10.044830034869141,0.48151722324087487,0.19
0.314,10.434000000000001,0.893,0.54,9.618,1.838,-0.095,0.972,-1.22,-0.518,0.405,0.071,3.7,-28.4,26.5,173.8,-79.0,-16.1,0.34248023111579823,10.43477708951385,-0.8732327200991454,0.19
1.219,9.57,1.235,0.573,9.61,1.8659999999999999,0.596,0.10800000000000001,-0.8009999999999999,-0.252,-0.051,0.113,3.6,-30.5,25.3,173.7,-78.7,-16.3,1.2585677761372283,9.635139532976398,-0.41973721891723037,0.19
1.3719999999999999,9.607999999999999,1.2229999999999999,0.629,9.624,1.775,0.7929999999999999,-0.157,-0.467,0.175,0.012,-0.009000000000000001,3.3,-29.6,25.0,170.3,-78.6,-18.6,1.409223673542968,9.670038292267686,-0.44297298337789615,0.19
1.2790000000000001,9.635,1.8359999999999999,1.0170000000000001,9.616,1.635,0.243,0.06,0.218,-0.022000000000000002,0.131,-0.034,2.8,-29.8,25.7,160.5,-78.8,-30.5,1.3308645358780589,9.80009491988933,0.16401569528984172,0.19
1.226,9.318999999999999,1.635,1.0290000000000001,9.606,1.682,0.14800000000000002,-0.221,0.037000000000000005,-0.132,0.03,0.07200000000000001,3.1,-30.7,26.5,159.2,-78.6,-31.8,1.2734626567429654,9.455047406648239,0.020818259185916288,0.19
0.898,8.878,2.181,0.975,9.59,1.8019999999999998,-0.11599999999999999,-0.7170000000000001,0.151,-0.11800000000000001,0.096,-0.033,2.0,-30.8,26.3,159.2,-78.2,-29.8,0.9661388942624967,9.112394364910006,0.642567953876952,0.19
2.131,11.069,-0.6779999999999999,1.01,9.582,1.824,1.136,1.321,-2.71,-0.35700000000000004,0.013000000000000001,0.134,2.2,-30.5,25.9,161.4,-77.7,-27.3,2.108339892268379,10.790476664215031,-2.5776194943592095,0.19
-1.202,10.152000000000001,4.147,0.9620000000000001,9.491,2.273,-2.171,0.6970000000000001,1.73,0.013000000000000001,0.33,-0.039,2.0,-31.1,23.6,164.7,-75.6,-24.5,-1.0365803182756403,10.704167426434063,2.460044298510004,0.19
1.743,9.611,-0.297,0.757,9.526,2.202,0.981,0.094,-2.707,-0.192,0.21600000000000003,-0.109,1.0,-32.7,25.1,166.1,-76.0,-20.0,1.7303013817470476,9.41827087021524,-1.949310119908923,0.19
-1.173,11.107000000000001,2.6430000000000002,0.418,9.565,2.121,-1.419,1.4409999999999998,0.36,0.225,0.272,0.037000000000000005,1.1,-33.1,24.2,173.1,-77.3,-11.2,-1.0743789553699903,11.398678165531688,0.8016688461511277,0.19
1.07,9.615,0.247,0.435,9.64,1.7480000000000002,0.626,-0.07200000000000001,-1.443,0.213,0.298,0.14800000000000002,0.4,-32.0,26.2,169.5,-79.0,-12.9,1.0770364798129501,9.515107077984245,-1.3988794500049915,0.19
0.34700000000000003,8.982999999999999,1.5830000000000002,0.524,9.677999999999999,1.494,-0.085,-0.58,-0.08199999999999999,0.077,0.03,0.113,-0.9,-31.8,26.9,164.5,-80.1,-16.3,0.3881544530371066,9.119662923284404,0.040881368118449,0.19
0.711,9.122,-0.077,0.601,9.69,1.381,0.127,-0.659,-1.465,0.0,-0.004,0.012,-1.1,-31.5,26.2,158.4,-81.1,-23.1,0.7089377286446875,8.976014154568624,-1.6281619065338133,0.19
0.46399999999999997,9.879,1.504,0.653,9.702,1.273,-0.198,0.16699999999999998,0.267,-0.187,0.006,0.062,-1.4,-31.3,25.6,153.4,-81.7,-26.4,0.49729867918684423,9.989366469635453,-0.1928848335197224,0.19
0.745,10.152000000000001,1.5319999999999998,0.7340000000000001,9.685,1.3530000000000002,-0.015,0.44,0.174,0.046,-0.18600000000000003,0.12300000000000001,-1.7,-31.1,26.0,154.9,-81.2,-27.1,0.7809660585345206,10.262008227994732,-0.2154811917209456,0.19
1.484,10.568,1.551,0.8540000000000001,9.689,1.251,0.262,0.7240000000000001,0.904,0.158,-0.45799999999999996,0.094,-0.8,-30.4,25.2,149.9,-81.0,-30.8,1.5175082474452557,10.672774400365249,-0.2820218393029299,0.19
1.599,10.177999999999999,1.238,0.929,9.695,1.151,0.35700000000000004,0.586,0.513,0.027000000000000003,-0.664,0.11199999999999999,0.1,-31.6,22.6,148.5,-81.3,-37.6,1.623545564073378,10.23567170414549,-0.5255982936930004,0.19
1.147,9.649,1.774,0.927,9.684,1.237,-0.39,-0.222,1.9140000000000001,0.402,-0.517,-0.22,1.4,-30.9,25.1,147.4,-80.7,-38.2,1.1850299019752832,9.805683463497564,0.10080647357607919,0.19
0.536,9.503,2.303,0.795,9.704,1.172,-0.237,-0.184,1.213,0.07400000000000001,-0.24,-0.133,2.3,-30.8,24.8,153.6,-81.6,-35.3,0.5829930640722588,9.75328867424397,0.6569574751138356,0.19
1.003,9.225,1.578,0.835,9.705,1.137,0.168,-0.48,0.441,-0.04,-0.183,0.126,4.1,-30.1,25.2,157.4,-81.9,-34.7,1.0341149269130268,9.355583334786335,-0.019615906909096648,0.19
0.733,9.24,1.123,0.8590000000000001,9.705,1.117,-0.18899999999999997,-0.401,-0.02,0.024,0.052000000000000005,0.0,3.3,-30.1,25.8,153.1,-81.7,-37.6,0.7547525850869943,9.294629519766703,-0.4650038984630964,0.19
0.833,10.556,0.321,0.794,9.722000000000001,1.0090000000000001,-0.152,0.9540000000000001,-0.532,0.11800000000000001,0.384,-0.19399999999999998,3.4,-30.1,25.2,153.4,-81.8,-37.2,0.8385234757804263,10.456123126516031,-1.4806868486286082,0.19
1.295,10.432,0.9670000000000001,0.7140000000000001,9.74,0.8859999999999999,0.529,0.9620000000000001,0.32,0.027000000000000003,-0.04,-0.040999999999999995,3.4,-29.4,26.5,153.1,-83.0,-38.1,1.3097978987875907,10.4418162923992,-0.8316489524542592,0.19
0.125,10.317,1.6380000000000001,0.595,9.754,0.8270000000000001,-0.47,0.563,0.8109999999999999,-0.044000000000000004,0.162,-0.042,3.5,-28.8,27.9,151.6,-84.0,-37.3,0.1486288522055031,10.445032472626869,-0.13551424302377146,0.19
0.488,9.607999999999999,0.8,0.496,9.76,0.82,-0.08199999999999999,-0.17300000000000001,0.223,0.23600000000000002,-0.092,0.105,2.6,-28.9,26.8,156.3,-84.2,-32.4,0.49939899752190586,9.603357830112811,-0.8473057465195446,0.19
0.23,9.084,2.4330000000000003,0.588,9.729,1.084,-0.363,-0.652,1.3630000000000002,-0.22899999999999998,-0.20199999999999999,0.046,3.4,-27.6,27.4,159.0,-83.1,-29.7,0.27598693651021033,9.363694115457776,0.8582008640272709,0.19
0.623,9.193999999999999,0.091,0.514,9.732000000000001,1.0959999999999999,0.10800000000000001,-0.5379999999999999,-1.005,0.063,-0.382,-0.23,3.8,-29.0,26.5,162.0,-82.7,-26.7,0.6246266381744503,9.075056444326709,-1.476224269942456,0.19
-0.773,10.58,3.467,0.311,9.734,1.149,-1.1320000000000001,0.9440000000000001,2.385,-0.051,-0.429,0.044000000000000004,5.2,-28.7,27.7,172.6,-83.1,-18.8,-0.7033225625293569,11.016366567220985,1.6428703630088608,0.19
0.47600000000000003,10.214,1.245,0.382,9.706,1.3459999999999999,0.344,0.45,-0.601,0.013999999999999999,-0.826,0.078,6.5,-28.6,26.2,180.3,-81.9,-14.7,0.5051136848344266,10.27574972295555,-0.5061865234988985,0.19
-0.39,9.22,3.656,0.43799999999999994,9.66,1.632,-0.948,-0.27899999999999997,1.82,-0.06,-0.605,-0.136,8.1,-29.5,26.2,181.3,-80.2,-15.6,-0.28571916286540605,9.704364537167269,2.066521107983612,0.19
0.9670000000000001,9.591000000000001,1.068,0.57,9.673,1.508,0.584,-0.158,-0.45899999999999996,0.10099999999999999,-0.114,0.005,9.2,-29.5,25.0,180.9,-80.4,-18.8,0.994771151558568,9.629754879926011,-0.5841620567685051,0.19
1.226,9.321,1.238,0.7759999999999999,9.652999999999999,1.548,0.465,-0.332,-0.21600000000000003,-0.132,0.332,0.196,9.4,-29.5,25.8,178.0,-80.5,-24.1,1.258996417735262,9.390986666551816,-0.37557748704601246,0.19
1.1320000000000001,9.596,2.0540000000000003,0.813,9.636000000000001,1.6269999999999998,0.28800000000000003,-0.031,0.504,-0.022000000000000002,0.732,0.04,7.8,-29.7,25.0,172.1,-79.4,-27.1,1.1898622414468314,9.798907498267397,0.38625857502213745,0.19
0.6579999999999999,9.888,1.425,0.718,9.65,1.5919999999999999,-0.081,0.289,-0.204,0.096,1.04,0.11699999999999999,6.1,-29.5,25.9,170.3,-79.7,-24.5,0.6973354761399613,9.983800990752629,-0.27124529629739746,0.19
-1.662,9.199,2.9930000000000003,0.602,9.615,1.831,-2.295,-0.364,1.469,-0.361,1.318,0.24,3.1,-29.5,24.8,169.7,-79.5,-21.4,-1.5655204151746351,9.578301609117759,1.4653252589249917,0.19
-0.541,10.243,2.782,0.457,9.597999999999999,1.9580000000000002,-0.747,0.57,0.5589999999999999,0.055,1.528,0.094,-0.8,-30.1,24.4,167.6,-78.2,-15.4,-0.4456317876775571,10.56628314890836,1.0518206724088135,0.19
-0.831,9.381,1.1540000000000001,0.217,9.633,1.8230000000000002,-1.125,-0.257,-0.688,0.275,1.825,0.309,-6.0,-29.9,26.4,162.7,-78.9,-7.7,-0.7938683607530527,9.446158582958502,-0.4065698604111172,0.19
-0.40700000000000003,9.398,2.5140000000000002,0.175,9.622,1.885,-0.632,-0.177,0.693,0.106,1.7409999999999999,0.32,-11.5,-28.9,24.2,156.8,-78.9,-5.8,-0.32408540728690505,9.688007051302176,0.9196396156663624,0.19
0.225,9.735,2.665,0.114,9.649,1.746,0.111,0.086,0.919,0.294,1.6869999999999998,0.284,-16.6,-28.2,23.0,149.0,-79.3,-4.3,0.30609474397187086,10.042608874953315,0.9876173309646175,0.19
-0.335,10.262,1.676,0.106,9.673,1.608,-0.41,0.55,0.066,0.10400000000000001,1.5219999999999998,0.353,-19.7,-27.8,20.9,138.8,-80.4,-3.4,-0.28783747042917246,10.399180948973038,-0.0634837076196324,0.19
0.053,9.575,1.994,0.073,9.689,1.51,-0.021,-0.115,0.485,0.33299999999999996,1.415,0.11,-24.3,-26.9,17.9,128.6,-80.7,-4.5,0.10552635129664317,9.77365917665269,0.3520234194122178,0.19
0.919,9.211,4.154,0.037000000000000005,9.676,1.595,0.9490000000000001,-0.33299999999999996,2.293,0.061,1.149,0.102,-26.2,-25.6,13.9,123.3,-81.1,-1.3,1.0342681039821477,9.773583912503028,2.5199494031323626,0.19
1.805,9.982000000000001,-1.109,-0.053,9.732000000000001,1.208,1.858,0.25,-2.316,0.40399999999999997,1.179,0.195,-28.8,-25.3,10.6,119.1,-82.4,3.1,1.7812188726192848,9.64449492102406,-2.8176598528150962,0.19
-0.742,9.898,1.992,0.032,9.742,1.124,-0.8029999999999999,0.187,0.885,0.079,1.905,0.363,-29.4,-24.7,7.6,110.0,-83.4,-0.5,-0.7027816546021158,10.094735998960642,0.3023823031243953,0.19
0.335,9.163,0.512,0.179,9.748,1.055,0.151,-0.5710000000000001,-0.5489999999999999,0.102,2.0069999999999997,0.379,-31.7,-24.0,2.4,94.5,-83.5,-5.9,0.34437025302131524,9.116334539800487,-1.052991779300624,0.19
0.7879999999999999,9.326,2.193,0.415,9.728,1.169,0.373,-0.402,1.024,-0.174,2.0340000000000003,0.45399999999999996,-34.7,-22.1,-3.0,71.0,-83.1,-18.4,0.8325764642558413,9.559661577971589,0.5693469467916685,0.19
0.711,9.556000000000001,2.342,0.506,9.693999999999999,1.395,0.22,-0.145,1.0490000000000002,0.021,1.885,0.265,-34.3,-20.7,-10.1,57.9,-81.5,-20.3,0.7678051406775634,9.810879812624835,0.6817136995686637,0.19
1.841,9.129,2.2840000000000003,0.519,9.685,1.4480000000000002,1.349,-0.57,0.6970000000000001,0.033,1.8259999999999998,0.22899999999999998,-30.8,-20.2,-21.2,44.7,-81.3,-19.6,1.898128082292382,9.375180650084934,0.6690856159611349,0.19
0.7040000000000001,11.1,1.429,0.301,9.717,1.291,0.40299999999999997,1.383,0.138,0.032,2.077,0.11900000000000001,-29.3,-19.9,-22.6,39.6,-81.7,-16.0,0.7360171010374912,11.179203996883686,-0.4809717486923353,0.19
-0.6579999999999999,10.073,3.199,0.184,9.698,1.4469999999999998,-0.703,0.37799999999999995,1.429,0.385,2.129,0.276,-24.1,-19.8,-29.6,33.3,-81.3,-8.1,-0.5770082537677133,10.470565041629115,1.4718094931404044,0.19
-0.637,9.149,2.7939999999999996,0.124,9.687999999999999,1.5190000000000001,-0.807,-0.517,1.3969999999999998,0.276,2.167,0.369,-17.6,-19.6,-32.8,25.6,-81.1,-5.4,-0.5627115220017308,9.491382670488147,1.2302100411571113,0.19
-2.0780000000000003,8.883,2.995,-0.109,9.671,1.624,-1.828,-0.644,1.153,-0.204,2.5069999999999997,0.273,-9.7,-19.5,-35.0,19.2,-80.8,1.5,-1.99228594174834,9.269582921022996,1.51704554862097,0.19
-1.535,9.716000000000001,2.7510000000000003,-0.659,9.616,1.805,-0.866,0.133,1.085,-0.094,2.616,0.151,-1.1,-19.6,-36.5,21.4,-79.1,14.2,-1.4475873694718575,10.046871463573343,1.1356701115117895,0.19
-0.986,9.287,3.5389999999999997,-0.8640000000000001,9.591000000000001,1.854,-0.12300000000000001,-0.304,1.685,-0.05,2.178,0.505,8.0,-20.0,-35.2,14.2,-78.1,25.1,-0.8709873822427597,9.751841255784054,1.9718161937569163,0.19
-0.28300000000000003,9.529,2.322,-0.772,9.592,1.8880000000000001,0.49,-0.063,0.434,-0.102,1.895,0.465,13.8,-20.5,-32.7,359.8,-78.0,22.8,-0.2063460657946751,9.784039008283166,0.7096590628776607,0.19
0.17,9.891,2.231,-0.6809999999999999,9.592,1.925,1.156,0.294,0.19699999999999998,-0.207,1.443,0.39299999999999996,19.7,-20.4,-30.2,344.7,-78.1,20.4,0.2448462113369955,10.123309640228896,0.5447882715721684,0.19
0.139,9.211,2.425,-0.657,9.575,2.0140000000000002,0.9079999999999999,-0.264,0.45,0.054000000000000006,1.186,0.207,23.2,-21.5,-27.7,335.2,-77.4,18.2,0.22413762720785946,9.4849880970111,0.8527778864554447,0.19
2.5810000000000004,10.283,0.43799999999999994,-0.447,9.636000000000001,1.766,2.92,0.607,-1.321,0.07400000000000001,1.416,0.182,27.2,-21.8,-23.5,321.5,-79.0,15.9,2.593272215313298,10.197884760894064,-1.3680568777681197,0.19
0.239,9.8,3.551,-0.183,9.609,1.95,0.423,0.191,1.6,-0.258,1.41,0.48100000000000004,30.1,-22.0,-18.9,306.0,-79.1,8.9,0.3596927688654284,10.25354947640791,1.8552806383081302,0.19
1.733,9.017000000000001,2.428,0.129,9.557,2.197,1.5630000000000002,-0.47700000000000004,0.17800000000000002,0.062,1.3659999999999999,0.289,32.2,-23.4,-13.8,282.7,-77.2,-2.3,1.8248047181020726,9.28364359271349,0.8299466153086039,0.19
0.797,9.328,3.5869999999999997,0.247,9.519,2.343,0.6579999999999999,-0.22,0.9179999999999999,-0.215,1.597,0.368,33.1,-24.2,-9.1,270.0,-76.5,-5.6,0.9429763099928246,9.786875825620498,1.9599028681741832,0.19
1.492,9.182,2.969,0.285,9.481,2.491,1.237,-0.284,0.614,-0.126,1.953,0.413,32.5,-25.7,-2.2,261.9,-75.7,-6.5,1.6196302389761983,9.53448820120125,1.3492522485243663,0.19
-2.5,9.718,3.821,-0.032,9.435,2.673,-2.568,0.271,1.251,-0.297,2.385,0.298,32.6,-27.3,4.4,250.6,-74.5,-1.0,-2.319084704153571,10.231339048204898,2.287162524972504,0.19
-0.225,8.854,1.2790000000000001,-0.25,9.402999999999999,2.7739999999999996,0.08,-0.132,-1.761,-0.46299999999999997,2.336,0.529,29.3,-28.2,10.8,241.9,-73.5,5.1,-0.1628371684027543,8.945528348037206,-0.17546689445390573,0.19
-0.8690000000000001,8.952,3.2319999999999998,-0.607,9.299,3.054,-0.262,-0.392,0.25,-0.316,2.01,0.525,24.6,-30.1,15.8,235.9,-72.0,9.8,-0.6955740929811778,9.36334502231392,1.7841624573683124,0.19
-0.419,9.254,2.028,-0.882,9.254,3.123,0.49200000000000005,0.043,-1.207,0.002,1.742,0.21600000000000003,19.4,-30.4,18.7,226.5,-70.7,13.3,-0.30789296343776434,9.462872709933645,0.5330131317881337,0.19
-0.685,9.745,3.407,-1.151,9.225,3.123,0.39899999999999997,0.499,0.389,-0.28600000000000003,1.617,0.22899999999999998,15.7,-30.7,21.1,224.1,-70.6,18.4,-0.4983704562331487,10.170316369953959,1.8325367181588788,0.19
0.045,9.587,2.229,-1.2,9.229,3.091,1.176,0.434,-1.046,-0.16,1.126,0.396,12.7,-31.6,21.7,217.9,-70.1,21.2,0.16512663778872316,9.819477948994322,0.6569786927343024,0.19
0.603,9.472000000000001,1.999,-0.897,9.299,2.983,1.4669999999999999,0.37200000000000005,-1.012,-0.07200000000000001,0.654,0.40399999999999997,8.4,-32.2,22.9,209.8,-71.0,18.9,0.7062102599510013,9.665027446317339,0.4085407331864084,0.19
-0.239,9.826,3.29,-0.565,9.343,2.926,0.474,0.39899999999999997,0.14400000000000002,0.051,0.171,0.397,6.4,-32.9,22.4,200.5,-72.1,13.7,-0.07074654420190477,10.231047299722997,1.658964459328256,0.19
0.048,10.450999999999999,1.614,-0.322,9.465,2.5469999999999997,0.41600000000000004,0.948,-0.998,0.326,0.057999999999999996,0.19,4.9,-33.2,23.2,195.0,-74.2,7.9,0.11967699079198194,10.573523975047422,-0.13026575517884287,0.19
0.184,10.497,1.472,-0.05,9.568999999999999,2.147,0.23399999999999999,0.9279999999999999,-0.674,0.353,-0.271,0.247,4.3,-32.1,24.1,189.7,-76.8,2.9,0.23901705381133753,10.594326614306945,-0.3012697086911684,0.19
0.445,10.485,1.944,0.261,9.626,1.857,0.193,1.122,0.379,0.192,-0.49700000000000005,0.159,3.8,-31.3,24.5,182.6,-78.7,-6.3,0.5077618156787508,10.659860111822539,0.1481429543157482,0.19
-0.5720000000000001,9.168,3.7969999999999997,0.423,9.644,1.7269999999999999,-1.093,-0.67,2.135,0.488,-0.531,-0.003,6.0,-30.4,24.4,180.6,-79.3,-13.3,-0.45730890798525786,9.677129786387017,2.222756095503617,0.19
2.035,9.575,0.625,0.46,9.705,1.3319999999999999,1.4580000000000002,-0.063,-0.604,0.289,-0.076,-0.146,7.8,-29.5,24.8,179.6,-81.0,-16.8,2.04897867019959,9.535326512908318,-1.0448491284844965,0.19
0.46399999999999997,9.046,2.65,0.529,9.699,1.349,0.0,-0.6559999999999999,1.62,-0.17600000000000002,-0.125,0.098,8.3,-28.4,25.7,176.4,-81.8,-21.2,0.5262585633799657,9.361187458149535,1.0766305298723058,0.19
1.135,8.888,0.6609999999999999,0.593,9.693999999999999,1.358,0.544,-0.8109999999999999,-0.69,0.017,-0.12,0.016,7.7,-29.7,25.6,176.1,-81.4,-22.2,1.1503464918172366,8.867831749285752,-0.8717528406167434,0.19
0.929,9.726,0.872,0.5760000000000001,9.706,1.278,0.34600000000000003,0.034,-0.41600000000000004,-0.046,0.154,0.022000000000000002,7.7,-28.4,25.9,172.2,-81.5,-24.0,0.9482175321803268,9.730263175398745,-0.8008514526084232,0.19
0.34,9.9,1.535,0.5670000000000001,9.715,1.209,-0.222,0.185,0.317,0.254,0.341,0.026000000000000002,8.3,-28.6,23.9,174.6,-82.0,-24.6,0.3723120020065712,10.015786381850283,-0.16502098746613703,0.19
-0.151,10.324000000000002,1.4080000000000001,0.49200000000000005,9.748,0.9540000000000001,-0.851,0.698,0.909,0.002,0.43799999999999994,-0.006,7.1,-28.4,26.0,169.9,-83.5,-27.7,-0.12753632122858088,10.413730043550565,-0.3580531620023293,0.19
-0.512,9.048,2.753,0.48700000000000004,9.731,1.112,-0.9420000000000001,-0.765,1.548,-0.027999999999999997,0.377,0.071,4.7,-28.3,27.5,166.4,-83.0,-25.2,-0.458476513325057,9.384730183091516,1.1933547994206792,0.19
-0.09300000000000001,9.706,0.929,0.281,9.735,1.1520000000000001,-0.353,-0.059000000000000004,-0.242,-0.061,0.366,-0.039,5.0,-28.0,28.6,173.4,-83.1,-17.4,-0.07430379976587789,9.723607443227543,-0.7239221196719208,0.19
0.419,8.976,1.4769999999999999,0.214,9.693999999999999,1.465,0.255,-0.718,0.129,-0.259,0.027000000000000003,-0.075,3.5,-28.4,27.8,175.6,-82.3,-11.4,0.456624463847966,9.094653917228712,-0.0665599342848,0.19
-0.5579999999999999,10.19,2.349,-0.04,9.679,1.578,-0.621,0.653,0.821,-0.005,-0.45899999999999996,-0.048,3.7,-28.9,27.9,187.4,-80.7,0.4,-0.49310203261742336,10.442313581076455,0.6166055950887881,0.19
-0.9390000000000001,9.745,1.3619999999999999,-0.001,9.667,1.65,-0.9640000000000001,0.10400000000000001,-0.235,-0.075,-0.6609999999999999,0.061,5.2,-28.3,27.2,190.1,-80.4,1.2,-0.8993932804716855,9.83977898940163,-0.26763999471786404,0.19
-0.20600000000000002,9.812000000000001,1.932,0.08199999999999999,9.655,1.716,-0.24,0.387,0.187,0.046,-0.848,-0.077,7.1,-28.6,26.4,190.7,-79.9,-2.5,-0.14805313166087608,9.997932873142785,0.2642395396912487,0.19
1.6230000000000002,9.951,0.7809999999999999,0.257,9.625,1.859,1.101,0.32,-0.87,-0.375,-1.3780000000000001,-0.021,8.8,-29.5,26.0,190.8,-79.3,-6.3,1.6474814246411802,9.932632074228524,-0.9461057200276373,0.19
1.52,10.228,2.667,0.501,9.565,2.106,1.041,0.6709999999999999,0.7909999999999999,0.044000000000000004,-1.273,-0.165,12.9,-29.2,22.8,192.5,-77.6,-11.5,1.6169812291927141,10.519392428572775,0.8735145322913691,0.19
0.745,9.929,1.4609999999999999,0.6890000000000001,9.566,2.044,0.055999999999999994,0.45799999999999996,-0.469,-0.022000000000000002,-0.909,0.033,15.2,-29.5,21.3,194.6,-77.3,-17.5,0.7966354353629239,10.02915947629102,-0.23647237099959262,0.19
1.168,9.5,1.156,0.92,9.573,1.9169999999999998,0.222,-0.07,-0.7440000000000001,0.162,-0.439,0.113,16.6,-30.7,19.6,193.9,-77.3,-22.8,1.2060165148885214,9.55335002394025,-0.4791528836362424,0.19
0.934,9.706,0.73,1.046,9.618,1.604,-0.07200000000000001,0.10099999999999999,-1.0270000000000001,0.059000000000000004,0.187,0.046,17.6,-29.3,18.8,189.4,-78.5,-32.1,0.9540677729321848,9.687119892426646,-0.9279843071971546,0.19
1.1520000000000001,9.017000000000001,1.5419999999999998,0.9740000000000001,9.631,1.5719999999999998,0.07,-0.499,-0.23399999999999999,0.225,0.48100000000000004,-0.22899999999999998,16.7,-29.0,19.6,188.3,-78.6,-33.4,1.1938683441582196,9.142507001105603,-0.02002776952073604,0.19
1.255,9.437999999999999,0.18,0.755,9.681000000000001,1.369,0.5,-0.248,-1.2009999999999998,0.18899999999999997,0.873,-0.027999999999999997,16.3,-28.9,21.2,186.9,-80.3,-29.3,1.2589422086464452,9.32881455371335,-1.4392889000177729,0.19
0.685,9.105,1.633,0.828,9.68,1.335,0.12300000000000001,-0.282,-0.44,-0.32,1.2429999999999999,0.316,14.4,-29.5,23.5,179.6,-80.8,-31.8,0.7228597773334162,9.247188319787128,0.06261725565689802,0.19
-0.10099999999999999,10.892000000000001,1.9780000000000002,0.9890000000000001,9.591000000000001,1.7919999999999998,-1.124,1.2670000000000001,0.198,-0.295,1.11,0.48100000000000004,10.2,-30.3,23.6,174.6,-78.4,-29.2,-0.03909614180303475,11.069681319190186,0.13775334212989687,0.19
-0.862,10.173,4.238,1.026,9.445,2.432,-1.821,0.693,1.724,-0.38,0.7,-0.295,7.4,-30.8,22.4,173.6,-75.8,-27.3,-0.681389645060295,10.735925810742538,2.5434665592133863,0.19
0.6629999999999999,9.316,0.716,0.611,9.538,2.1959999999999997,-0.14400000000000002,-0.2,-1.504,-0.005,0.425,0.21100000000000002,5.3,-31.4,23.6,176.8,-76.4,-15.8,0.6899488219781258,9.301560471093186,-0.8631479743634436,0.19
1.19,9.402000000000001,2.138,0.593,9.547,2.164,0.654,-0.111,0.324,-0.29100000000000004,0.442,0.132,3.7,-31.4,23.5,175.4,-77.1,-15.3,1.2698821370429487,9.618677085039332,0.5031883263337038,0.19
0.512,10.015,3.014,0.521,9.555,2.146,0.037000000000000005,0.446,0.904,0.449,0.179,-0.179,2.0,-31.1,23.9,172.3,-76.3,-14.6,0.6245032293223316,10.372832536224806,1.2887613790000254,0.19
0.9840000000000001,8.809,1.7,0.59,9.591000000000001,1.959,0.303,-0.665,-0.231,0.068,-0.23399999999999999,0.1,2.3,-30.3,25.2,172.4,-77.8,-14.0,1.0415382962611626,8.963343325152387,0.17438868331265156,0.19
-0.32299999999999995,9.41,1.52,0.595,9.597999999999999,1.92,-0.887,-0.04,-0.129,-0.11699999999999999,-0.271,-0.113,2.6,-30.5,23.9,171.5,-78.2,-17.7,-0.27189248346221273,9.533375741281416,-0.06041897867199042,0.19
1.271,9.259,0.077,0.444,9.603,1.936,-0.049,-0.134,-1.337,-0.332,-0.184,0.126,4.0,-31.1,24.4,175.8,-78.1,-14.7,1.2728757988772754,9.134931174037618,-1.511049518125818,0.19
0.764,10.875,2.061,0.455,9.552999999999999,2.167,0.309,1.077,0.067,-0.365,0.263,0.122,2.9,-32.0,25.0,175.7,-77.1,-12.3,0.8413847519490464,11.061195366743343,0.19766324373357036,0.19
0.888,10.133,3.8360000000000003,0.614,9.451,2.543,0.271,0.691,1.3619999999999999,0.004,-0.019,0.094,2.7,-32.2,23.2,174.0,-75.1,-12.9,1.0573256416965817,10.618255635216077,2.0774596873616913,0.19
1.496,8.476,1.942,0.731,9.468,2.448,0.713,-0.987,-0.526,-0.047,-0.27899999999999997,0.024,1.9,-33.7,23.8,172.7,-74.8,-14.7,1.5775827713445987,8.669186888936386,0.45649456103019737,0.19
2.09,10.058,1.3259999999999998,0.851,9.511000000000001,2.233,1.244,0.564,-0.983,-0.287,0.002,0.065,2.0,-32.6,24.2,168.5,-76.0,-19.8,2.1400783448211973,10.125223676189627,-0.4354884443431142,0.19
1.046,10.216000000000001,1.8030000000000002,0.873,9.527000000000001,2.154,0.12,0.7559999999999999,-0.3,0.223,-0.109,-0.064,1.8,-32.8,24.2,166.8,-75.9,-21.9,1.1130276629288638,10.366798920652702,0.047228808042413695,0.19
2.03,9.244,2.131,0.953,9.575,1.89,1.044,-0.276,0.325,0.35200000000000004,-0.188,-0.094,2.3,-32.8,24.0,163.6,-77.2,-25.7,2.0991776424535113,9.45835719827642,0.4965172053775546,0.19
1.348,9.33,2.045,1.018,9.599,1.7280000000000002,0.332,-0.26899999999999996,0.321,0.062,-0.138,0.006,3.2,-32.2,25.0,161.3,-78.2,-30.0,1.4090534111296749,9.533443817856757,0.41957890360762584,0.19
1.35,9.139,0.915,1.1,9.594,1.7080000000000002,0.18600000000000003,-0.426,-0.612,-0.054000000000000006,0.008,0.1,3.9,-32.0,25.1,161.2,-78.1,-32.3,1.3766725321656226,9.15690219828339,-0.6610301583539832,0.19
1.281,9.606,2.421,1.202,9.583,1.7,0.19899999999999998,-0.08,0.598,0.11900000000000001,0.493,-0.043,4.1,-31.8,22.7,160.0,-77.9,-35.1,1.3522581880318603,9.868487837587487,0.7495222426910435,0.19
-0.385,9.988999999999999,4.0969999999999995,1.166,9.57,1.795,-0.943,0.44299999999999995,1.368,-0.299,0.81,0.192,0.4,-32.2,25.7,152.0,-77.9,-34.5,-0.25647849928110267,10.532792489493422,2.3891957125102694,0.19
0.895,9.594,1.496,1.28,9.522,1.9669999999999999,-0.877,0.414,-0.013000000000000001,0.02,-0.011000000000000001,0.462,-2.8,-31.9,25.0,151.6,-76.5,-31.4,0.9458211826602055,9.704065389971603,-0.14287826142048554,0.19
-0.28,9.716000000000001,1.068,1.082,9.533,2.031,-1.443,0.221,-0.925,-0.005,0.392,-0.068,-4.6,-31.7,25.0,148.8,-76.0,-30.5,-0.2419739385605866,9.760235501870383,-0.5467463407161408,0.19
-0.192,9.888,1.54,0.662,9.582,1.9780000000000002,-0.813,0.20600000000000002,-0.365,0.397,0.506,-0.252,-5.9,-32.4,24.5,151.4,-76.8,-22.1,-0.13873131101973513,10.00734358834802,-0.12180282464920711,0.19
0.716,9.742,1.956,0.5589999999999999,9.62,1.819,0.162,0.16,-0.011000000000000001,-0.017,0.325,0.125,-7.1,-31.4,24.8,153.1,-78.8,-16.8,0.7777269816318505,9.927915812271353,0.2770999214980576,0.19
0.941,9.366,1.3430000000000002,0.659,9.616,1.807,0.282,-0.25,-0.46399999999999997,0.073,-0.08800000000000001,0.068,-7.7,-30.5,23.3,151.4,-78.7,-18.4,0.9828807194613992,9.453674358364653,-0.27031947267944045,0.19
0.6559999999999999,9.917,1.161,0.73,9.625,1.73,-0.18899999999999997,0.321,-0.602,-0.02,-0.36200000000000004,0.19699999999999998,-5.9,-30.7,23.0,148.9,-78.9,-21.1,0.690751138582918,9.968118333742995,-0.5335032793181043,0.19
0.608,9.443,0.642,0.985,9.61,1.685,-0.384,-0.175,-1.036,-0.036000000000000004,-0.431,0.159,-5.0,-30.5,23.6,147.0,-78.6,-28.4,0.6266148309058088,9.414630619379672,-0.9613330090700298,0.19
0.242,10.195,1.082,1.147,9.616,1.547,-0.915,0.591,-0.47700000000000004,-0.044000000000000004,-0.39399999999999996,0.313,-4.0,-31.0,23.2,143.5,-78.7,-35.0,0.27112252123791136,10.231338847939467,-0.6430481763618461,0.19
1.544,10.398,1.166,1.382,9.593,1.496,-0.011000000000000001,0.88,-0.266,-0.094,-0.295,0.19399999999999998,-2.9,-30.4,24.5,140.2,-78.1,-41.5,1.573914687637396,10.440126690789757,-0.6232521450413042,0.19
1.214,9.975,3.0669999999999997,1.4680000000000002,9.58,1.494,-0.254,0.39399999999999996,1.5730000000000002,0.079,-0.201,0.037000000000000005,-2.7,-30.8,25.3,138.4,-77.6,-44.3,1.2935509822353293,10.340873625305731,1.331904096327622,0.19
1.796,9.222999999999999,3.034,1.413,9.587,1.505,0.428,-0.096,1.3419999999999999,0.07,0.033,-0.114,-0.8,-30.2,25.4,141.7,-77.7,-44.5,1.8750660162862671,9.59145759367402,1.4080375219862913,0.19
3.5989999999999998,8.914,1.2209999999999999,1.62,9.482999999999999,1.903,1.979,-0.569,-0.682,0.214,-0.031,-0.226,-1.3,-30.0,25.6,144.8,-75.1,-39.9,3.6375614590642487,8.973550318601655,-0.38285677616377045,0.19
1.9780000000000002,9.412,2.593,1.673,9.472000000000001,1.913,0.35700000000000004,0.055,0.601,-0.188,0.035,0.033,-0.6,-30.8,26.4,145.5,-75.2,-41.4,2.0634570174664613,9.699292767678097,0.9422005858286093,0.19
2.48,9.17,1.319,1.77,9.441,1.975,0.726,-0.265,-0.6990000000000001,0.005,-0.07200000000000001,0.015,-0.7,-30.5,25.0,148.2,-74.4,-41.0,2.5239840582314104,9.248002503334353,-0.2881235362049164,0.19
1.504,9.793,2.3819999999999997,1.89,9.427999999999999,1.9269999999999998,-0.307,0.33299999999999996,0.508,0.10400000000000001,0.099,-0.171,-0.2,-30.4,24.7,145.9,-73.8,-44.4,1.5832469929891537,10.04240421376402,0.6944318300347909,0.19
1.626,9.735,2.193,1.8019999999999998,9.443,1.935,0.107,0.158,0.008,0.11900000000000001,0.132,-0.107,-0.7,-30.6,25.7,145.9,-74.2,-43.7,1.699121030420403,9.953668613783211,0.5107042695828079,0.19
1.939,9.347000000000001,1.475,1.72,9.48,1.829,0.22899999999999998,-0.11800000000000001,-0.391,0.11,0.127,-0.08,0.2,-30.4,25.1,146.1,-75.0,-43.1,1.985089224478284,9.451970176398058,-0.14640886360424155,0.19
1.037,10.3,0.613,1.49,9.571,1.5319999999999998,-0.496,0.703,-0.8540000000000001,0.382,0.368,-0.16899999999999998,0.1,-29.5,25.9,144.7,-76.0,-43.9,1.0530180433796164,10.253904349519921,-1.135665703987501,0.19
0.168,10.171,1.298,1.339,9.623,1.329,-1.171,0.547,-0.031,0.386,0.475,0.08800000000000001,-0.5,-28.7,27.5,142.7,-78.2,-44.2,0.19805978346897757,10.244153801929333,-0.4246812976680723,0.19
0.247,9.558,1.982,1.379,9.616,1.345,-1.1320000000000001,-0.057999999999999996,0.637,0.145,0.461,0.166,-1.4,-28.1,28.3,138.8,-78.9,-46.2,0.2934545066292594,9.753726336267938,0.3512890686204728,0.19
0.33299999999999996,9.359,2.82,1.327,9.607000000000001,1.4509999999999998,-0.846,-0.126,1.157,-0.09300000000000001,0.466,0.026000000000000002,-2.9,-28.6,27.7,136.4,-78.8,-45.0,0.4043013507941206,9.696815650236196,1.2093290135775405,0.19
0.436,9.17,1.676,1.107,9.629,1.49,-0.628,-0.46399999999999997,0.16,0.027999999999999997,0.162,-0.033,-5.0,-29.0,27.2,139.0,-79.0,-37.6,0.47943274532109703,9.319158162417787,0.1068053676357823,0.19
0.14800000000000002,9.948,2.263,0.9540000000000001,9.641,1.5230000000000001,-0.805,0.308,0.7390000000000001,-0.156,0.019,-0.018000000000000002,-4.8,-28.3,27.1,141.5,-79.5,-34.3,0.20809428705427516,10.18570054917228,0.560337478923969,0.19
0.33799999999999997,9.74,1.9469999999999998,0.884,9.625,1.6569999999999998,-0.517,0.07200000000000001,0.311,0.019,-0.11900000000000001,-0.036000000000000004,-5.2,-28.8,26.8,143.1,-79.1,-30.5,0.39415828403411146,9.92665785410798,0.2806351628068968,0.19
0.345,9.718,2.016,0.715,9.647,1.6130000000000002,-0.315,0.115,0.341,0.0,-0.254,0.061,-5.6,-29.5,27.5,148.0,-79.3,-25.0,0.4016105791230993,9.916651863478299,0.3486111893052102,0.19
0.7709999999999999,9.939,1.5490000000000002,0.72,9.648,1.6019999999999999,-0.002,0.28300000000000003,0.052000000000000005,0.047,-0.287,0.046,-5.0,-28.4,27.6,151.1,-79.6,-23.5,0.8140033326438333,10.054312889721027,-0.16048018579987589,0.19
0.85,9.623,0.7879999999999999,0.778,9.621,1.73,0.07200000000000001,0.001,-0.9420000000000001,-0.262,-0.17800000000000002,0.006,-4.1,-27.7,27.6,152.0,-79.0,-24.5,0.8734019826209255,9.615000720788577,-0.8570315723408142,0.19
2.0380000000000003,9.606,0.7809999999999999,0.887,9.574,1.93,1.251,0.121,-1.19,-0.35100000000000003,-0.052000000000000005,0.07200000000000001,-2.9,-28.9,26.0,154.5,-77.9,-24.1,2.0631467880289303,9.590611336054364,-0.8956788106187468,0.19
1.1179999999999999,10.267000000000001,2.864,0.986,9.506,2.199,0.192,0.789,0.609,-0.47600000000000003,0.319,-0.022000000000000002,-3.1,-30.3,25.1,154.2,-76.4,-25.4,1.2270694716226105,10.591576009178258,1.084678364129841,0.19
2.315,9.122,1.9780000000000002,1.0759999999999998,9.458,2.359,1.232,-0.35200000000000004,-0.374,0.146,0.165,-0.026000000000000002,-3.3,-31.0,21.3,156.1,-74.7,-24.0,2.3944539994557124,9.307099059459418,0.3564970433259549,0.19
1.125,10.044,2.356,1.1179999999999999,9.507,2.131,0.013999999999999999,0.525,0.215,0.159,0.297,0.26,-4.3,-29.6,25.6,151.9,-75.7,-26.3,1.2118284384637072,10.288007563601413,0.6218273128536185,0.19
1.959,9.156,2.035,1.375,9.474,2.125,0.584,-0.319,-0.09,0.05,0.40299999999999997,0.28,-6.1,-29.6,25.2,144.9,-75.4,-30.6,2.033110126103806,9.353890100080681,0.4271360564817237,0.19
2.739,9.022,1.6780000000000002,1.466,9.467,2.095,1.167,-0.317,-0.569,0.263,0.401,-0.027000000000000003,-7.4,-29.6,25.2,138.7,-74.7,-34.1,2.798511051726376,9.158467961382682,0.07134068749539257,0.19
1.587,9.175,2.4330000000000003,1.4380000000000002,9.485,2.036,0.496,0.073,0.027999999999999997,-0.201,0.32299999999999995,-0.08800000000000001,-9.0,-28.8,26.6,135.5,-75.4,-35.7,1.672436392204601,9.440954906002448,0.8306683916329125,0.19
0.539,8.847000000000001,2.682,1.298,9.459,2.239,-0.76,-0.612,0.44299999999999995,-0.08800000000000001,0.109,-0.128,-9.8,-29.6,25.7,138.5,-74.9,-32.4,0.6433688616340981,9.163678981458334,1.168810520425963,0.19
1.755,11.081,0.589,1.288,9.482999999999999,2.14,0.5770000000000001,1.416,-1.594,-0.159,-0.013999999999999999,0.1,-9.5,-29.5,25.6,140.1,-75.0,-29.7,1.7757700779586056,11.015748741828439,-1.309743214195847,0.19
0.10800000000000001,9.912,1.714,1.2990000000000002,9.41,2.436,-1.1909999999999998,0.502,-0.722,-0.10099999999999999,-0.15,-0.055,-10.6,-29.9,23.8,137.6,-73.9,-29.1,0.18075328341329167,10.057852639520352,0.06428477447126757,0.19
1.824,8.883,0.7829999999999999,1.095,9.492,2.208,0.71,-0.5489999999999999,-1.401,0.121,0.017,-0.364,-10.0,-30.1,23.9,140.8,-74.5,-27.3,1.852812678043528,8.878819286039246,-0.7625006661890256,0.19
0.555,10.015,3.0,0.8759999999999999,9.525,2.164,-0.21,0.51,0.39799999999999996,-0.33899999999999997,-0.19399999999999998,-0.19699999999999998,-8.4,-30.6,24.8,144.4,-76.4,-24.3,0.6678840822270063,10.369540107031607,1.2786003368413155,0.19
0.508,9.117,1.068,0.777,9.505,2.286,-0.239,-0.478,-1.036,-0.027999999999999997,-0.5760000000000001,-0.282,-7.7,-31.4,24.1,150.2,-75.7,-19.4,0.5501957386882329,9.164710765973329,-0.47300975167737436,0.19
0.467,9.333,1.808,0.736,9.471,2.434,-0.29100000000000004,-0.16699999999999998,-0.456,-0.429,-0.627,-0.059000000000000004,-5.5,-31.9,24.6,155.8,-75.6,-17.1,0.5433618235497867,9.49975362536846,0.22645305475407063,0.19
1.065,9.012,3.359,0.863,9.382,2.721,0.22399999999999998,-0.377,-0.001,-0.568,-0.474,0.002,-4.7,-32.8,23.6,158.2,-74.1,-17.0,1.2232596533349538,9.430162029867791,1.791348629095587,0.19
1.6880000000000002,9.994,2.5140000000000002,0.894,9.311,2.945,0.732,0.69,-0.32299999999999995,-0.46799999999999997,-0.057999999999999996,-0.009000000000000001,-2.6,-33.4,22.8,162.3,-72.2,-17.1,1.8149333089655417,10.254505437793116,0.7750556820505241,0.19
1.061,9.613,3.8139999999999996,1.031,9.175,3.304,0.077,0.41100000000000003,0.447,-0.11900000000000001,-0.235,0.179,-3.1,-34.6,20.5,163.5,-69.8,-16.5,1.279051517767292,10.087393643597746,2.16577992741668,0.19
1.128,10.033999999999999,3.2560000000000002,1.1540000000000001,9.177,3.258,-0.027000000000000003,0.857,-0.002,0.293,-0.038,-0.045,-2.2,-34.2,20.5,162.2,-69.0,-18.8,1.3112225487244829,10.413788103086016,1.545570694514036,0.19
1.4680000000000002,9.302,2.461,1.2329999999999999,9.258,2.989,0.235,0.043,-0.528,0.311,0.07,0.13,-2.9,-34.1,20.6,159.8,-70.5,-21.7,1.5943298887593638,9.563904334013817,0.8535778204945723,0.19
1.355,9.304,1.841,1.261,9.354,2.662,0.19699999999999998,-0.019,-0.804,0.268,0.27,0.138,-3.2,-34.2,22.3,157.5,-71.9,-24.2,1.439041166205952,9.468957842033948,0.24024967793610696,0.19
1.8,9.562999999999999,2.088,1.25,9.408999999999999,2.464,0.608,0.11,-0.365,0.294,0.37,-0.077,-4.6,-32.3,23.0,150.9,-73.3,-26.8,1.8881023957639742,9.762725762214897,0.41829180591532045,0.19
1.736,9.902999999999999,1.535,1.183,9.48,2.2159999999999997,0.7040000000000001,0.318,-0.731,0.386,0.40399999999999997,-0.154,-4.7,-31.7,23.7,151.8,-74.4,-27.6,1.7940553913762993,10.009330939316273,-0.18436214340162294,0.19
1.425,9.632,2.8989999999999996,1.1440000000000001,9.54,1.96,0.317,0.075,0.925,0.20600000000000002,0.292,0.002,-5.5,-31.5,24.6,146.9,-76.5,-30.0,1.523317308087946,9.9709011849094,1.2128000410834496,0.19
0.39299999999999996,9.591000000000001,3.127,1.1159999999999999,9.581,1.767,-0.649,0.044000000000000004,1.365,0.289,0.256,0.11199999999999999,-6.5,-31.3,25.3,141.2,-77.6,-31.8,0.48923445753471406,9.975416934695419,1.4736232980489388,0.19
1.204,9.582,1.757,1.2009999999999998,9.59,1.66,0.003,-0.008,0.09699999999999999,-0.008,0.098,0.141,-7.3,-30.4,25.7,138.3,-78.1,-34.9,1.2543922363957931,9.734869715901034,0.10099867178771693,0.19
1.204,9.172,1.7380000000000002,1.22,9.575,1.733,-0.016,-0.402,0.005,0.11599999999999999,-0.124,-0.114,-7.0,-30.7,25.9,139.8,-77.5,-35.5,1.2560098210021995,9.327129711035845,0.1514420121975426,0.19
1.161,9.39,1.051,1.137,9.618,1.54,0.156,-0.259,-0.6709999999999999,0.10800000000000001,-0.254,-0.081,-6.7,-29.2,25.9,136.9,-78.6,-36.0,1.1888261168759204,9.428333273966722,-0.5637784483693042,0.19
1.2930000000000001,9.479,1.228,1.1740000000000002,9.625,1.464,0.11900000000000001,-0.146,-0.23600000000000002,-0.128,-0.43200000000000005,-0.017,-4.9,-30.1,26.5,136.9,-79.1,-38.0,1.323951921172319,9.545295692875793,-0.4071307480293511,0.19
0.7709999999999999,11.165,1.329,1.19,9.636000000000001,1.3769999999999998,-0.364,1.49,-0.094,0.09300000000000001,-0.58,-0.024,-3.7,-28.9,25.9,139.2,-79.1,-39.5,0.8027143883778044,11.226767009629775,-0.5772859968678958,0.19
0.474,10.681,2.399,1.341,9.647,1.143,-0.879,1.048,1.2770000000000001,0.413,-0.6659999999999999,0.237,-2.5,-29.4,26.8,136.5,-79.5,-44.8,0.5217604540226818,10.930312956325604,0.5653872172225289,0.19
0.907,8.667,3.1319999999999997,1.5590000000000002,9.625,1.048,-0.6509999999999999,-0.958,2.084,-0.136,-0.506,0.13,-0.7,-29.2,26.5,129.8,-79.5,-56.3,0.9641326805714162,9.065802136963983,1.6219253335691683,0.19
3.4360000000000004,6.984,4.968,1.7109999999999999,9.587,1.155,1.358,-2.263,2.74,0.62,0.212,-0.395,-0.4,-29.8,26.3,133.7,-78.0,-55.7,3.535442834972414,7.702153330467149,3.6661770326344083,0.19
0.496,9.979,-0.321,1.597,9.632,0.919,-1.125,0.36200000000000004,-1.245,0.183,0.122,0.094,0.7,-27.8,27.4,128.5,-79.2,-59.9,0.49078771356784145,9.78328962441839,-1.9939582605857928,0.19
1.5730000000000002,9.431000000000001,-0.706,1.6440000000000001,9.621,0.9490000000000001,-0.157,-0.003,-1.8880000000000001,0.302,0.414,-0.217,1.0,-27.4,26.2,131.4,-78.4,-59.3,1.5610911656998123,9.176019504660553,-2.297865623238905,0.19
1.614,9.745,0.256,1.507,9.649,0.889,0.057,0.11699999999999999,-0.743,0.052000000000000005,0.746,-0.11599999999999999,-2.2,-26.9,29.6,125.5,-79.5,-60.3,1.617777654529032,9.64584409345239,-1.4057183876282449,0.19
1.59,9.287,1.056,1.411,9.649,1.04,0.141,-0.34700000000000003,0.064,-0.099,1.242,-0.095,-4.0,-27.5,28.9,123.8,-79.8,-57.4,1.6089049346300948,9.327749159323316,-0.544174174383661,0.19
-0.172,10.149,1.5590000000000002,1.175,9.649,1.295,-1.3430000000000002,0.35100000000000003,0.534,0.24,2.738,0.003,-8.2,-27.5,28.1,126.6,-79.5,-47.1,-0.13672251403861724,10.267314419847207,-0.16070954592861564,0.19
-0.603,9.764,2.028,0.8029999999999999,9.682,1.3359999999999999,-1.406,0.08199999999999999,0.6920000000000001,-0.155,2.501,0.263,-15.9,-26.7,25.3,120.1,-81.0,-34.1,-0.5555522530108077,9.968265257802196,0.3703220817995043,0.19
-1.07,10.085,2.2430000000000003,0.49,9.661,1.611,-1.659,0.5479999999999999,0.968,0.0,2.353,0.355,-21.0,-26.3,21.1,122.2,-80.2,-19.7,-1.0065183484987807,10.323289944994443,0.5475212559453475,0.19
0.057,9.448,2.605,0.20800000000000002,9.624,1.871,-0.151,-0.17600000000000002,0.7340000000000001,0.316,2.286,0.23800000000000002,-27.5,-24.1,14.6,119.5,-78.9,-9.6,0.14202109256700576,9.749994948933498,0.9855995662729127,0.19
0.239,9.862,1.903,0.049,9.666,1.6540000000000001,-0.009000000000000001,0.306,0.267,0.182,1.933,0.426,-29.7,-23.3,10.9,115.3,-79.7,-3.1,0.2938281360279386,10.040222663665523,0.21252738763635448,0.19
1.068,9.828,0.934,0.212,9.697000000000001,1.4469999999999998,0.693,0.184,-0.439,0.20199999999999999,1.594,0.312,-32.7,-22.7,3.8,95.8,-81.2,-7.1,1.091245019563365,9.840308372258713,-0.7616294677421808,0.19
0.508,9.378,0.883,0.366,9.7,1.393,0.129,-0.255,-0.5479999999999999,-0.016,1.182,0.325,-33.7,-21.4,0.5,81.9,-81.6,-13.3,0.5293156449942902,9.390578473966315,-0.7221480957841985,0.19
-0.136,9.562999999999999,3.278,0.503,9.681000000000001,1.48,-0.6659999999999999,-0.042,1.745,0.039,0.927,0.316,-34.5,-21.1,-4.0,71.4,-81.2,-17.3,-0.05129040870233459,9.97845965761542,1.625564872687852,0.19
1.891,9.338,1.484,0.574,9.689,1.4,0.784,-0.507,0.473,0.42200000000000004,1.166,0.258,-34.6,-19.7,-6.7,62.4,-80.9,-21.1,1.926692884606858,9.446708041107719,-0.15473433515560742,0.19
-0.544,10.571,3.62,0.514,9.708,1.286,-1.057,0.862,2.334,0.126,1.8780000000000001,0.111,-34.1,-19.3,-12.4,53.2,-81.9,-24.5,-0.4626191041064507,11.031957499187794,1.7967399090101897,0.19
2.069,8.469,2.557,0.7190000000000001,9.665,1.4980000000000002,1.285,-1.103,1.093,0.239,1.4240000000000002,0.34600000000000003,-33.4,-18.5,-16.8,46.0,-81.0,-23.3,2.1351381539247245,8.768853088721697,1.044687308275001,0.19
1.8769999999999998,9.443,1.949,0.919,9.647,1.505,0.8170000000000001,-0.233,0.40299999999999997,0.087,1.3030000000000002,0.36700000000000005,-30.8,-17.9,-20.5,28.3,-79.9,-30.3,1.9275414215611006,9.627700328852539,0.2897403078256584,0.19
2.112,9.335,1.959,1.1,9.605,1.643,1.024,-0.24100000000000002,0.33,0.11699999999999999,1.15,0.131,-28.4,-17.3,-24.5,19.7,-78.7,-33.6,2.1672998493849716,9.520767409826208,0.31344742916006396,0.19
2.346,9.826,0.888,1.111,9.597999999999999,1.676,1.24,0.228,-0.7829999999999999,0.055999999999999994,0.723,-0.054000000000000006,-26.8,-17.2,-26.9,12.9,-78.2,-33.5,2.370968210703571,9.82501050045074,-0.8307914358404543,0.19
2.603,10.587,0.836,1.1440000000000001,9.61,1.5819999999999999,1.3840000000000001,0.991,-0.633,0.287,0.321,-0.11,-25.0,-17.3,-28.6,8.1,-78.0,-34.6,2.625087797266657,10.56594419607832,-1.0143033579756109,0.19
0.33299999999999996,9.982000000000001,4.238,1.215,9.581,1.705,-0.527,0.35100000000000003,2.529,0.091,-0.183,-0.141,-24.1,-17.0,-29.0,3.3,-78.1,-36.7,0.4589478384010187,10.54618294245582,2.505843017006649,0.19
2.198,9.673,2.392,1.462,9.561,1.618,0.75,0.1,0.716,-0.314,-0.998,0.198,-24.9,-17.7,-29.1,359.6,-77.6,-41.1,2.2646634046086187,9.925474152160717,0.689970665040176,0.19
2.1719999999999997,9.23,3.0789999999999997,1.939,9.472999999999999,1.636,0.259,-0.25,1.379,-0.085,-1.514,0.35,-29.0,-17.6,-26.6,359.7,-75.8,-46.3,2.259019220347019,9.600471207952186,1.4555101330405995,0.19
2.8560000000000003,9.081,3.5789999999999997,2.4819999999999998,9.344,1.6440000000000001,0.525,-0.301,1.9,0.032,-1.9569999999999999,0.121,-33.2,-16.0,-22.8,1.0,-73.3,-53.5,2.9575033689371524,9.528056980284058,1.97480176300955,0.19
1.8840000000000001,9.151,2.713,2.9,9.251,1.48,-1.0270000000000001,-0.121,1.058,-0.319,-2.892,-0.079,-37.7,-15.6,-14.0,6.2,-70.9,-61.6,1.9534428953268133,9.460151408133608,1.1576796577140316,0.19
1.4340000000000002,9.208,2.0780000000000003,2.986,9.254,1.27,-1.5319999999999998,-0.053,0.7390000000000001,-0.40299999999999997,-2.369,-0.23199999999999998,-39.4,-16.1,-5.8,18.3,-70.5,-66.4,1.479704273801363,9.417132304292593,0.5383292909946975,0.19
3.472,8.545,0.249,3.0780000000000003,9.244,1.117,0.444,-0.785,-0.868,-0.862,-2.1430000000000002,-0.285,-38.9,-15.9,2.5,29.4,-70.7,-70.3,3.47619425382219,8.46314659544017,-1.1937475502731056,0.19
4.037,8.457,1.6019999999999999,3.0469999999999997,9.232000000000001,1.2890000000000001,0.988,-0.7559999999999999,0.255,-0.985,-1.5719999999999998,-0.341,-37.3,-17.5,11.0,44.3,-70.6,-69.0,4.07201606276126,8.589833229970816,0.1344331279983404,0.19
2.234,10.202,2.718,2.752,9.305,1.421,-0.532,0.821,1.472,-0.358,-1.083,-0.44799999999999995,-33.4,-20.9,14.8,59.5,-71.3,-63.3,2.300715558686695,10.49813864488508,0.977178034335334,0.19
1.889,9.311,0.998,2.4930000000000003,9.378,1.419,-0.5660000000000001,-0.121,-0.493,-0.076,-1.185,-0.337,-30.8,-21.6,17.6,71.1,-72.7,-60.2,1.9131348787377451,9.341505521493234,-0.5789952743058928,0.19
1.686,9.28,0.493,2.215,9.468,1.276,-0.52,-0.214,-0.8190000000000001,-0.013999999999999999,-0.767,-0.368,-26.9,-23.4,21.3,78.9,-74.5,-59.9,1.6965603185375342,9.228485090116086,-1.077400123941367,0.19
0.812,10.192,0.8740000000000001,1.972,9.555,0.996,-1.16,0.638,-0.122,0.306,-0.35,-0.141,-24.5,-24.0,22.5,80.3,-76.3,-61.2,0.8270697180124782,10.193317535051523,-0.8439889283384387,0.19
1.786,10.517999999999999,-0.084,1.946,9.577,0.8140000000000001,-0.16899999999999998,0.998,-1.238,-0.248,-0.445,0.107,-23.4,-24.3,23.1,77.2,-77.7,-67.1,1.7846264145936437,10.353214212822381,-1.857751335283405,0.19
0.498,9.692,1.197,1.8330000000000002,9.588,0.943,-1.335,0.10400000000000001,0.255,-0.111,-0.627,-0.19399999999999998,-21.2,-24.5,21.0,79.4,-77.5,-64.8,0.517632441640158,9.75459473133671,-0.4422841651469871,0.19
1.5590000000000002,9.277999999999999,0.33299999999999996,1.608,9.638,0.836,-0.001,-0.42200000000000004,-0.491,-0.13,-0.588,-0.077,-19.7,-25.4,25.4,88.1,-79.1,-62.6,1.5636926673302205,9.198980463014141,-1.2475085904400902,0.19
0.903,9.687000000000001,0.745,1.479,9.658999999999999,0.8320000000000001,-0.557,0.026000000000000002,-0.13,-0.095,-0.741,-0.113,-18.0,-25.7,25.7,92.9,-79.9,-60.7,0.9137226700060356,9.67246082358163,-0.9038890964026834,0.19
0.852,10.025,0.534,1.4340000000000002,9.663,0.858,-0.596,0.345,-0.31,-0.077,-0.902,-0.08900000000000001,-15.2,-26.1,26.2,99.4,-80.1,-59.0,0.8599007863936166,9.970247763914406,-1.1689376218256693,0.19
0.8909999999999999,10.525,0.46,1.4780000000000002,9.666,0.75,-0.561,0.912,-0.33299999999999996,0.054000000000000006,-0.884,0.11800000000000001,-12.4,-25.6,27.5,101.4,-80.3,-61.6,0.8969448823462282,10.45085059262794,-1.3252613963294724,0.19
0.414,10.485,0.685,1.5659999999999998,9.672,0.42,-1.25,0.8390000000000001,0.363,0.204,-0.684,-0.03,-10.1,-26.3,29.2,96.1,-80.3,-73.0,0.41901014643654844,10.450535178733302,-1.0893075668703123,0.19
2.459,9.295,0.7659999999999999,1.6,9.673,0.19699999999999998,0.8059999999999999,-0.32799999999999996,0.495,-0.165,-1.2890000000000001,-0.102,-8.9,-25.5,29.8,88.5,-80.5,-82.8,2.4616191976662547,9.290136351110691,-0.8150211674874864,0.19
1.8030000000000002,9.879,0.405,1.4569999999999999,9.698,-0.001,0.54,0.179,0.37,-0.163,-0.7340000000000001,0.085,-5.9,-25.3,31.3,85.6,-81.5,-90.3,1.8029929311388877,9.806052140286061,-1.26492407371128,0.19
0.941,9.74,1.36,1.4480000000000002,9.698,0.11699999999999999,-0.297,-0.29600000000000004,0.3,0.353,-0.457,-0.006,-2.9,-25.0,31.0,97.2,-81.3,-84.2,0.9437752052232611,9.82958363460922,-0.3020843131120441,0.19
1.932,10.585,1.911,1.579,9.672,0.373,0.353,0.914,1.538,0.02,-0.767,0.159,-1.3,-25.6,30.8,104.8,-80.7,-78.8,1.944399736674907,10.753484269854068,0.09303613287144663,0.19
1.69,9.117,-1.238,1.541,9.679,0.32299999999999995,0.15,-0.562,-1.56,-0.132,-0.204,-0.187,1.0,-24.8,30.8,110.4,-80.6,-78.4,1.6829940616664365,8.77747968676675,-2.7625738608755084,0.19
1.255,10.312000000000001,-0.505,1.263,9.724,0.125,-0.188,0.5589999999999999,-1.05,0.055,0.47700000000000004,-0.257,1.6,-25.1,31.4,107.6,-82.1,-82.0,1.253895274631499,10.078087444218065,-2.242162819010038,0.19
1.7169999999999999,10.465,0.013999999999999999,1.094,9.745,0.006,0.623,0.72,0.008,0.302,0.718,0.008,-0.4,-24.2,31.9,99.9,-83.4,-85.0,1.7170014566626832,10.316337902695059,-1.7577224682058123,0.19
0.73,8.904,-0.165,1.148,9.738999999999999,0.054000000000000006,-0.41700000000000004,-0.835,-0.21899999999999997,0.019,0.434,0.021,-2.4,-24.1,31.4,93.6,-83.3,-87.9,0.7298441669032637,8.747652541369755,-1.6695039704967891,0.19
-0.33,8.974,0.6629999999999999,0.983,9.757,0.115,-1.29,-0.792,0.5479999999999999,-0.171,1.035,-0.44799999999999995,-4.4,-23.2,32.1,88.7,-83.2,-89.0,-0.32866860932135356,8.956664846591904,-0.8667622344516428,0.19
-0.242,10.790999999999999,0.754,0.623,9.777999999999999,0.41100000000000003,-0.894,1.025,0.429,-0.5579999999999999,0.902,-0.223,-7.8,-25.0,30.0,95.6,-85.3,-76.9,-0.2365851472463333,10.762585204947131,-1.0879100028750148,0.19
-0.515,9.934,0.6559999999999999,0.385,9.762,0.8490000000000001,-0.43799999999999994,0.129,-0.722,-0.524,0.593,-0.475,-8.2,-25.4,28.9,129.5,-85.3,-38.5,-0.5052233070877148,9.902671592499214,-1.0304182360014877,0.19
-0.158,10.24,0.467,-0.18,9.758,0.956,0.10099999999999999,0.49200000000000005,-0.43799999999999994,0.013999999999999999,0.06,-0.10099999999999999,-9.0,-26.9,27.2,167.8,-84.2,5.1,-0.15018630768249747,10.17143798145664,-1.2727711743931058,0.19
-0.457,9.991,0.735,-0.11800000000000001,9.777999999999999,0.741,-0.28,0.12,-0.092,0.154,-0.303,0.325,-9.9,-26.4,28.6,174.2,-85.4,12.9,-0.4474563686113365,9.971681649205346,-0.9666968941144451,0.19
-0.024,9.726,0.419,0.239,9.783,0.639,-0.275,-0.009000000000000001,-0.263,0.138,-0.6729999999999999,0.294,-9.4,-26.2,29.2,149.6,-86.0,-14.8,-0.01932564030995783,9.655804215597284,-1.23946943071637,0.19
0.34700000000000003,10.154,-0.040999999999999995,0.512,9.772,0.65,-0.20600000000000002,0.371,-0.614,-0.413,-0.68,0.11800000000000001,-8.6,-25.6,29.4,128.7,-85.7,-36.7,0.34651255015321947,9.999048555393113,-1.7676999291387756,0.19
1.944,8.821,-0.73,0.677,9.745,0.868,1.123,-1.063,-1.722,-0.392,-0.511,-0.10800000000000001,-6.9,-25.9,29.1,132.5,-84.3,-37.7,1.9327182381761139,8.565187273921621,-2.241482584021684,0.19
1.54,10.87,0.522,0.5670000000000001,9.754,0.845,1.181,1.14,-0.7659999999999999,-0.512,0.14800000000000002,-0.187,-5.8,-27.0,29.1,137.1,-84.2,-34.7,1.5475307214874252,10.797444777062468,-1.349562504050473,0.19
1.693,9.5,1.235,0.643,9.712,1.199,1.081,-0.214,0.032,-0.257,-0.43,0.163,-5.9,-27.8,28.3,145.0,-82.8,-26.9,1.7184716648997513,9.566164987670305,-0.4204956190110225,0.19
0.907,9.998,1.6540000000000001,0.753,9.71,1.148,0.155,0.28800000000000003,0.507,0.187,-0.098,0.021,-4.8,-28.4,27.2,143.6,-81.7,-30.9,0.9399559144702275,10.130614223696343,-0.07421138385585802,0.19
0.685,9.46,1.7309999999999999,0.935,9.701,1.087,-0.20199999999999999,-0.285,0.599,0.01,-0.11599999999999999,0.244,-4.9,-28.3,27.8,135.9,-81.8,-39.3,0.7177148357170484,9.614169689539153,0.09905854500378819,0.19
1.415,9.165,0.86,1.038,9.69,1.0979999999999999,0.377,-0.524,-0.239,0.095,0.215,-0.18,-5.8,-27.5,28.2,132.4,-81.1,-43.8,1.4312199731680726,9.174404025253654,-0.7217826333559928,0.19
1.501,9.781,1.156,0.884,9.714,1.011,0.614,0.062,0.145,0.071,0.38,-0.091,-5.8,-27.5,28.8,132.0,-82.0,-41.7,1.5211632257631413,9.83131571635587,-0.5372073397859853,0.19
1.5659999999999998,9.702,-0.062,0.816,9.706,1.143,0.716,-0.064,-1.2890000000000001,-0.335,0.098,-0.013999999999999999,-6.8,-27.5,28.7,133.2,-82.2,-38.1,1.5644516382872162,9.547406495809227,-1.7275775743046173,0.19
0.09300000000000001,9.955,0.38299999999999995,0.7440000000000001,9.675,1.4180000000000001,-0.825,0.034,-0.39799999999999996,-0.245,-0.115,0.04,-7.2,-28.5,27.5,142.1,-80.8,-29.0,0.10244933501773737,9.877369088964713,-1.2978624788932163,0.19
-1.178,10.913,0.8859999999999999,0.573,9.666,1.5519999999999998,-1.3119999999999998,1.044,-0.597,0.05,0.363,-0.213,-7.3,-29.3,27.2,143.6,-80.1,-25.8,-1.1535712478346405,10.912136886732515,-0.9277881985565426,0.19
0.292,9.718,1.02,0.358,9.687999999999999,1.4809999999999999,-0.193,0.153,-0.9279999999999999,-0.195,0.239,0.013000000000000001,-7.8,-29.5,27.2,151.9,-81.0,-15.8,0.31826482570304926,9.749730228317466,-0.6376958332566409,0.19
0.33,10.173,0.397,0.225,9.708,1.37,0.10300000000000001,0.621,-1.204,0.045,0.203,-0.032,-6.8,-29.6,23.7,157.4,-81.6,-10.0,0.3393974387125785,10.092917209064106,-1.3320171130931322,0.19
0.34700000000000003,9.898,-0.031,0.155,9.738999999999999,1.14,0.221,0.16899999999999998,-1.262,0.036000000000000004,0.157,-0.063,-9.5,-29.9,26.3,156.4,-82.6,-8.1,0.3463145579622001,9.748944613122054,-1.7117006622718565,0.19
-0.342,9.486,1.645,0.14300000000000002,9.755,0.9940000000000001,-0.483,-0.264,0.6629999999999999,0.145,-0.054000000000000006,0.07,-9.1,-29.5,28.4,158.6,-84.0,-7.6,-0.31341155196692005,9.62852926951354,0.019552626798558403,0.19
-0.642,8.792,2.342,0.285,9.747,1.041,-0.927,-0.955,1.3,-0.017,-0.213,0.138,-8.5,-29.4,27.2,151.9,-84.1,-12.4,-0.5993448498123795,9.063491773928614,0.830839704715477,0.19
3.69,9.773,-0.632,0.478,9.75,0.938,2.702,-0.063,-1.1340000000000001,-0.253,-0.247,0.209,-7.9,-28.7,28.1,149.5,-83.7,-17.6,3.6791593881291274,9.51459475307182,-2.3373758537213214,0.19
0.215,10.450999999999999,1.7790000000000001,0.657,9.713,1.183,-0.442,0.738,0.596,-0.32899999999999996,-0.233,0.281,-8.0,-29.4,27.2,139.6,-82.3,-28.9,0.2516830283179889,10.600514762946888,-0.01447113685064405,0.19
1.7690000000000001,9.445,1.75,0.9390000000000001,9.642999999999999,1.517,1.057,-0.5660000000000001,0.052000000000000005,-0.044000000000000004,-0.027000000000000003,-0.168,-7.3,-29.5,26.5,139.6,-80.3,-31.9,1.8147087248298135,9.596740561239642,0.09637865056332973,0.19
1.07,10.226,1.973,0.8540000000000001,9.651,1.517,0.102,0.7090000000000001,0.405,-0.1,-0.257,0.07200000000000001,-7.1,-30.2,26.1,142.1,-79.8,-29.4,1.1218573191752617,10.407174925847137,0.2021168430178757,0.19
0.42100000000000004,10.394,1.571,0.847,9.669,1.4,-0.39,0.6920000000000001,0.212,0.6509999999999999,-0.185,-0.29600000000000004,-6.1,-30.0,26.5,142.8,-79.7,-30.7,0.4592572954147067,10.50840045939461,-0.2076548135813996,0.19
1.085,10.171,-0.024,0.8220000000000001,9.732000000000001,0.887,0.292,0.324,-0.937,0.259,-0.161,0.11800000000000001,-6.1,-28.9,28.3,136.7,-82.1,-36.4,1.0844984540037361,10.017735463857072,-1.7595116593657005,0.19
