ACCELEROMETER_X,ACCELEROMETER_Y,ACCELEROMETER_Z,GRAVITY_X,GRAVITY_Y,GRAVITY_Z,LINEAR_ACCELERATION_X,LINEAR_ACCELERATION_Y,LINEAR_ACCELERATION_Z,GYROSCOPE_X,GYROSCOPE_Y,GYROSCOPE_Z,MAGNETIC_FIELD_X,MAGNETIC_FIELD_Y,MAGNETIC_FIELD_Z,ORIENTATION_Z,ORIENTATION_X,ORIENTATION_Y,PRT_X,PRT_Y,PRT_Z,OUT
0.764,7.52,0.857,1.016,9.615,1.6369999999999998,-0.466,-1.913,-1.022,0.028999999999999998,-0.231,-0.5329999999999999,29.4,-26.5,-20.0,262.3,-78.3,-33.8,0.7881702532224248,7.553799788015579,-0.43294504791150257,0.0
-0.273,7.456,1.178,0.6940000000000001,9.645,1.632,-0.941,-2.208,-0.317,-0.054000000000000006,0.364,-0.095,29.9,-25.0,-20.6,272.6,-79.6,-25.9,-0.23933989905386077,7.549195951575058,-0.08065914358361503,0.0
1.432,8.521,0.517,0.84,9.625,1.683,0.642,-1.1540000000000001,-1.068,-0.14300000000000002,-0.578,0.185,30.2,-25.2,-20.2,271.7,-79.4,-24.5,1.4465663853907849,8.480423938026295,-0.95666583716993,0.0
1.767,11.835,0.836,0.855,9.668,1.403,1.527,1.575,-1.185,0.23199999999999998,0.16,-0.531,29.0,-25.2,-21.7,269.3,-79.8,-30.8,1.7869393385744863,11.800001389945052,-1.20632706906123,0.0
0.45299999999999996,14.488,0.9790000000000001,0.521,9.734,1.075,-0.154,4.816,-0.198,0.057999999999999996,-0.158,0.078,30.1,-24.3,-21.8,275.8,-83.0,-25.9,0.4712874805388647,14.443478327292231,-1.4931898471818585,0.0
0.22,10.623,1.7719999999999998,0.743,9.715,1.1159999999999999,-0.43799999999999994,0.8440000000000001,0.395,0.011000000000000001,-0.511,0.337,29.2,-25.4,-21.2,266.8,-82.1,-33.6,0.2544708945944869,10.768899671008189,-0.05057113370285671,0.0
1.063,6.2989999999999995,2.617,0.943,9.64,1.535,0.276,-3.139,0.795,-0.18899999999999997,0.126,-0.22899999999999998,28.4,-25.7,-23.0,268.4,-79.8,-33.6,1.1327217172580943,6.643363749904595,1.4962348070090548,0.0
0.546,6.5889999999999995,-0.273,0.6970000000000001,9.708,1.2009999999999998,-0.311,-3.011,-1.347,0.364,-0.45299999999999996,0.019,28.1,-24.9,-23.3,274.4,-80.9,-28.0,0.5401580066374474,6.446690140243878,-1.3913955453241273,0.0
0.263,9.693999999999999,-0.6779999999999999,0.752,9.719,1.0659999999999998,-0.539,-0.897,-1.95,-0.021,-0.125,0.061,27.6,-24.9,-23.6,269.5,-82.3,-34.6,0.25034087211487754,9.439603499371595,-2.3094813752009964,0.0
0.36200000000000004,13.655,2.852,0.8009999999999999,9.716000000000001,1.063,-0.425,3.984,1.906,-0.11800000000000001,-0.585,0.099,26.1,-25.0,-25.0,271.4,-82.2,-37.0,0.41484741532161173,13.939238417987815,0.4995067051537081,0.0
1.295,11.777000000000001,2.327,1.065,9.702,0.9520000000000001,0.13699999999999998,2.9760000000000004,0.315,0.115,-0.10400000000000001,0.28,24.5,-25.3,-26.5,265.7,-81.9,-45.9,1.3334838310341597,11.997035244648094,0.2874877580731443,0.0
2.088,9.237,-0.366,1.2690000000000001,9.698,0.716,0.774,-0.5489999999999999,-1.13,-0.375,-0.555,-0.076,23.7,-25.8,-27.0,256.6,-81.5,-57.0,2.0832633438769035,9.03895206684454,-1.9424799544256874,0.0
0.32299999999999995,6.8839999999999995,2.349,1.131,9.687999999999999,1.014,-0.8079999999999999,-2.805,1.335,0.21600000000000003,0.34299999999999997,-0.32,22.7,-25.7,-28.1,264.5,-80.8,-49.5,0.36451901930629427,7.180098329364746,1.1510429467302927,0.0
-0.34,8.421,0.06,0.943,9.713,0.973,-1.28,-1.27,-0.958,-0.451,-0.147,0.287,24.5,-25.1,-28.0,267.7,-82.5,-45.5,-0.33893210013143243,8.311382081650066,-1.35591073612045,0.0
1.475,9.591000000000001,-0.069,1.27,9.639,1.287,0.205,-0.047,-1.3559999999999999,-0.5539999999999999,-0.361,0.17800000000000002,22.9,-24.4,-29.2,269.7,-80.4,-45.6,1.4730781281075769,9.43849935486058,-1.7065865805131304,0.0
1.274,12.022,2.89,1.2770000000000001,9.626,1.3730000000000002,0.322,1.587,1.5430000000000001,0.309,0.34600000000000003,-0.266,22.0,-24.1,-30.7,273.9,-78.8,-43.5,1.3428817671792437,12.33074484883739,0.8081212979792793,0.0
1.8459999999999999,11.870999999999999,1.226,1.0659999999999998,9.693999999999999,1.026,0.78,2.176,0.2,0.149,-0.198,-0.026000000000000002,23.5,-24.8,-28.5,269.3,-81.2,-45.1,1.8676569491900161,11.902337584439302,-0.8231953268731522,0.0
0.5529999999999999,10.36,1.9080000000000001,1.0090000000000001,9.709,0.945,-0.39399999999999996,0.5920000000000001,1.2670000000000001,0.092,0.08,-0.07400000000000001,23.6,-25.0,-28.0,269.6,-81.5,-46.4,0.5843927054203928,10.531804916760727,0.12427132068986269,0.0
0.44799999999999995,7.747999999999999,2.67,1.022,9.658,1.359,-0.5670000000000001,-1.92,1.272,-0.068,-0.045,-0.023,23.6,-24.8,-27.1,272.9,-80.3,-38.7,0.5111978698317908,8.084214221618591,1.3210848409012754,0.0
0.601,7.745,0.065,0.828,9.671,1.396,0.115,-2.67,-1.636,-0.201,-0.207,-0.405,23.2,-23.2,-28.5,283.8,-80.5,-30.7,0.6024051746129442,7.643389249960836,-1.2514630554605606,0.0
0.053,9.232000000000001,0.579,0.67,9.704,1.246,-0.644,-0.366,-0.604,0.157,0.114,-0.009000000000000001,23.8,-23.0,-29.5,289.2,-81.1,-26.9,0.06557787960575756,9.197283595031886,-0.9866853674114234,0.0
0.68,11.533,0.7609999999999999,0.6940000000000001,9.726,1.041,-0.055,1.7590000000000001,-0.115,0.095,0.41700000000000004,0.079,24.1,-23.3,-28.1,284.1,-82.3,-30.5,0.6937135272512365,11.493687568359364,-1.2105856529176382,0.0
0.45299999999999996,13.267000000000001,0.08900000000000001,0.527,9.766,0.715,-0.096,3.572,-0.67,-0.09300000000000001,-0.023,0.2,24.4,-23.9,-27.1,279.9,-83.7,-33.2,0.45407533994573085,13.08888070805108,-2.1682795936090655,0.0
1.14,10.398,0.254,0.67,9.757,0.723,0.525,0.5429999999999999,0.151,0.34299999999999997,-0.373,0.034,24.8,-24.3,-26.6,273.9,-83.8,-37.9,1.1431143125401666,10.28820068970824,-1.5260197366851802,0.0
-0.498,7.822,2.847,0.7709999999999999,9.725,0.995,-1.252,-1.87,1.885,0.01,0.294,0.063,24.8,-25.4,-27.2,271.5,-83.6,-43.5,-0.448486296341562,8.19189882859096,1.492900071714077,0.0
1.051,7.507999999999999,-0.306,0.818,9.712,1.081,0.233,-2.204,-1.3880000000000001,-0.228,0.149,0.067,23.8,-24.4,-26.1,274.3,-82.3,-37.7,1.045039981502547,7.3454397788727945,-1.5876734210832963,0.0
0.505,9.077,1.099,0.6759999999999999,9.711,1.1909999999999998,-0.059000000000000004,-0.725,0.184,0.066,0.204,-0.10099999999999999,25.3,-24.8,-25.9,279.8,-81.9,-30.6,0.527734036395989,9.130503768300077,-0.4584241746322708,0.0
0.737,10.847999999999999,1.123,0.547,9.713,1.238,0.27399999999999997,1.03,-0.19399999999999998,-0.078,0.255,-0.156,25.1,-24.1,-25.3,282.7,-82.1,-27.2,0.7610909460849814,10.879230234682447,-0.7392510213444001,0.0
0.7709999999999999,12.56,0.096,0.37200000000000005,9.744,1.042,0.401,2.5869999999999997,-0.659,0.201,-0.11699999999999999,-0.172,26.7,-24.1,-25.4,287.4,-82.5,-21.8,0.7726182943888429,12.39267860005525,-2.044953565954079,0.0
0.496,10.772,2.033,0.41,9.725,1.194,0.6579999999999999,1.0659999999999998,0.42,-0.5920000000000001,0.115,-0.055,27.0,-24.1,-25.1,288.1,-83.2,-20.3,0.5382554129346437,10.95879766498009,0.1735622322784609,0.0
-0.85,9.089,2.265,0.263,9.701,1.413,-1.1540000000000001,-0.557,0.284,0.047,-0.632,-0.034,27.7,-23.5,-24.8,295.6,-81.5,-13.4,-0.7938888674479683,9.344115432567953,0.721036232784203,0.0
0.41200000000000003,8.495,-0.002,0.331,9.693,1.449,-0.128,-1.206,-1.42,0.053,-0.006999999999999999,0.16899999999999998,26.5,-23.5,-25.8,297.2,-81.2,-12.4,0.41181768017900094,8.371634922739352,-1.4425352400072842,0.0
0.158,8.84,1.214,0.467,9.702,1.349,-0.326,-0.91,-0.28300000000000003,0.035,0.006,0.047,26.2,-23.3,-26.0,293.1,-81.5,-16.5,0.18653659321608426,8.917470966616216,-0.2971121992584389,0.0
0.6579999999999999,10.48,0.371,0.42,9.742,1.045,0.251,0.764,-0.698,0.557,-0.075,-0.11800000000000001,25.6,-24.0,-25.7,289.6,-82.7,-20.7,0.6646567431437248,10.389611662084354,-1.4195794887481212,0.0
0.642,11.217,1.252,0.35100000000000003,9.781,0.612,0.276,1.4480000000000002,0.669,0.35,-0.11900000000000001,-0.033,25.6,-24.9,-25.6,285.5,-85.3,-26.3,0.6553362596279592,11.265468951512647,-0.6786020109912776,0.0
1.01,11.263,2.006,0.327,9.783999999999999,0.588,0.602,1.81,0.866,-0.139,0.078,0.035,25.0,-25.0,-25.8,279.5,-86.4,-33.0,1.0305331086811638,11.438292996489608,0.05253416382440279,0.0
1.59,10.338,-0.175,0.307,9.783999999999999,0.588,1.287,0.693,-0.667,-0.31,-0.551,0.109,25.6,-25.2,-25.1,284.1,-86.3,-27.3,1.5881203584997352,10.155127911914727,-1.9453071273115337,0.0
0.146,8.322000000000001,2.3890000000000002,0.488,9.753,0.905,0.040999999999999995,-1.236,1.511,0.077,0.147,-0.16699999999999998,24.4,-24.0,-27.7,284.4,-84.6,-30.5,0.18371503858997484,8.605981910460162,0.9421492139934073,0.0
0.527,7.767,-0.419,0.433,9.749,0.965,0.015,-1.975,-1.242,-0.016,-0.509,-0.052000000000000005,24.0,-24.5,-27.7,291.2,-83.8,-24.2,0.5198686089335415,7.582393651765237,-1.73684257752847,0.0
0.7709999999999999,8.193,-0.204,0.387,9.754,0.941,0.51,-1.505,-1.295,-0.2,-0.028999999999999998,-0.065,23.8,-23.2,-28.2,293.3,-84.1,-22.6,0.7675457655367415,8.037861943865272,-1.6015476481107187,0.0
0.529,11.642999999999999,-0.187,0.24,9.757,0.953,0.22699999999999998,2.0269999999999997,-1.088,-0.33,-0.214,-0.177,24.3,-22.7,-28.1,298.4,-84.4,-16.7,0.5258165994067361,11.44141049684921,-2.1660798107126653,0.0
0.46,12.757,0.951,0.09699999999999999,9.738999999999999,1.147,0.391,3.0439999999999996,-0.235,-0.29100000000000004,-0.121,-0.11900000000000001,24.4,-22.0,-28.7,309.0,-83.6,-8.3,0.4789445644935851,12.732434644796522,-1.2299472021706275,0.0
-1.944,10.453,3.864,-0.158,9.719,1.297,-1.626,0.99,2.889,0.769,0.8640000000000001,-0.335,24.2,-20.8,-28.6,319.7,-82.0,2.3,-1.8560403109309203,10.96254106580298,2.0863002527878605,0.0
0.86,7.966,-0.39299999999999996,-0.154,9.745,1.087,0.10099999999999999,-0.977,-1.305,-0.71,-0.49200000000000005,0.561,26.3,-21.3,-27.3,323.0,-83.8,11.4,0.8523897906886224,7.781787065416974,-1.7516925281677955,0.0
0.07200000000000001,8.263,1.216,0.092,9.693999999999999,1.482,0.107,-1.6540000000000001,-0.172,-0.03,0.14,-0.062,24.6,-19.7,-29.3,310.5,-81.5,-4.8,0.103425210228847,8.349389017365159,-0.19497503068644684,0.0
0.575,9.122,0.7040000000000001,0.23399999999999999,9.677,1.571,0.34,-0.555,-0.867,-0.064,-0.14300000000000002,0.17800000000000002,26.1,-21.2,-29.5,307.9,-80.7,-6.9,0.5940845204098165,9.107846869946144,-0.8551689752450458,0.0
0.151,11.282,1.2930000000000001,0.263,9.693999999999999,1.46,-0.134,1.358,-0.172,0.292,-0.26899999999999996,-0.081,24.5,-20.6,-29.6,306.6,-81.0,-10.4,0.1838954039039391,11.337910271828754,-0.6294022151081442,0.0
0.639,12.879000000000001,1.159,0.391,9.729,1.167,0.617,2.85,0.09300000000000001,0.077,-0.27899999999999997,0.08199999999999999,24.2,-22.0,-30.1,304.8,-82.2,-13.6,0.6624723393535169,12.887392474165816,-1.0471335236758603,0.0
0.872,9.299,3.2489999999999997,0.7140000000000001,9.693999999999999,1.298,0.24100000000000002,-0.447,1.659,0.175,-0.746,0.14400000000000002,23.0,-21.7,-30.3,290.9,-81.4,-26.7,0.9453740411420175,9.709840817427006,1.6164916401154814,0.0
0.828,9.86,-0.46,0.6409999999999999,9.734,1.0,0.187,0.125,-1.459,0.07,0.158,-0.247,21.1,-22.7,-32.5,289.3,-82.2,-33.0,0.8198457810799482,9.637842953160165,-2.1346241133900734,0.0
-0.165,7.099,1.858,0.6409999999999999,9.726,1.079,-0.818,-2.634,0.875,0.013999999999999999,-0.318,0.009000000000000001,20.9,-21.9,-32.1,291.8,-82.7,-30.9,-0.12998274884982564,7.311319039722161,0.6347506474180764,0.0
0.10800000000000001,8.251,0.08900000000000001,0.602,9.751,0.848,-0.509,-1.5530000000000002,-0.7709999999999999,0.39799999999999996,0.156,-0.034,20.9,-22.1,-31.6,289.8,-83.3,-33.2,0.10930535878677586,8.146599831549528,-1.3113159509201702,0.0
1.379,10.547,-0.9390000000000001,0.6509999999999999,9.777000000000001,0.39299999999999996,0.728,0.77,-1.3319999999999999,0.278,0.24,0.105,21.8,-23.8,-30.2,280.0,-84.7,-42.6,1.3725268721674078,10.232758973347321,-2.7256897803231825,0.0
-0.479,13.331,1.97,0.502,9.773,0.6409999999999999,-0.6509999999999999,3.2430000000000003,1.396,-0.18899999999999997,0.342,-0.7120000000000001,22.0,-24.3,-29.9,263.7,-85.2,-56.9,-0.45693098021141093,13.472827057501112,-0.3163023205557387,0.0
-1.19,11.263,3.534,0.313,9.763,0.866,-1.786,2.103,2.773,-0.43200000000000005,0.08900000000000001,0.444,23.4,-21.8,-29.9,302.6,-85.2,-17.5,-1.1364512614031057,11.702137771037762,1.5902437291518063,0.0
-1.281,7.132999999999999,0.455,0.509,9.727,1.139,-1.847,-2.247,-0.5720000000000001,-0.165,0.495,0.34299999999999997,24.1,-22.2,-29.9,289.2,-83.2,-27.3,-1.2717024013965716,7.1116166714280045,-0.7316804773597936,0.0
-0.132,6.769,-1.015,0.43799999999999994,9.729,1.155,-0.52,-2.8310000000000004,-2.1919999999999997,0.212,1.022,-0.059000000000000004,24.8,-23.1,-27.8,292.1,-82.5,-21.7,-0.1524327348199882,6.500609904251741,-2.14145864636688,0.0
-0.364,9.939,2.354,0.266,9.722999999999999,1.248,-0.72,0.342,1.206,0.092,1.024,-0.071,27.7,-22.0,-25.6,295.0,-82.4,-14.6,-0.3126435439784319,10.195033819227046,0.6489009471602065,0.0
-0.419,13.353,1.013,0.064,9.759,0.9670000000000001,-0.519,3.6439999999999997,0.166,0.191,0.503,0.11599999999999999,30.5,-22.9,-22.0,299.4,-84.1,-3.5,-0.40184439157078455,13.332656619416747,-1.2582239680144018,0.0
0.20800000000000002,12.189,1.5919999999999999,0.184,9.755,0.99,0.153,2.501,0.406,-0.073,0.45399999999999996,-0.019,30.6,-22.9,-21.5,291.1,-84.3,-10.9,0.23547537928619666,12.28185473319409,-0.5000446564737626,0.0
1.178,9.84,0.742,0.195,9.769,0.836,1.179,0.05,0.496,0.048,-0.632,-0.024,30.7,-23.6,-20.0,287.8,-84.9,-11.8,1.188700713715078,9.820288526693682,-0.9553909491416015,0.0
-1.3980000000000001,7.686,1.614,0.034,9.776,0.778,-1.5230000000000001,-2.167,0.855,0.301,0.8029999999999999,-0.226,31.2,-23.0,-20.2,289.1,-84.9,-11.8,-1.3759558245033003,7.851642241479727,0.30406525751336333,0.0
-0.426,7.197,-0.529,-0.025,9.771,0.8320000000000001,-0.39899999999999997,-2.505,-1.224,-0.10300000000000001,0.29600000000000004,0.006999999999999999,32.2,-23.2,-18.2,298.8,-85.3,2.1,-0.43363650288810585,7.003881927624371,-1.736583809454558,0.0
0.158,10.142000000000001,-0.11699999999999999,-0.05,9.775,0.7859999999999999,0.304,0.518,-0.867,-0.195,0.13,0.139,32.7,-22.8,-17.2,299.5,-85.4,4.8,0.15638014306539808,9.974528727241845,-1.8393311067564804,0.0
0.01,11.902000000000001,2.193,0.053,9.783,0.675,-0.048,2.25,1.446,0.182,0.43200000000000005,0.064,33.3,-24.2,-16.2,289.7,-85.9,-3.6,0.03583439208393558,12.10150773636218,0.13848972203860566,0.0
-0.33799999999999997,11.186,1.235,0.085,9.786,0.625,-0.28600000000000003,1.5630000000000002,0.14400000000000002,0.003,0.503,-0.027000000000000003,33.2,-24.3,-15.4,287.0,-86.4,-6.5,-0.3245083919041735,11.2337631359436,-0.6806798873908462,0.0
-1.008,9.51,0.395,-0.006,9.79,0.565,-1.057,-0.034,-0.22899999999999998,-0.322,0.191,0.13699999999999998,33.3,-23.9,-13.1,290.2,-86.9,0.7,-1.0040559135416973,9.440363094847607,-1.218033398524554,0.0
-0.56,7.635,1.41,-0.09,9.759,0.9590000000000001,-0.45799999999999996,-2.133,0.425,-0.124,0.307,-0.013000000000000001,34.4,-23.0,-13.5,290.8,-85.2,1.4,-0.5363224837186421,7.7650736377148535,0.10447293584312911,0.0
0.419,8.142999999999999,-0.62,-0.037000000000000005,9.758,0.973,0.611,-1.876,-1.51,0.011000000000000001,0.005,0.054000000000000006,34.1,-24.1,-13.1,289.4,-84.3,2.2,0.4084112119706691,7.918917436165916,-1.998088316647713,0.0
-0.153,10.796,1.065,0.024,9.782,0.6970000000000001,-0.17,1.158,0.373,0.21899999999999997,-0.253,0.132,34.0,-24.2,-13.6,288.9,-85.5,-0.6,-0.1400333268939428,10.820286621239484,-0.7829674971445368,0.0
0.23,13.061,0.924,0.086,9.799,0.385,0.14400000000000002,3.262,0.54,0.369,-0.043,-0.048,33.8,-25.1,-12.6,277.7,-87.3,-11.4,0.23620359776320993,13.027442371335498,-1.3139064357618082,0.0
1.013,10.687999999999999,1.7069999999999999,0.122,9.802999999999999,0.24,0.877,0.9229999999999999,1.463,0.228,-0.21,0.013999999999999999,33.2,-24.7,-13.0,268.5,-88.3,-21.8,1.020141360009202,10.821855022492619,-0.14187134224287723,0.0
0.271,9.453,0.304,0.006,9.806000000000001,0.068,0.585,0.10099999999999999,-0.5920000000000001,-0.237,0.156,-0.044000000000000004,34.4,-25.4,-12.7,276.0,-89.6,-14.7,0.2713606036741056,9.366612467778154,-1.3107251051370183,0.0
-0.33299999999999996,6.864,0.192,0.08800000000000001,9.8,0.363,-0.569,-2.679,0.607,0.045,-0.355,0.18100000000000002,32.8,-24.7,-13.2,281.2,-88.3,-9.7,-0.33177689979191644,6.7968784064849785,-0.977045043087926,0.0
0.9740000000000001,7.1160000000000005,-0.644,0.221,9.798,0.345,0.341,-3.7880000000000003,-1.453,0.0,-0.078,-0.14400000000000002,31.7,-24.8,-14.9,260.7,-87.6,-32.7,0.9701045920749469,6.90161592363489,-1.851340790633758,0.0
0.541,10.834000000000001,0.503,0.08199999999999999,9.805,0.16699999999999998,0.47100000000000003,1.115,0.377,0.12300000000000001,0.1,-0.08199999999999999,32.6,-25.7,-14.3,270.7,-88.4,-21.2,0.5424637945510474,10.761137846529682,-1.3508853687814655,0.0
0.273,13.458,0.158,-0.011000000000000001,9.806000000000001,0.095,0.226,3.714,0.19699999999999998,0.16,-0.147,-0.031,32.8,-25.4,-14.0,281.5,-89.0,-10.8,0.2732615986507218,13.288211664736185,-2.1368237765131775,0.0
-1.324,10.662,2.6289999999999996,-0.022000000000000002,9.806000000000001,0.053,-1.656,1.463,2.847,0.5579999999999999,0.856,0.184,33.5,-24.8,-13.1,310.9,-89.2,19.8,-1.3215675434305116,10.954189428017536,0.7759215187503861,0.0
-0.163,7.841,0.7040000000000001,0.165,9.8,0.31,-0.47100000000000003,-1.696,0.124,-0.625,0.185,0.235,33.5,-26.0,-11.1,190.2,-89.5,-98.2,-0.15918862458642163,7.846559128229279,-0.6400272095810251,0.0
0.752,7.159,-0.498,0.16,9.788,0.575,0.5920000000000001,-2.63,-1.073,-0.174,-0.036000000000000004,0.019,32.9,-25.8,-11.8,271.5,-86.7,-17.5,0.7469644632061924,6.968849827553406,-1.7152157799285639,0.0
0.036000000000000004,9.86,0.9359999999999999,0.16899999999999998,9.773,0.7959999999999999,-0.1,-0.023,0.03,0.068,0.33799999999999997,-0.063,33.4,-25.8,-13.3,274.4,-85.4,-13.6,0.04899979344497771,9.875692812973872,-0.751852701011647,0.0
-0.08900000000000001,10.992,0.951,0.217,9.777000000000001,0.726,-0.315,1.272,0.349,0.12,-0.162,0.006,33.2,-24.8,-11.5,269.4,-85.5,-15.8,-0.07694296567243117,10.994025293995293,-0.9283714854654258,0.0
-0.134,13.152000000000001,0.6679999999999999,0.106,9.788,0.597,-0.316,3.2680000000000002,0.257,-0.255,0.14,0.07,32.8,-25.5,-12.0,275.1,-86.7,-12.4,-0.127032545694946,13.074346404803718,-1.5762654660717579,0.0
1.281,10.022,1.8719999999999999,0.255,9.783999999999999,0.614,1.026,0.23800000000000002,1.2590000000000001,-0.23800000000000002,-0.621,0.048,33.6,-25.5,-12.1,267.9,-86.2,-19.4,1.300987024592826,10.191999966313128,0.12805642707136577,0.0
-0.019,7.577999999999999,1.973,0.289,9.759,0.9259999999999999,-0.32,-2.241,0.9540000000000001,-0.207,-0.19,-0.075,32.6,-25.3,-12.7,268.6,-84.7,-19.2,0.012888237413678106,7.80278256686911,0.6599940208061377,0.0
-0.028999999999999998,8.552,-0.512,0.10400000000000001,9.771,0.825,-0.10800000000000001,-1.209,-1.367,0.28800000000000003,0.037000000000000005,-0.08199999999999999,33.2,-25.4,-13.7,277.5,-84.4,-10.0,-0.03636901293422256,8.34113187057554,-1.9554757509535001,0.0
1.238,9.158,0.156,0.275,9.777999999999999,0.7,0.977,-0.605,-0.48200000000000004,-0.018000000000000002,0.105,0.153,32.9,-25.5,-13.2,271.2,-85.6,-17.1,1.239813460507506,9.048886333695691,-1.4164966300700255,0.0
-0.022000000000000002,11.157,1.815,0.32,9.788,0.514,-0.342,1.369,1.301,0.175,-0.22899999999999998,-0.008,33.2,-25.4,-12.2,259.3,-86.1,-29.5,-0.005716975032923698,11.303170189824474,-0.10802303485766895,0.0
0.998,12.572000000000001,-0.359,0.28300000000000003,9.796,0.36,0.7709999999999999,2.8480000000000003,-0.843,-0.006999999999999999,0.004,-0.012,33.0,-25.9,-13.1,251.4,-86.9,-36.4,0.9957246506672003,12.326551089683848,-2.498947709230356,0.0
-0.275,10.633,0.903,0.195,9.798,0.368,-0.597,0.909,-0.052000000000000005,0.16,-0.29100000000000004,-0.195,33.1,-25.6,-12.7,257.7,-87.4,-32.0,-0.26919456626739946,10.631870807321999,-0.9179217950927712,0.0
-0.079,8.306000000000001,0.713,0.247,9.78,0.682,-0.273,-1.476,-0.026000000000000002,-0.341,-0.068,0.09,32.6,-26.2,-13.6,269.1,-86.5,-22.0,-0.07050765754174584,8.306556212229708,-0.7073885518553649,0.0
1.065,8.624,-0.297,0.331,9.764,0.853,0.708,-1.07,-1.159,-0.11199999999999999,-0.17,0.005,32.9,-25.9,-13.9,268.6,-84.7,-20.5,1.060460504373469,8.446026651435998,-1.7708380281371905,0.0
-0.551,9.8,0.165,0.275,9.777000000000001,0.7070000000000001,-0.914,0.193,-0.49,0.263,0.027999999999999997,-0.121,32.8,-24.8,-15.8,269.6,-84.8,-21.9,-0.548922089075306,9.686837825287503,-1.4948857771430113,0.0
0.141,10.69,0.769,0.309,9.787,0.53,-0.172,0.853,0.27699999999999997,0.306,-0.217,0.043,32.8,-25.9,-15.4,267.6,-86.2,-24.3,0.14810730759733554,10.664914793857287,-1.060659542549008,0.0
0.5720000000000001,11.755999999999998,-0.6940000000000001,0.32299999999999995,9.793,0.401,0.294,1.92,-1.22,-0.293,-0.256,-0.14400000000000002,31.6,-25.8,-15.0,248.2,-87.2,-45.0,0.5671288819509758,11.465979575871378,-2.687384080654904,0.0
0.7040000000000001,10.793,0.721,0.21899999999999997,9.795,0.413,0.604,1.024,0.032,-0.146,-0.727,-0.005,31.7,-25.0,-15.2,264.0,-87.3,-29.2,0.7091787872412881,10.757460202378166,-1.1306730040010988,0.0
0.371,9.024,1.1520000000000001,0.312,9.783999999999999,0.581,0.361,-0.701,0.602,-0.062,0.064,-0.018000000000000002,31.1,-23.8,-16.4,266.7,-86.3,-28.0,0.38266242867731365,9.087864394484138,-0.4020089714747739,0.0
0.486,7.257000000000001,0.491,0.484,9.771,0.687,0.05,-2.523,-0.263,0.027999999999999997,-0.35700000000000004,0.195,30.7,-24.7,-18.2,266.8,-85.6,-28.8,0.4918522180113382,7.234062377908501,-0.7534911467072063,0.0
1.171,8.361,-0.474,0.59,9.772,0.5770000000000001,0.595,-1.423,-1.01,0.099,0.062,0.08800000000000001,29.5,-25.2,-18.5,254.2,-85.1,-43.4,1.1661672594389194,8.157241328746883,-1.8978160679045104,0.0
0.728,10.827,1.18,0.5920000000000001,9.777999999999999,0.461,0.171,1.147,0.885,0.135,0.36700000000000005,-0.086,29.9,-25.5,-18.2,246.6,-85.5,-51.4,0.737470579316139,10.869117549375567,-0.6817139007671762,0.0
0.912,13.427,-0.14800000000000002,0.488,9.791,0.248,0.424,3.636,-0.396,0.136,-0.28600000000000003,-0.133,29.8,-25.6,-17.5,234.6,-86.8,-63.1,0.9113508528365849,13.205591348659809,-2.433058518662311,0.0
-0.376,10.54,1.69,0.441,9.79,0.35700000000000004,-0.745,0.69,1.4169999999999998,0.37799999999999995,0.158,-0.348,30.1,-24.7,-18.0,247.8,-86.7,-51.0,-0.36546266990473736,10.674268370518195,-0.12453028170253089,0.0
-0.455,8.927999999999999,-0.10300000000000001,0.342,9.796,0.297,-0.809,-0.784,-0.41,-0.381,0.254,0.193,30.7,-25.3,-16.3,241.1,-87.7,-54.8,-0.45552779859316417,8.780704694612558,-1.6181895719345916,0.0
0.8,8.052,0.7040000000000001,0.488,9.771,0.6759999999999999,0.335,-1.755,0.044000000000000004,-0.179,0.33,0.158,30.4,-25.7,-16.4,258.6,-85.1,-35.8,0.8082502220371958,8.053063228971103,-0.6820734628838239,0.0
-0.006999999999999999,9.309,-0.08900000000000001,0.499,9.773,0.637,-0.504,-0.488,-0.76,0.111,0.155,0.068,30.3,-24.9,-15.2,258.3,-85.0,-35.6,-0.00798902694202665,9.158814483420874,-1.6677842887281593,0.0
0.575,10.86,0.29,0.483,9.783999999999999,0.465,0.048,1.228,-0.039,0.278,0.111,-0.10300000000000001,31.6,-25.9,-15.2,250.3,-85.6,-43.3,0.5773346153093114,10.750531763029104,-1.5643134449553213,0.0
0.9790000000000001,11.665,0.271,0.41100000000000003,9.796,0.187,0.732,1.986,-0.156,0.125,-0.513,-0.063,30.8,-26.3,-13.8,231.5,-87.1,-58.9,0.9798792650784584,11.540485843238624,-1.7207934588085068,0.0
1.52,9.994,2.655,0.353,9.798,0.19899999999999998,1.249,-0.042,2.705,0.026000000000000002,0.044000000000000004,-0.015,32.8,-26.0,-15.2,232.4,-87.7,-62.1,1.5292121772526888,10.299139747844023,0.9103249811586211,0.0
1.1640000000000001,9.469,-0.8140000000000001,0.314,9.799,0.21899999999999997,0.727,-0.588,-0.77,-0.152,-0.34,-0.063,30.7,-24.7,-15.5,239.5,-87.9,-56.6,1.160880174723194,9.191562616109408,-2.4180543612736716,0.0
-0.304,7.575,-0.778,0.21600000000000003,9.802999999999999,0.179,-0.47,-2.191,-1.0170000000000001,0.061,-0.27,-0.17800000000000002,31.1,-24.2,-16.3,245.4,-88.1,-52.2,-0.3064290939531822,7.332096378542621,-2.0554291294377482,0.0
0.455,8.767999999999999,-0.848,0.142,9.802999999999999,0.205,0.282,-0.9490000000000001,-1.069,-0.001,-0.183,-0.076,30.8,-23.8,-17.9,259.3,-88.4,-39.8,0.45196301245014425,8.495320468198063,-2.3300670758568307,0.0
0.804,11.129000000000001,-0.005,0.191,9.805,0.003,0.45799999999999996,1.736,-0.032,0.21,-0.078,-0.051,30.6,-23.6,-16.9,222.3,-88.8,-75.9,0.8039997370983933,10.965580369152745,-1.900187777667686,0.0
0.6559999999999999,12.455,0.46399999999999997,0.35100000000000003,9.8,-0.045,0.327,2.533,1.0979999999999999,0.064,-0.9329999999999999,0.009000000000000001,30.2,-24.7,-17.4,196.9,-88.4,-101.5,0.6556353728064127,12.352320132587982,-1.6622233905184545,0.0
-1.4509999999999998,10.54,2.184,0.315,9.797,-0.31,-1.8090000000000002,0.8079999999999999,2.491,0.563,0.40299999999999997,0.052000000000000005,29.1,-24.8,-19.5,179.2,-87.8,-124.0,-1.4627952865190126,10.756576769650806,0.3509175805603728,0.0
-0.017,8.033,-0.6779999999999999,0.445,9.793,-0.249,-0.48100000000000004,-1.495,-0.7440000000000001,-0.322,0.24100000000000002,0.25,28.5,-25.9,-18.8,183.8,-87.0,-119.3,-0.014053347726434911,7.800616594681034,-2.0345135158569314,0.0
-0.445,8.641,-0.115,0.4,9.798,-0.048,-0.879,-1.107,-0.11,-0.013999999999999999,0.239,-0.079,29.8,-24.9,-18.8,199.9,-87.1,-100.4,-0.4449035016360707,8.495327297884092,-1.5841735940411759,0.0
-1.659,9.152999999999999,0.22699999999999998,0.213,9.802999999999999,-0.132,-1.8719999999999999,-0.65,0.359,0.185,0.47200000000000003,-0.04,29.8,-24.7,-16.3,185.8,-88.3,-112.1,-1.6595185675178201,9.057355229258249,-1.3384817425321156,0.0
-1.9869999999999999,10.302999999999999,-0.239,-0.16,9.801,-0.282,-1.834,0.45299999999999996,0.047,0.379,1.104,-0.191,29.8,-25.2,-14.9,101.9,-88.7,164.4,-1.9857996203266974,10.110278379233604,-1.998992236681234,0.0
0.6990000000000001,10.47,-0.565,-0.322,9.796,-0.322,1.071,1.045,-0.499,-0.252,0.981,-0.185,32.6,-25.0,-9.0,72.6,-87.1,142.1,0.7021642235825437,10.221885304046529,-2.3342562485807576,0.0
-0.424,11.915999999999999,1.501,-0.544,9.782,-0.429,0.003,1.95,2.758,0.4,1.369,-0.325,33.8,-24.8,-6.8,48.3,-86.6,124.8,-0.4352266958864839,11.997230333049954,-0.5485207917059609,0.0
-0.40700000000000003,9.802,1.2229999999999999,-0.539,9.789,-0.252,0.08900000000000001,-0.075,1.605,-0.324,1.7919999999999998,0.017,34.3,-23.7,-0.2,30.1,-86.3,118.8,-0.41237508331696543,9.866916798077046,-0.46312167999815235,0.0
1.98,7.846,-0.757,-0.457,9.795,0.125,2.471,-1.954,-0.97,-0.203,0.83,-0.115,33.2,-24.1,4.4,337.0,-87.2,74.7,1.9783437707447262,7.602108662826413,-2.085009545142453,0.0
1.535,8.689,-1.48,-0.44799999999999995,9.795,0.158,1.993,-0.838,-1.693,-0.244,0.426,-0.145,33.4,-23.0,7.4,329.4,-87.2,72.0,1.5309128890691963,8.309836090699012,-2.940795108775514,0.0
2.366,10.456,-0.11699999999999999,-0.08800000000000001,9.804,0.22,2.444,0.745,-0.325,-0.205,-0.134,-0.128,33.4,-22.4,7.9,303.4,-88.2,47.6,2.365533311627864,10.281831222056221,-1.9046731669052308,0.0
3.177,11.117,0.69,0.23600000000000002,9.801,0.253,2.925,1.242,0.645,-0.077,-1.032,0.045,34.3,-22.1,7.3,214.7,-88.0,-43.0,3.180015839723163,11.069813727013338,-1.2263120762419484,0.0
0.623,12.283,0.8,0.28800000000000003,9.801,-0.16699999999999998,0.433,2.779,0.986,0.23800000000000002,-2.028,0.23600000000000002,35.2,-21.7,2.3,178.3,-88.3,-86.8,0.620665596080645,12.240218517505284,-1.3007854786868638,0.0
-0.20600000000000002,9.855,1.1059999999999999,0.413,9.792,-0.33399999999999996,-0.5489999999999999,0.040999999999999995,1.172,0.311,-2.142,0.09699999999999999,34.9,-22.2,-6.0,152.7,-86.8,-127.9,-0.21244378218899332,9.899321017210823,-0.5873738482579047,0.0
-1.034,9.603,1.137,0.297,9.801,-0.156,-1.37,-0.006,1.528,-0.066,-1.649,0.17800000000000002,34.1,-22.3,-11.9,164.4,-87.8,-121.9,-1.037091890293177,9.655911283509942,-0.5170606309452705,0.0
0.07400000000000001,7.987,-0.33799999999999997,0.405,9.798,0.121,-0.405,-1.607,-0.53,0.021,-1.564,0.064,31.4,-23.4,-19.3,229.2,-87.6,-71.2,0.07328603045066907,7.81295456001185,-1.6924122431992812,0.0
-0.474,9.137,-0.175,0.429,9.797,0.055,-0.898,-0.653,-0.24,-0.08199999999999999,-1.114,0.196,28.9,-23.3,-22.7,225.3,-87.6,-82.1,-0.47416776959868656,8.97405306365741,-1.726732908395172,0.0
-0.634,10.123,-0.929,0.405,9.797,-0.133,-1.111,0.62,-0.971,0.32799999999999996,-0.522,-0.114,26.2,-24.4,-25.9,216.3,-87.4,-97.7,-0.6318418164321766,9.817047480166906,-2.639409155693044,0.0
-2.313,12.587,-0.242,0.091,9.801,-0.325,-2.39,2.381,-0.068,-0.106,0.45799999999999996,-0.32899999999999996,25.3,-25.0,-27.3,161.3,-88.0,-156.3,-2.3115900947479284,12.359864074029081,-2.3940370309141947,0.0
-0.20600000000000002,10.535,0.405,-0.29,9.802,-0.07400000000000001,0.017,1.08,-0.218,0.248,1.064,-0.53,27.1,-23.2,-25.4,55.4,-89.0,102.0,-0.20652290344270008,10.450112934684817,-1.394694928178442,0.0
0.316,8.933,2.181,-0.308,9.799,0.21600000000000003,0.531,-0.455,1.7109999999999999,-0.7020000000000001,1.1540000000000001,0.332,30.5,-22.0,-22.6,51.8,-87.6,99.9,0.3242199148092197,9.173659360641636,0.6276634303137256,0.0
0.441,7.5729999999999995,-0.371,-0.21899999999999997,9.786,0.594,0.64,-2.2680000000000002,-0.598,-0.013000000000000001,0.924,-0.091,32.3,-21.5,-20.3,320.9,-86.3,20.2,0.4371301162184379,7.398976551877548,-1.6572610676236488,0.0
1.147,8.927999999999999,-1.166,-0.321,9.777999999999999,0.679,1.472,-0.677,-1.663,-0.226,0.985,-0.06,34.6,-20.4,-17.0,319.8,-85.7,25.5,1.1331017593695816,8.597986755866469,-2.6786289681212576,0.0
0.915,10.978,1.082,-0.187,9.787,0.596,1.351,1.033,0.455,0.059000000000000004,0.5379999999999999,-0.087,36.1,-20.2,-13.6,309.0,-86.2,19.4,0.9262054381263698,11.000528447824443,-0.8092900314412894,0.0
-0.73,12.132,0.56,-0.24600000000000002,9.797,0.353,-0.597,2.43,0.124,0.34600000000000003,0.446,-0.141,37.3,-20.6,-11.2,312.6,-87.2,27.2,-0.7265359988185802,12.051128524221813,-1.5081016991927423,0.0
-1.52,11.16,2.559,-0.15,9.797,0.405,-1.38,1.626,1.97,-0.185,0.8170000000000001,0.42200000000000004,37.7,-20.5,-10.6,317.5,-87.6,31.8,-1.5018736646005875,11.434503037916105,0.6332430587590716,0.0
-0.611,8.579,1.1520000000000001,0.069,9.779,0.737,-0.998,-0.985,0.867,-0.518,0.21,0.368,37.6,-21.4,-8.0,275.4,-86.4,-4.6,-0.5961315910619447,8.651332904914334,-0.3142166362312562,0.0
0.8240000000000001,7.707000000000001,0.215,0.179,9.735,1.169,0.769,-2.04,-0.857,-0.027000000000000003,0.58,0.10800000000000001,37.0,-22.0,-7.9,269.8,-83.1,-8.4,0.8282148199674854,7.629526434215033,-1.1078973786412991,0.0
1.765,8.828,0.41700000000000004,0.35700000000000004,9.717,1.276,1.4269999999999998,-0.855,-1.037,-0.2,0.1,0.106,36.7,-22.7,-7.3,263.1,-82.4,-13.1,1.773848317170113,8.765079200229959,-1.1178312758949334,0.0
0.35,10.970999999999998,1.472,0.452,9.724,1.189,0.048,0.73,0.6659999999999999,0.337,-0.304,-0.239,36.4,-23.7,-7.4,255.5,-82.5,-20.8,0.3804693527902581,11.060721390405615,-0.40964667142674305,0.0
0.5,12.687000000000001,0.311,0.45299999999999996,9.757,0.875,-0.10800000000000001,2.722,-0.374,-0.08800000000000001,-0.691,0.067,36.7,-22.8,-7.9,253.4,-84.2,-25.4,0.5046909900552832,12.554892004704815,-1.8511249970642518,0.0
0.505,10.492,4.365,0.56,9.74,0.992,-0.098,0.775,3.4539999999999997,0.299,-0.611,-0.048,36.2,-23.5,-8.8,253.1,-83.5,-27.2,0.580494721251939,11.077634258810418,2.517808393549524,0.0
-0.929,9.613,2.622,0.465,9.752,0.925,-1.351,-0.05,1.6269999999999998,0.079,0.158,-0.01,36.0,-23.6,-10.6,255.5,-83.9,-27.8,-0.886550413686152,9.920700678623383,0.9702682150593689,0.0
-0.524,6.997999999999999,0.48100000000000004,0.451,9.737,1.08,-0.9229999999999999,-2.7089999999999996,-0.08199999999999999,0.259,-0.11199999999999999,0.052000000000000005,35.4,-23.6,-10.8,259.0,-83.4,-23.9,-0.5148408091795954,6.980195450267554,-0.6998224183801391,0.0
-0.23,7.88,-0.09300000000000001,0.455,9.751,0.9420000000000001,-0.795,-2.065,-1.253,-0.08,0.6,0.10800000000000001,35.6,-24.2,-10.3,257.5,-84.0,-25.8,-0.23149786033930744,7.751049794493594,-1.42252761798818,0.0
0.68,9.975,-0.158,0.457,9.746,0.987,0.192,-0.001,-0.995,-0.078,0.7490000000000001,-0.018000000000000002,35.4,-25.1,-8.2,255.0,-83.5,-25.2,0.6771774700905919,9.80231423181286,-1.8558166328602461,0.0
-0.175,13.032,0.879,0.24,9.749,1.037,-0.226,3.475,-0.675,0.147,0.607,-0.059000000000000004,36.3,-24.4,-5.3,258.7,-83.3,-16.5,-0.15906312202981512,12.993160000144062,-1.3374536006405804,0.0
-1.188,10.972999999999999,2.847,0.344,9.701,1.391,-1.5319999999999998,1.272,1.455,-0.321,1.4140000000000001,0.134,35.8,-25.0,-3.1,257.6,-82.9,-13.9,-1.1185385464723347,11.300548380842644,0.9848653777497964,0.0
-1.4409999999999998,7.843999999999999,0.259,0.209,9.687999999999999,1.506,-1.6669999999999998,-1.8319999999999999,-1.224,-0.512,0.6559999999999999,0.322,35.4,-26.4,0.5,254.5,-81.5,-9.6,-1.433695301219115,7.782077978462296,-1.027461980023789,0.0
-0.7809999999999999,7.922999999999999,2.452,-0.031,9.599,2.0069999999999997,-0.8029999999999999,-1.506,0.309,-0.175,0.758,-0.031,34.0,-26.6,2.5,255.6,-78.4,-0.6,-0.6946479117685965,8.225254658536906,1.1219822105953479,0.0
-1.2429999999999999,9.16,1.666,-0.16399999999999998,9.567,2.148,-1.0979999999999999,-0.41100000000000003,-0.515,-0.127,0.445,0.27699999999999997,33.9,-27.3,5.0,256.6,-77.4,4.5,-1.1796834071108828,9.3170411579041,0.1652153773360472,0.0
-1.044,9.958,0.637,-0.11199999999999999,9.584,2.075,-1.219,0.307,-1.531,-0.028999999999999998,0.423,0.461,32.9,-28.6,6.5,255.9,-77.3,3.8,-1.0202511424471827,9.931292172378424,-0.9929714966655943,0.0
-0.68,12.584000000000001,1.061,-0.158,9.658999999999999,1.6869999999999998,-0.584,2.7260000000000004,-0.39399999999999996,0.568,0.5429999999999999,0.063,31.2,-29.7,7.8,250.3,-79.3,4.0,-0.6484699940102988,12.586906922140443,-1.0461538128981631,0.0
0.46399999999999997,12.433,1.635,-0.214,9.706,1.382,1.068,2.531,0.002,0.423,0.7340000000000001,-0.33299999999999996,30.9,-29.6,10.5,249.2,-81.6,5.8,0.5032981588727986,12.528713791691796,-0.49601581542021944,0.0
2.998,9.144,1.281,-0.29600000000000004,9.718,1.28,3.261,-0.601,0.085,-0.324,-0.728,-0.04,30.5,-28.1,13.6,260.5,-83.0,19.8,3.025867348333391,9.217661106240717,-0.347205300632099,0.0
1.183,9.453,3.1289999999999996,0.065,9.676,1.594,1.564,0.018000000000000002,1.032,-0.242,0.665,0.061,31.0,-27.2,11.3,247.4,-81.3,5.1,1.2695815222658695,9.83869814793282,1.4620261667235401,0.0
1.07,6.723,0.374,0.489,9.617,1.855,0.61,-2.988,-1.62,-0.254,-0.424,0.271,30.2,-28.5,12.4,228.6,-79.1,-13.0,1.0815457242477158,6.685180168596596,-0.7887521535718698,0.0
1.178,8.811,0.036000000000000004,0.452,9.611,1.8940000000000001,0.884,-1.2309999999999999,-1.9869999999999999,0.001,0.258,-0.18899999999999997,30.4,-29.0,11.3,225.2,-78.3,-15.8,1.1785462564774358,8.686835652966128,-1.4739796673290881,0.0
0.958,10.995,2.478,0.44,9.616,1.876,0.616,1.101,0.595,0.212,0.141,-0.062,30.4,-29.5,12.4,227.9,-78.6,-12.9,1.0386076752218485,11.248988604599782,0.5743017243178696,0.0
1.286,12.347000000000001,0.35,0.34,9.715,1.2919999999999998,0.934,2.678,-0.882,0.618,0.044000000000000004,-0.012,29.9,-28.1,14.1,226.0,-80.2,-13.4,1.2935647699163064,12.224089071606604,-1.7672129343854937,0.0
0.955,11.378,0.498,0.39899999999999997,9.754,0.935,0.556,1.624,-0.43700000000000006,0.07,-0.034,0.32299999999999995,29.8,-27.3,15.6,216.2,-84.0,-23.1,0.9629992618589699,11.295241089831844,-1.4522651769678434,0.0
0.28,7.872000000000001,3.407,0.61,9.709,1.236,0.381,-0.855,1.149,-0.446,-0.049,-0.08800000000000001,30.1,-27.8,15.6,211.9,-82.3,-26.9,0.353425905233415,8.332667986869337,2.0238990464232294,0.0
0.927,6.377999999999999,0.10800000000000001,0.546,9.665,1.567,0.381,-3.287,-1.459,-0.128,-0.24,0.005,29.9,-28.8,13.1,220.5,-80.4,-19.4,0.9296066888614678,6.301341087240108,-0.9893477175814682,0.0
1.42,8.38,0.8690000000000001,0.669,9.631,1.724,0.775,-1.507,-1.09,-0.174,-0.308,0.048,30.0,-29.0,12.8,220.1,-79.4,-20.9,1.4455010512662763,8.400061952009034,-0.5877473208771644,0.0
0.948,13.389000000000001,3.137,0.718,9.645,1.6219999999999999,0.261,3.552,1.359,0.24100000000000002,-0.40399999999999997,0.006,30.6,-29.3,12.2,219.6,-79.6,-23.9,1.0364144193750688,13.720619553938485,0.8217287918725562,0.0
2.021,13.525,1.5730000000000002,0.862,9.649,1.5219999999999998,1.082,3.78,0.2,-0.17600000000000002,-0.406,0.006999999999999999,30.8,-29.0,10.4,217.9,-79.9,-29.1,2.062067126913079,13.588225730827716,-0.7696724317370394,0.0
3.2710000000000004,9.704,0.639,0.892,9.631,1.619,2.678,-0.214,-0.47200000000000003,-0.23800000000000002,-1.2990000000000002,-0.743,32.1,-29.5,7.4,218.7,-79.4,-31.0,3.287747970368046,9.658630495666726,-1.084872449423222,0.0
0.10800000000000001,8.291,3.043,0.7390000000000001,9.604,1.838,-0.23,-0.961,1.102,-0.141,-0.8540000000000001,-0.424,33.5,-27.4,4.4,232.8,-78.6,-23.4,0.20554459352120705,8.681644352545598,1.6121404268820163,0.0
1.599,6.547999999999999,0.682,0.7120000000000001,9.641,1.649,0.7609999999999999,-3.114,-0.899,0.336,-1.005,-0.105,35.3,-26.0,0.1,239.7,-79.1,-22.1,1.6179633922178889,6.561982990815219,-0.46989646699516296,0.0
1.286,10.142000000000001,1.693,0.6990000000000001,9.695,1.3,0.6709999999999999,0.335,0.354,0.27,-0.503,-0.131,35.3,-25.9,-2.7,242.2,-81.0,-27.0,1.3240786675026195,10.277273844225064,-0.06831554048592792,0.0
1.839,12.940999999999999,1.209,0.882,9.677999999999999,1.315,0.815,3.005,0.298,-0.276,-1.182,0.054000000000000006,35.3,-25.8,-4.3,236.9,-81.0,-32.7,1.8662611035549304,12.952922489419414,-1.0256468575736308,0.0
-0.129,11.212,5.888,0.8290000000000001,9.667,1.423,-0.958,1.545,4.465,0.517,-0.214,-0.297,35.5,-24.7,-8.1,246.5,-80.0,-30.1,0.017259388527770425,12.04174935173235,3.923022261415446,0.0
1.444,7.439,1.166,0.833,9.68,1.334,0.29,-1.4269999999999998,-0.096,-0.45399999999999996,-0.688,0.231,34.9,-26.0,-9.4,247.4,-81.4,-31.5,1.4707538109865115,7.523436870443627,-0.1348847060198266,0.0
1.063,6.85,1.082,0.935,9.628,1.6130000000000002,0.094,-2.792,-0.517,-0.14300000000000002,-0.34,-0.064,35.3,-25.3,-12.0,250.8,-79.3,-31.5,1.0930354179034196,6.929402750644402,-0.10883057736904456,0.0
1.1540000000000001,8.835,0.723,0.9840000000000001,9.584,1.831,0.17,-0.7490000000000001,-1.1079999999999999,-0.022000000000000002,-0.245,-0.09699999999999999,34.1,-25.0,-15.1,257.5,-77.9,-28.5,1.1765117622566448,8.825860348139713,-0.7947824786738273,0.0
1.338,12.046,1.712,0.897,9.624,1.655,0.436,2.338,0.076,0.207,-0.69,-0.187,33.5,-23.5,-16.4,259.9,-78.7,-28.2,1.3868864607069238,12.156101052513556,-0.36476999079782946,0.0
1.81,13.683,0.503,0.8540000000000001,9.687999999999999,1.2590000000000001,0.956,3.995,-0.7559999999999999,0.019,-0.861,-0.08199999999999999,32.9,-24.6,-17.3,260.7,-80.4,-31.9,1.8206149280605384,13.565796389306572,-1.84611148298251,0.0
3.0460000000000003,9.919,2.866,1.0170000000000001,9.68,1.193,2.016,0.11,2.1519999999999997,0.26899999999999996,-1.425,-0.26899999999999996,31.7,-24.0,-20.1,258.5,-80.3,-37.5,3.105010661411213,10.248911984603543,1.0942325732551417,0.0
1.604,7.942,2.064,1.137,9.666,1.203,0.467,-1.724,0.861,-0.07,-0.9590000000000001,-0.073,29.3,-23.9,-23.8,259.0,-81.0,-41.6,1.6469796751724892,8.17007374595409,0.6675544436526744,0.0
0.6509999999999999,6.053,1.219,1.22,9.673,1.054,-0.569,-3.62,0.16399999999999998,0.075,-1.1340000000000001,-0.10400000000000001,27.9,-24.3,-26.5,261.4,-80.2,-45.5,0.6733130412814808,6.169718603095148,0.17260621965020517,0.0
0.79,8.579,-0.8140000000000001,1.146,9.719,0.635,-0.35600000000000004,-1.14,-1.449,0.138,-0.7609999999999999,0.009000000000000001,24.2,-24.4,-27.7,257.1,-81.5,-53.8,0.7809302313030815,8.31698408279522,-2.259172578703957,0.0
0.374,11.652999999999999,1.7169999999999999,1.176,9.722000000000001,0.519,-0.807,1.835,1.09,-0.059000000000000004,-0.251,0.03,22.0,-24.5,-30.4,251.5,-82.4,-65.6,0.389537480721375,11.775009886532894,-0.27888478475135736,0.0
0.8190000000000001,12.780999999999999,0.006999999999999999,1.256,9.674,0.9990000000000001,-0.43700000000000006,3.1060000000000003,-0.991,-0.609,-0.5529999999999999,-0.155,20.9,-23.8,-32.2,269.2,-80.6,-51.5,0.8189975563135633,12.598028399272925,-2.154923305796573,0.0
-0.479,9.793,3.5239999999999996,1.1840000000000002,9.672,1.101,-1.663,0.12,2.423,-0.19399999999999998,-0.046,0.297,20.8,-23.2,-33.2,276.7,-80.8,-46.5,-0.41119825537343424,10.247295399519306,1.8370408241975122,0.0
0.4,6.2989999999999995,0.544,1.258,9.605,1.526,-0.858,-3.306,-0.982,0.02,0.317,0.185,20.0,-22.9,-33.4,280.8,-78.9,-41.4,0.4143451765987086,6.2996567425010435,-0.5253379876712863,0.0
0.713,8.222000000000001,-0.14400000000000002,1.3019999999999998,9.6,1.521,-0.61,-1.4040000000000001,-1.672,-0.11699999999999999,0.244,0.21899999999999997,21.3,-22.6,-32.5,280.2,-78.4,-40.3,0.7089265412341731,8.079696901696957,-1.5317669978956872,0.0
0.802,10.892000000000001,4.0889999999999995,1.4140000000000001,9.558,1.676,-0.7170000000000001,1.3,2.344,0.085,0.198,0.23199999999999998,21.5,-22.3,-32.0,277.6,-77.3,-40.1,0.9212501735673394,11.415574111330313,2.1988075919523498,0.0
2.315,11.912,0.7090000000000001,1.431,9.605,1.3619999999999999,0.956,2.414,-0.278,0.659,-0.121,-0.28800000000000003,21.4,-24.1,-31.7,276.5,-77.2,-42.1,2.331198283140963,11.854096632544746,-1.342965967912796,0.0
1.405,11.464,3.302,1.105,9.687999999999999,1.041,0.33899999999999997,1.6869999999999998,2.356,-0.053,0.348,0.051,22.1,-24.2,-31.1,271.2,-81.1,-47.7,1.4647584638131965,11.851791915381668,1.3000138603804803,0.0
2.002,9.721,1.475,1.012,9.683,1.18,0.99,0.038,0.294,-0.004,0.23800000000000002,-0.402,22.0,-24.1,-31.3,276.1,-80.9,-42.7,2.0319507624615407,9.8236123502319,-0.22200561097253524,0.0
-0.302,7.659,0.43799999999999994,0.8190000000000001,9.697000000000001,1.209,-1.121,-2.0380000000000003,-0.7709999999999999,-0.107,-0.304,-0.042,23.2,-22.8,-31.5,282.3,-81.3,-35.9,-0.2926911996137529,7.624402976845589,-0.8521385499651846,0.0
0.907,7.772,0.419,0.905,9.697000000000001,1.149,-0.006999999999999999,-2.37,-0.627,0.384,-0.175,-0.08800000000000001,22.3,-22.7,-31.7,283.3,-81.2,-36.9,0.9152196246017245,7.728453602946356,-0.9140962453972602,0.0
1.6280000000000001,10.25,0.457,0.948,9.73,0.778,0.68,0.52,-0.321,0.049,0.01,0.091,21.4,-24.0,-32.0,275.1,-82.8,-47.2,1.6340551771262806,10.176047262153944,-1.3037096289112888,0.0
1.4080000000000001,12.398,0.718,0.945,9.731,0.767,0.40299999999999997,2.748,-0.055999999999999994,-0.155,-0.263,-0.217,22.7,-24.4,-31.0,266.6,-82.8,-52.3,1.417485192769101,12.337781182973352,-1.4065145606601388,0.0
-1.195,11.83,2.3369999999999997,0.802,9.721,1.013,-1.9969999999999999,2.109,1.324,-0.09,-0.268,0.183,21.5,-23.5,-31.7,283.6,-82.5,-38.5,-1.1534967745901072,12.058250275301136,0.3264038743800164,0.0
0.44799999999999995,8.691,3.127,1.02,9.663,1.328,-0.573,-0.971,1.7990000000000002,0.009000000000000001,1.054,0.21100000000000002,20.9,-22.8,-32.6,283.3,-80.4,-38.5,0.5203507301151777,9.09068476802532,1.6127614721529855,0.0
0.706,7.101,-0.615,1.038,9.613,1.64,-0.331,-2.511,-2.255,0.16899999999999998,0.373,0.047,22.7,-22.3,-32.3,286.0,-78.6,-31.9,0.6881098122109753,6.89525641906422,-1.8118514844469589,0.0
0.802,8.693999999999999,1.044,1.061,9.646,1.415,-0.259,-0.9520000000000001,-0.37200000000000005,0.32,0.542,0.23,24.0,-23.2,-30.1,280.2,-79.3,-34.6,0.8275358783961926,8.742643866880838,-0.4473685134850709,0.0
2.0540000000000003,10.511,0.955,1.321,9.652000000000001,1.12,0.733,0.7959999999999999,-0.14800000000000002,0.161,-0.09300000000000001,0.254,24.1,-25.1,-29.5,269.3,-80.0,-44.7,2.0722744438620806,10.515565793113439,-0.8605908900393092,0.0
0.5870000000000001,12.847999999999999,0.836,1.224,9.687999999999999,0.907,-0.539,2.997,-0.064,0.025,-0.078,-0.523,24.5,-25.9,-28.2,258.6,-80.3,-54.5,0.6001598992769918,12.803874413860802,-1.347285080961163,0.0
0.44299999999999995,11.394,2.306,0.809,9.742,0.7809999999999999,-0.395,1.7069999999999999,1.5959999999999999,0.493,0.18,-0.11800000000000001,25.9,-25.6,-26.9,267.9,-82.3,-43.8,0.4743910204080273,11.61883968281487,0.33858320218624494,0.0
0.773,7.025,1.334,1.014,9.706,0.965,-0.34600000000000003,-1.92,0.064,-0.284,0.297,0.406,25.4,-24.9,-27.1,262.3,-83.4,-48.3,0.7953571104708925,7.147118685368396,0.11752261093654148,0.0
0.024,7.93,-0.079,0.991,9.708,0.968,-0.85,-1.9480000000000002,-1.102,0.124,0.385,-0.126,25.0,-25.3,-27.1,265.3,-81.7,-46.2,0.022661949608307638,7.803053769970799,-1.4154699922585565,0.0
0.544,9.414,0.122,0.9840000000000001,9.714,0.915,-0.58,-0.39299999999999996,-0.8,-0.013000000000000001,0.19899999999999998,0.201,27.4,-25.8,-25.3,261.0,-82.2,-46.3,0.5458788614178818,9.29814117401493,-1.4767542032258967,0.0
0.062,11.253,1.087,0.965,9.74,0.614,-0.812,1.3119999999999998,0.645,0.7440000000000001,0.5479999999999999,-0.138,27.5,-25.9,-23.6,253.2,-82.7,-53.6,0.07364486363127483,11.274567678852167,-0.833139897641928,0.0
1.882,11.495,-1.425,0.852,9.769,0.11900000000000001,0.965,1.6969999999999998,-1.536,-0.109,0.37,0.02,28.1,-27.0,-20.7,222.5,-85.0,-81.9,1.8790362995985785,11.08586902748767,-3.35861645475938,0.0
-1.1320000000000001,9.852,3.4789999999999996,0.75,9.766,0.49,-1.861,0.192,2.883,-0.057,1.973,-0.042,30.5,-26.7,-18.8,230.1,-84.8,-69.5,-1.1022061513812422,10.300977054734869,1.7668566205787828,0.0
0.028999999999999998,8.279,-0.8,0.452,9.736,1.087,-0.37799999999999995,-1.435,-2.109,-0.643,0.081,0.027999999999999997,31.9,-26.6,-14.9,262.0,-84.1,-28.7,0.013818301979663477,8.024405159713073,-2.188929621367627,0.0
1.4369999999999998,8.16,-0.053,0.466,9.693,1.411,0.752,-1.694,-1.47,-0.332,0.804,0.188,32.8,-25.4,-14.5,269.7,-81.8,-18.8,1.43525919530577,8.028629554439503,-1.460998466758532,0.0
1.429,9.79,1.844,0.6709999999999999,9.64,1.67,0.758,0.15,0.17300000000000001,-0.14,0.816,0.067,32.8,-26.2,-13.8,266.0,-80.0,-19.7,1.482132519230248,9.953444928518403,0.1367269190447853,0.0
1.645,12.610999999999999,1.183,0.669,9.648,1.626,1.026,2.7569999999999997,-0.812,-0.35200000000000004,-0.038,0.055,33.5,-26.5,-11.7,260.0,-79.9,-22.3,1.677905555143204,12.622991527947669,-0.9937569287209866,0.0
0.431,11.515999999999998,3.2039999999999997,0.573,9.624,1.795,0.069,1.641,1.6769999999999998,0.10400000000000001,0.5329999999999999,-0.06,33.8,-26.6,-12.0,262.5,-78.8,-18.7,0.5311491580345851,11.887055431215146,1.2187808445892068,0.0
1.64,10.082,3.747,0.555,9.597999999999999,1.935,1.358,0.8320000000000001,1.671,-0.26899999999999996,-0.515,-0.225,34.3,-25.0,-11.9,263.5,-78.4,-16.4,1.7655849699811919,10.55603510879155,1.9568253615835685,0.0
-0.836,7.044,2.356,0.243,9.637,1.7990000000000002,-1.081,-2.5839999999999996,0.5920000000000001,0.565,0.128,-0.45,34.9,-24.0,-13.0,272.8,-78.9,-10.3,-0.7616252619001974,7.343202464069998,1.1682775920609587,0.0
0.6559999999999999,6.795,-0.129,0.08800000000000001,9.677999999999999,1.581,0.568,-2.883,-1.71,-0.07200000000000001,-0.775,-0.133,35.2,-24.3,-11.5,278.5,-80.7,-2.7,0.652191141828576,6.673573377529942,-1.287271179372838,0.0
0.594,10.286,0.273,-0.076,9.68,1.567,0.626,0.395,-1.689,0.004,0.34700000000000003,-0.10099999999999999,35.0,-23.2,-13.3,287.7,-80.6,1.6,0.6012432961000695,10.182705353445943,-1.4765429840671929,0.0
-0.08900000000000001,13.607000000000001,2.351,-0.147,9.669,1.633,-0.1,3.7439999999999998,0.9440000000000001,-0.342,0.037000000000000005,0.111,35.6,-22.1,-13.4,289.5,-80.4,5.1,-0.021966512938807026,13.808835837259243,0.03378301250837579,0.0
-2.097,10.762,7.2,-0.048,9.538,2.28,-1.821,1.692,4.875,0.3,0.47700000000000004,-0.071,35.3,-22.4,-14.8,285.2,-78.2,0.9,-1.8089021316323945,11.819157052526569,5.3938346884092825,0.0
-0.9670000000000001,7.5729999999999995,2.0140000000000002,0.12,9.54,2.267,-0.877,-2.269,-0.39,-0.37200000000000005,-0.631,0.644,35.7,-22.4,-13.3,281.3,-77.3,-1.0,-0.8865767659446278,7.808137366847573,0.7671939119452063,0.0
0.742,6.278,0.747,0.429,9.425,2.676,0.42100000000000004,-3.358,-2.022,-0.061,0.139,-0.18600000000000003,34.2,-23.8,-16.6,277.0,-74.3,-9.2,0.7760668378484091,6.309771734031831,-0.3261256316282255,0.0
-1.2790000000000001,9.57,1.314,0.087,9.466000000000001,2.559,-1.442,-0.021,-1.3719999999999999,-0.083,0.345,0.084,34.7,-22.7,-16.7,284.4,-74.7,-2.9,-1.219056882634689,9.66496840553808,-0.22276228776813634,0.0
0.266,11.421,2.6910000000000003,0.019,9.441,2.654,0.285,2.181,0.03,0.052000000000000005,-0.096,-0.205,34.5,-22.8,-16.5,285.5,-74.3,-1.1,0.39032007757365533,11.705218998443678,0.7661438739010107,0.0
1.2209999999999999,12.892999999999999,3.555,-0.05,9.453,2.608,1.28,3.49,0.895,-0.423,-0.24,0.125,35.6,-22.7,-15.7,286.2,-74.8,1.5,1.3814966702523328,13.292059896338982,1.3307613092582145,0.0
2.521,9.606,3.165,0.07,9.459,2.5869999999999997,2.0180000000000002,-0.34600000000000003,1.6340000000000001,-0.073,-1.272,-0.061,35.5,-22.9,-15.9,284.2,-74.5,-0.6,2.6612872253502347,9.976303105201458,1.427875574878775,0.0
0.754,7.178,4.006,0.456,9.379,2.8289999999999997,0.8370000000000001,-1.633,1.143,0.196,0.042,-0.32,33.7,-22.7,-19.1,280.5,-73.3,-8.2,0.9507985230079007,7.728019420751914,2.741155595935269,0.0
-1.528,6.912000000000001,1.228,0.113,9.547,2.24,-1.6019999999999999,-2.68,-1.026,0.795,0.588,0.018000000000000002,35.2,-21.4,-18.4,286.5,-76.3,-3.1,-1.4788355007911438,7.029689639717844,0.12256072308621935,0.0
-0.496,8.583,0.040999999999999995,0.168,9.527000000000001,2.319,-0.6629999999999999,-0.943,-2.279,-0.313,-0.20199999999999999,0.07,34.9,-22.7,-18.2,285.7,-76.9,-3.6,-0.49393480223306613,8.474722959252716,-1.360398902917035,0.0
-1.238,13.034,4.796,-0.077,9.544,2.252,-1.166,3.4930000000000003,2.62,0.109,0.6729999999999999,-0.076,34.3,-22.0,-17.8,290.6,-76.7,-0.6,-1.0485864087997239,13.656243265106932,2.6128341752782753,0.0
0.292,12.939,1.472,-0.10300000000000001,9.611,1.9480000000000002,0.395,3.3280000000000003,-0.47600000000000003,0.152,0.23399999999999999,0.061,35.9,-21.9,-16.0,291.0,-77.8,3.2,0.34186817850951895,13.001351180206147,-0.7195572510056791,0.0
0.48100000000000004,9.283,1.3530000000000002,-0.094,9.669,1.636,0.616,-0.307,-0.168,0.402,-0.18600000000000003,-0.016,37.1,-22.7,-14.9,289.8,-80.0,3.5,0.5194317015022497,9.375975645959201,-0.2394376617293481,0.0
-0.721,6.318,0.74,-0.042,9.674,1.607,-0.679,-3.355,-0.867,-0.07,-0.127,0.102,35.7,-23.3,-13.7,288.0,-80.6,2.3,-0.6999640335961821,6.355856872566472,-0.31256801999135975,0.0
0.37799999999999995,7.518,-0.546,0.183,9.607000000000001,1.96,0.228,-2.269,-2.552,-0.469,-0.226,0.062,36.2,-22.6,-14.7,281.1,-79.0,-4.8,0.35910466924001466,7.319339058311356,-1.8054483061023512,0.0
-0.8640000000000001,9.948,2.471,0.19399999999999998,9.564,2.161,-1.058,0.385,0.31,-0.11599999999999999,0.593,0.11199999999999999,35.9,-23.0,-16.7,282.5,-77.2,-5.1,-0.7702099576288809,10.225404808459656,0.814195384597252,0.0
-0.5579999999999999,12.107999999999999,3.125,0.321,9.583,2.057,-0.742,2.589,0.8740000000000001,0.573,0.011000000000000001,0.139,35.3,-23.4,-14.9,277.1,-76.9,-6.4,-0.4454725371670578,12.462275843981727,1.0834611239631284,0.0
0.831,10.822000000000001,4.073,0.493,9.581,2.0340000000000003,0.10800000000000001,1.3659999999999999,1.7080000000000002,-0.038,0.175,0.16399999999999998,34.6,-24.7,-15.8,273.8,-78.1,-12.9,0.9750376020886187,11.343628278547017,2.1833399077243447,0.0
1.3,10.353,2.392,0.52,9.581,2.025,1.19,0.997,-0.062,-0.057,0.129,-0.21600000000000003,34.7,-25.4,-15.8,270.5,-77.7,-14.9,1.3837108500791997,10.598823371547107,0.5886938271461044,0.0
-0.919,6.716,1.097,0.165,9.682,1.55,-1.1340000000000001,-2.822,-0.293,0.9129999999999999,0.568,-0.382,35.4,-24.8,-13.9,276.2,-79.9,-8.8,-0.8889906392008222,6.808945958296796,-0.024012088768799345,0.0
-0.804,7.504,-1.013,-0.249,9.787,0.565,-0.556,-2.2840000000000003,-1.577,0.304,-0.147,-0.15,37.4,-23.6,-8.4,297.7,-85.6,14.1,-0.8139500562951982,7.223950639431864,-2.26597075552819,0.0
0.6559999999999999,10.868,0.601,0.174,9.772,0.8059999999999999,0.48200000000000004,1.1079999999999999,-0.083,-0.273,-0.239,0.524,37.0,-24.8,-10.7,279.0,-85.4,-4.6,0.6643892973484826,10.810745826650905,-1.2614763307802868,0.0
1.82,14.133,0.098,0.23800000000000002,9.795,0.406,1.7080000000000002,4.269,-0.43,0.38299999999999995,0.38799999999999996,-0.358,36.0,-25.0,-9.8,251.9,-86.4,-31.4,1.820648733396501,13.94145722169459,-2.320496008451956,0.0
-2.454,11.595,2.734,-0.021,9.796,-0.46,-2.4330000000000003,1.8,3.194,0.909,-0.498,0.13699999999999998,36.9,-24.6,-4.6,89.6,-89.2,169.9,-2.4758706439690923,11.887740009093314,0.7018539951686393,0.0
-1.633,7.015,-0.596,0.127,9.801,-0.308,-1.736,-2.6660000000000004,-0.257,-0.253,0.364,0.255,36.7,-26.0,-5.6,119.2,-87.7,-161.4,-1.629772553506893,6.80966748231189,-1.790083853952003,0.0
1.013,6.189,-2.492,0.386,9.796,0.259,0.682,-3.503,-2.7060000000000004,-0.8809999999999999,-0.373,0.316,35.6,-26.7,-6.9,195.0,-88.4,-85.7,1.001724840018907,5.673997350724387,-3.5131546235344846,0.0
1.3840000000000001,9.256,0.836,0.7040000000000001,9.738,0.917,0.7090000000000001,-0.688,-0.249,-0.474,0.048,0.23800000000000002,35.3,-27.9,-10.1,243.9,-84.0,-38.0,1.3972020862379968,9.260273993814055,-0.7635704877110496,0.0
0.41700000000000004,13.050999999999998,2.061,0.805,9.725,0.968,-0.17300000000000001,3.295,1.0090000000000001,0.21,0.086,0.086,33.9,-27.9,-10.4,245.7,-82.4,-36.9,0.45175900321514323,13.210358577248625,-0.18041913293127632,0.0
1.556,11.081,-0.544,0.914,9.738,0.7170000000000001,0.451,1.599,-1.11,-0.10099999999999999,-0.5529999999999999,0.114,34.1,-28.1,-9.8,231.9,-83.2,-50.4,1.5490707192438589,10.82603923017591,-2.4295858687178553,0.0
3.7969999999999997,11.074000000000002,1.37,0.996,9.711,0.9359999999999999,2.8280000000000003,1.305,0.312,-0.506,-0.6,-0.24,33.7,-29.6,-11.5,234.3,-82.2,-48.8,3.8188730705451523,11.13591814520815,-0.5788959615413918,0.0
-0.043,8.454,3.905,0.7829999999999999,9.714,1.093,-0.546,-0.484,3.923,0.5820000000000001,-0.256,-0.263,34.1,-27.2,-13.5,249.5,-81.7,-35.8,0.03149686995658833,8.99169905738522,2.4226733185885077,0.0
0.364,5.629,-1.693,0.7120000000000001,9.741,0.8809999999999999,-0.382,-4.033,-2.435,0.24600000000000002,-0.389,-0.191,34.0,-26.4,-13.9,250.0,-82.7,-36.0,0.33792582304460195,5.260484841447459,-2.626307554537573,0.0
0.213,9.388,-0.5720000000000001,0.409,9.767999999999999,0.773,-0.191,-0.25,-1.206,0.012,0.22899999999999998,-0.21100000000000002,33.5,-25.7,-14.2,257.3,-84.6,-31.9,0.20526376817875816,9.154376488620628,-2.1592486864793794,0.0
0.721,11.392000000000001,1.757,0.306,9.769,0.805,0.408,1.652,1.128,-0.006999999999999999,-0.043,-0.095,35.2,-25.0,-14.2,266.8,-85.0,-21.7,0.7456137120865034,11.523187339103202,-0.21158388473664536,0.0
0.5820000000000001,13.379000000000001,-0.35,0.149,9.767999999999999,0.86,0.581,3.645,-1.351,-0.368,-0.048,-0.139,35.4,-24.4,-13.4,273.5,-85.2,-15.1,0.5766811942773694,13.124185830786404,-2.6233661732881015,0.0
-1.724,10.93,3.438,0.109,9.769,0.855,-1.859,1.511,3.0839999999999996,0.524,0.23600000000000002,0.261,36.2,-23.9,-14.3,283.8,-83.9,-5.1,-1.6725061539389114,11.359160682865115,1.558560793131868,0.0
0.802,5.619,-1.31,0.556,9.73,1.089,0.318,-4.128,-2.492,-0.503,-0.503,0.469,34.7,-25.6,-13.7,264.8,-84.0,-22.9,0.776957937952276,5.314237929633172,-2.255587859051623,0.0
1.501,8.308,-0.5529999999999999,0.5539999999999999,9.691,1.3969999999999998,0.9470000000000001,-1.383,-1.95,-0.281,0.11900000000000001,-0.344,33.6,-27.1,-15.4,265.8,-81.2,-21.6,1.4870717999923668,8.090222665851616,-1.979542542762899,0.0
0.10099999999999999,11.205,3.443,0.486,9.679,1.504,-0.5579999999999999,1.5,1.659,-0.107,-0.23399999999999999,0.16,35.0,-25.4,-16.6,272.6,-80.9,-17.3,0.19133276087109813,11.623718592655027,1.5063309242604295,0.0
0.855,11.350999999999999,1.123,0.5529999999999999,9.712,1.24,0.294,1.61,0.036000000000000004,0.924,-0.6,-0.27899999999999997,33.5,-25.4,-16.9,267.9,-81.1,-22.6,0.8791019474059908,11.37459895505308,-0.8264583339602387,0.0
2.016,10.856,-0.151,0.528,9.753,0.878,1.564,1.3559999999999999,-1.4380000000000002,-0.65,-1.055,0.028999999999999998,32.9,-26.3,-18.2,262.7,-84.6,-32.2,2.0134494680891493,10.668290456025154,-2.0182648451910703,0.0
1.8719999999999999,10.535,0.35700000000000004,0.41600000000000004,9.754,0.9259999999999999,1.456,0.7809999999999999,-0.569,-0.035,-0.8220000000000001,-0.429,31.3,-25.9,-22.3,273.9,-84.0,-26.0,1.8775250155668377,10.438057338766455,-1.4628454493023053,0.0
-0.040999999999999995,7.801,1.8719999999999999,0.466,9.738,1.0590000000000002,-0.507,-1.6119999999999999,1.069,-0.087,-0.484,0.153,32.0,-23.9,-23.8,279.0,-83.5,-22.7,-0.006394707257436245,8.005309319180943,0.525973204596822,0.0
0.18,7.922999999999999,0.297,0.611,9.732999999999999,1.032,-0.534,-2.126,-0.5670000000000001,0.389,-0.132,0.055,30.3,-23.8,-26.5,277.1,-83.0,-30.6,0.18532001954219626,7.858612075392073,-1.0499574938342824,0.0
0.285,10.061,-0.627,0.621,9.772,0.544,-0.475,0.078,-1.006,0.53,0.13,0.043,31.6,-25.9,-29.0,265.5,-84.7,-43.5,0.279034132352887,9.808150509366287,-2.328174937284547,0.0
1.35,11.751,-0.498,0.679,9.779,0.287,0.7140000000000001,2.147,-0.8740000000000001,-0.20600000000000002,-0.392,0.15,31.4,-27.4,-29.2,242.0,-85.9,-68.0,1.3474885436500463,11.49452838359965,-2.493310422581561,0.0
-0.084,10.844000000000001,2.988,0.6779999999999999,9.761000000000001,0.66,-0.8079999999999999,1.073,2.411,-0.005,1.012,-0.166,30.3,-26.9,-29.3,261.6,-84.4,-48.9,-0.049575884342469345,11.1937293316905,1.107023884359962,0.0
-0.33299999999999996,9.125,0.395,0.5529999999999999,9.774,0.5760000000000001,-0.8809999999999999,-0.52,-0.174,0.044000000000000004,0.49700000000000005,0.11599999999999999,32.5,-26.4,-26.5,262.0,-85.4,-45.4,-0.3290122649178918,9.060171893495609,-1.1565358575702822,0.0
0.7759999999999999,6.893,-1.185,0.7120000000000001,9.744,0.843,0.064,-2.8510000000000004,-2.028,-0.556,0.221,0.28300000000000003,33.0,-26.5,-26.7,261.3,-84.6,-42.9,0.7584815764678807,6.591092514738433,-2.3456460006398663,0.0
0.728,8.404,0.6459999999999999,0.6859999999999999,9.697000000000001,1.294,-0.027999999999999997,-1.173,-0.654,-0.127,0.6409999999999999,-0.285,33.5,-26.3,-26.3,269.0,-81.7,-34.1,0.7424027371376111,8.389939929684553,-0.7951491383226966,0.0
0.7090000000000001,11.54,1.463,0.636,9.685,1.405,-0.262,1.784,0.268,-0.204,-0.275,0.34299999999999997,34.4,-25.5,-25.1,278.3,-81.2,-23.0,0.7446587663030209,11.61865048201178,-0.5168116664854807,0.0
1.839,12.989,1.6880000000000002,0.86,9.664,1.429,1.08,3.158,0.20600000000000002,0.32799999999999996,0.114,-0.065,33.4,-25.9,-26.4,271.1,-80.2,-31.0,1.8805237101951793,13.080252583490456,-0.5621467134876881,0.0
1.489,9.481,3.17,0.848,9.696,1.199,0.105,0.389,2.443,0.309,-0.324,0.23600000000000002,33.4,-26.6,-25.5,268.3,-81.2,-32.6,1.5550061660796402,9.874094961478322,1.4965248127454225,0.0
3.3280000000000003,8.593,-0.6659999999999999,1.151,9.658999999999999,1.247,2.177,-1.0659999999999998,-1.912,-0.445,-0.873,-0.099,31.5,-27.3,-27.5,262.4,-80.7,-41.8,3.3127179659654344,8.347314080230058,-2.1695705390613296,0.0
0.625,7.147,0.62,1.202,9.633,1.389,-0.225,-2.853,-0.47700000000000004,-0.044000000000000004,-0.34700000000000003,-0.382,31.7,-25.9,-29.8,264.6,-79.1,-42.7,0.639845311784939,7.147409019290319,-0.5998135443237573,0.0
-0.141,9.321,0.266,0.79,9.691,1.275,-1.013,-0.018000000000000002,-1.088,0.28800000000000003,0.028999999999999998,-0.308,30.4,-24.1,-29.0,277.1,-81.2,-31.8,-0.13504629208090657,9.233282555972782,-1.3038150714591157,0.0
0.172,11.538,0.862,0.64,9.754,0.784,-0.467,1.784,0.078,0.408,0.335,0.19899999999999998,31.9,-25.0,-27.8,271.7,-83.5,-34.6,0.18377860972829213,11.51683547849711,-1.1076091295382913,0.0
1.686,12.884,0.354,0.757,9.752,0.7,1.013,3.0669999999999997,-0.336,-0.091,0.16,-0.062,30.8,-25.6,-24.8,258.8,-84.1,-46.7,1.690198993288768,12.754296439035663,-1.8537846984717166,0.0
-1.271,11.248,3.8569999999999998,0.623,9.775,0.484,-1.88,1.416,3.175,0.9540000000000001,0.304,-0.002,32.3,-25.8,-23.2,258.4,-84.7,-43.9,-1.2383734284246894,11.741341567243138,1.9017685067063592,0.0
-0.757,6.017,0.062,0.747,9.765,0.513,-1.504,-3.748,-0.451,-0.295,0.465,0.46299999999999997,30.6,-26.5,-19.3,235.6,-85.4,-63.9,-0.7564145451551421,5.941488567641948,-0.9527500388127892,0.0
0.845,6.022,-1.3980000000000001,0.9490000000000001,9.718,0.9079999999999999,-0.252,-4.152,-2.574,-0.6920000000000001,0.456,0.096,31.3,-26.5,-18.7,248.5,-82.6,-48.1,0.8227398804804427,5.6973753087119094,-2.40747309034741,0.0
0.302,11.027999999999999,2.1719999999999997,0.816,9.636000000000001,1.63,-0.526,1.536,0.754,-0.222,1.004,-0.013999999999999999,32.0,-26.5,-18.9,266.3,-79.3,-26.6,0.3636604286512676,11.234388810266879,0.28606144861457605,0.0
1.14,13.046,3.2039999999999997,0.8240000000000001,9.652999999999999,1.5190000000000001,0.414,3.3960000000000004,1.577,0.358,-0.17300000000000001,0.156,32.5,-25.6,-16.9,263.6,-79.6,-26.4,1.224532488266824,13.393279383089165,0.9401699589424037,0.0
2.531,12.362,-1.092,0.955,9.703,1.052,1.6219999999999999,2.697,-2.148,-0.004,-0.136,0.136,32.6,-27.3,-16.5,248.1,-81.7,-42.2,2.510524439338904,11.99330934734072,-3.2055057227326538,0.0
3.156,9.311,0.838,1.37,9.634,1.216,1.786,-0.32299999999999995,-0.37799999999999995,-0.08800000000000001,-1.008,-0.027000000000000003,31.8,-27.2,-17.8,246.8,-80.1,-44.6,3.173072973623388,9.30868830985923,-0.7982674075464835,0.0
0.45299999999999996,7.422000000000001,0.639,1.368,9.654,1.045,-0.9490000000000001,-2.335,-0.552,0.114,-0.446,-0.155,30.2,-27.4,-18.6,245.8,-79.2,-49.1,0.46457853904128976,7.422648436034558,-0.622953430118168,0.0
1.393,7.805,0.251,1.375,9.636000000000001,1.194,0.055,-1.821,-0.902,-0.32899999999999996,-0.688,0.061,30.3,-26.9,-20.3,247.2,-79.6,-49.5,1.3979278098617405,7.732026185992478,-1.0876782141524113,0.0
2.138,9.596,0.225,1.48,9.63,1.117,0.67,0.048,-0.8440000000000001,0.1,-0.163,-0.003,28.9,-27.1,-23.3,252.3,-78.9,-50.0,2.1419798928069183,9.491438451809573,-1.4245712528061032,0.0
2.727,11.37,1.571,1.5859999999999999,9.628,0.978,1.215,1.915,0.633,-0.035,-0.441,0.02,28.7,-27.2,-24.0,247.4,-79.2,-54.9,2.7534173488183806,11.464774501178265,-0.39888411896012776,0.0
-1.516,11.823,3.5580000000000003,1.351,9.684,0.747,-2.045,2.371,2.162,0.6759999999999999,0.5579999999999999,-0.46,27.4,-26.2,-24.4,245.3,-80.6,-60.4,-1.4694846370599846,12.256307665910958,1.5376886225686004,0.0
-0.09300000000000001,9.477,-1.786,1.197,9.727,0.34299999999999997,-1.23,-0.385,-2.11,-0.539,-0.493,0.44,28.3,-27.3,-21.8,224.2,-83.0,-78.3,-0.10369012635069526,9.039105904529897,-3.360920529317846,0.0
2.301,6.9510000000000005,0.711,1.446,9.67,0.76,0.654,-2.7910000000000004,-0.252,-0.217,0.109,0.221,26.6,-27.7,-24.7,241.7,-81.0,-64.3,2.310228364374974,6.966528863732424,-0.49683346829733843,0.0
2.387,8.652999999999999,0.5820000000000001,1.633,9.617,1.0090000000000001,0.77,-0.78,-0.46299999999999997,-0.205,-0.247,0.084,26.1,-26.0,-26.0,248.1,-78.9,-58.6,2.3968785860485107,8.621587479152785,-0.913293152858394,0.0
1.7380000000000002,10.575999999999999,3.077,1.7790000000000001,9.585,1.064,-0.11199999999999999,0.7609999999999999,2.094,-0.141,-0.431,0.177,26.0,-27.1,-26.8,248.0,-78.3,-59.3,1.7948378917373777,10.935246511638491,1.2406811323148053,0.0
0.055,12.003,0.601,1.7590000000000001,9.603,0.922,-1.5430000000000001,2.169,-0.282,0.633,0.531,-0.36,24.4,-27.2,-28.1,250.3,-77.7,-60.9,0.06466371912336492,11.934903929624666,-1.4107167660656974,0.0
2.246,9.182,1.482,1.653,9.625,0.89,0.593,-0.44299999999999995,0.5920000000000001,-0.19399999999999998,0.149,0.205,26.1,-27.2,-25.9,245.6,-79.2,-62.5,2.2687486672830843,9.294672535173738,-0.10865518205875668,0.0
4.006,9.67,3.347,1.755,9.568,1.246,3.074,0.10099999999999999,0.71,-0.18600000000000003,0.679,-0.423,26.0,-25.9,-26.6,253.3,-77.3,-54.6,4.077833613058795,10.077201808364828,1.6064313672536745,0.0
0.012,8.425,1.729,1.473,9.588,1.44,-1.511,-0.83,0.6759999999999999,-0.083,-0.28,-0.125,27.9,-24.8,-24.9,256.2,-77.7,-48.7,0.055446163907346364,8.595155648861436,0.30072428361097514,0.0
1.5319999999999998,8.299,-0.175,1.37,9.635,1.21,0.102,-1.149,-1.318,0.684,0.41200000000000003,-0.203,27.8,-25.0,-24.8,256.4,-79.3,-48.5,1.5279629222144375,8.147235984645354,-1.5934004891544824,0.0
2.548,9.187000000000001,0.644,1.489,9.654,0.873,0.728,-0.414,0.214,0.302,-0.27899999999999997,0.244,28.2,-25.7,-24.3,247.5,-80.1,-56.9,2.5575163115009105,9.158372154475007,-0.9441074073131828,0.0
2.4659999999999997,11.071,-0.019,1.646,9.652000000000001,0.5429999999999999,0.8059999999999999,1.287,-0.44799999999999995,0.063,-0.23,-0.085,28.2,-26.6,-22.6,235.2,-79.7,-68.4,2.4657091944307097,10.907178039724648,-1.8979734925041025,0.0
0.376,10.714,1.501,1.556,9.666,0.569,-0.8759999999999999,1.075,0.498,0.23399999999999999,1.1640000000000001,-0.514,27.9,-26.9,-23.3,233.0,-80.0,-70.9,0.3908875364276794,10.813281469084462,-0.32299195689688376,0.0
-1.7069999999999999,10.525,0.09300000000000001,1.1420000000000001,9.73,0.43799999999999994,-2.399,0.34299999999999997,-0.369,-0.682,-0.35700000000000004,0.426,30.8,-26.3,-21.0,228.0,-82.9,-73.4,-1.7062391866951754,10.391521364663243,-1.6742623944690331,0.0
0.733,8.119,0.67,1.178,9.693,0.914,-0.446,-1.574,-0.243,0.083,0.67,-0.133,29.0,-26.1,-21.7,248.1,-81.1,-53.4,0.7435943349303752,8.11391766422254,-0.7181626579521327,0.0
0.158,8.708,-0.048,1.038,9.706,0.941,-0.88,-1.0390000000000001,-0.9359999999999999,0.147,0.316,-0.057,31.3,-25.4,-21.2,251.0,-81.6,-47.9,0.15719039634358886,8.574823187728843,-1.5179691954994152,0.0
1.082,10.288,-0.603,0.965,9.734,0.701,-0.34700000000000003,0.16399999999999998,-0.804,0.13,0.09,0.213,30.7,-25.9,-20.0,245.6,-82.9,-52.8,1.0745416408128252,10.035704391265359,-2.346758324433187,0.0
2.765,11.234000000000002,0.019,1.207,9.721,0.467,0.888,1.48,0.402,0.11199999999999999,-0.049,0.44,30.3,-26.9,-18.7,232.9,-82.7,-65.2,2.765063017244004,11.072100906901275,-1.9003552347036332,0.0
1.81,10.542,4.669,1.422,9.679,0.682,0.261,1.462,3.552,0.33799999999999997,0.35100000000000003,0.025,28.3,-27.8,-17.5,226.0,-81.3,-70.3,1.8654462743785059,11.173248747017759,2.8085668293051977,0.0
1.13,9.793,0.644,1.393,9.686,0.645,0.077,0.631,-0.21899999999999997,0.09300000000000001,0.303,-0.09,29.3,-27.5,-18.6,228.6,-81.0,-67.3,1.1371779977435774,9.759601850902438,-1.025418408899314,0.0
-0.09300000000000001,7.492000000000001,0.713,1.2990000000000002,9.695,0.695,-1.419,-2.103,-0.006,-0.20600000000000002,-0.247,0.061,28.9,-27.1,-17.4,232.6,-81.4,-62.6,-0.08434464924443041,7.50525321271772,-0.5578012129192454,0.0
0.773,8.847000000000001,-0.752,1.268,9.704,0.636,-0.523,-1.139,-1.158,0.19699999999999998,-0.07200000000000001,-0.055999999999999994,27.5,-26.9,-17.6,236.1,-81.2,-61.0,0.7646051239851065,8.592220099782342,-2.2408870478612,0.0
2.38,10.094,0.5770000000000001,1.359,9.698,0.518,1.002,0.23800000000000002,-0.003,0.048,-0.07,-0.052000000000000005,27.5,-27.3,-18.8,231.7,-81.6,-67.5,2.3851192105039343,10.043320022993186,-1.152863507718592,0.0
1.4680000000000002,13.347999999999999,-0.146,1.226,9.727,0.23800000000000002,0.35200000000000004,3.0989999999999998,-0.055999999999999994,0.293,0.09699999999999999,-0.265,27.5,-27.1,-17.4,224.4,-82.0,-74.9,1.46738086949717,13.130411142488498,-2.405107193670918,0.0
0.431,10.245,2.6860000000000004,1.296,9.711,0.425,-0.8959999999999999,0.5479999999999999,2.517,0.048,0.214,0.07,27.1,-26.4,-16.1,221.1,-82.6,-75.7,0.4509117748152447,10.55071956122565,0.9161753716965919,0.0
-0.539,8.289,0.611,1.273,9.705,0.599,-1.8119999999999998,-1.416,0.012,-0.39799999999999996,0.4,0.207,27.7,-27.4,-15.1,224.8,-82.0,-69.6,-0.5325829452376436,8.274317932443816,-0.7895449064370417,0.0
1.8319999999999999,6.809,-1.01,1.3769999999999998,9.649,1.081,0.45299999999999996,-2.727,-2.0669999999999997,-0.299,0.19699999999999998,0.01,26.6,-26.2,-15.3,238.9,-80.1,-54.3,1.812619389366128,6.537622319805778,-2.1708777839554383,0.0
1.276,10.056000000000001,1.5230000000000001,1.338,9.626,1.314,-0.14800000000000002,0.588,0.379,-0.018000000000000002,0.431,-0.028999999999999998,27.5,-24.9,-14.8,245.1,-79.0,-45.9,1.31058932382138,10.1641244743504,-0.20921351341797068,0.0
2.301,11.982999999999999,1.367,1.4280000000000002,9.641,1.084,0.638,2.411,0.484,0.23,-0.36,0.38299999999999995,28.1,-24.6,-13.0,241.2,-79.5,-46.6,2.3264494448135937,12.03536346713994,-0.7023091872955591,0.0
3.34,10.665999999999999,0.316,1.66,9.625,0.88,1.68,1.041,-0.564,-0.10800000000000001,-0.036000000000000004,0.079,26.5,-25.3,-12.7,228.1,-79.1,-61.9,3.3444592843870495,10.560108371365265,-1.5224044403831916,0.0
3.627,10.149,0.46,1.646,9.631,0.835,1.651,0.578,-0.37799999999999995,-0.152,-0.532,-0.071,26.6,-24.4,-12.8,227.4,-79.1,-62.4,3.633318418110999,10.074064346499718,-1.2965935427876234,0.0
1.805,8.093,3.05,1.82,9.566,1.16,0.048,-1.392,1.919,-0.027000000000000003,-0.12,-0.147,27.4,-24.8,-14.5,231.4,-77.6,-58.6,1.86637564071964,8.481149142503764,1.6260151261092417,0.0
1.5230000000000001,6.962999999999999,0.345,1.806,9.566,1.185,-0.28300000000000003,-2.603,-0.84,-0.046,-0.652,-0.045,27.1,-23.5,-14.3,233.2,-77.3,-56.1,1.52980911533404,6.918265065565702,-0.8480657717500815,0.0
2.049,9.788,0.951,1.714,9.594,1.094,0.379,-0.38799999999999996,-0.6409999999999999,0.217,0.035,-0.20600000000000002,27.8,-21.9,-17.3,237.7,-77.9,-57.2,2.0667837070632364,9.803049906357325,-0.732368514946949,0.0
1.999,11.212,0.9940000000000001,1.6230000000000002,9.632,0.87,0.297,1.4340000000000002,0.076,0.009000000000000001,-0.21899999999999997,-0.046,28.9,-22.1,-17.0,234.0,-79.1,-61.1,2.0138622393716155,11.215159248597319,-0.9260361274999869,0.0
1.022,12.161,1.1159999999999999,1.527,9.654,0.797,-0.401,2.5660000000000003,0.065,-0.223,0.297,-0.027000000000000003,29.4,-22.1,-18.5,233.4,-79.7,-63.3,1.0374244971554705,12.173529836968433,-0.9533009604217304,0.0
0.723,9.261000000000001,0.685,1.59,9.649,0.736,-0.855,-0.266,-0.027000000000000003,0.114,0.163,0.259,30.0,-23.1,-18.4,233.1,-79.8,-64.6,0.7317393633759803,9.243233127672072,-0.8861567872513892,0.0
0.737,7.077000000000001,0.23199999999999998,1.651,9.613999999999999,1.003,-0.945,-2.41,-0.825,-0.331,0.304,0.086,29.2,-24.0,-18.7,233.6,-79.2,-62.6,0.7409481824181178,7.0141910058765315,-0.9659411597256207,0.0
1.501,8.248,-0.067,1.609,9.572000000000001,1.3969999999999998,-0.098,-1.575,-1.5530000000000002,-0.41,0.23199999999999998,-0.092,29.9,-24.1,-18.5,242.6,-77.7,-51.3,1.498920404330972,8.115943401774313,-1.473666963963108,0.0
1.911,11.052,2.617,1.493,9.564,1.574,0.374,1.27,0.8370000000000001,-0.113,0.20199999999999999,-0.135,30.5,-22.9,-18.4,249.0,-77.2,-44.5,1.982162803686368,11.324311143040424,0.6916080937154465,0.0
2.471,12.437999999999999,1.0490000000000002,1.405,9.626,1.24,1.002,3.1039999999999996,0.299,0.695,0.29600000000000004,-0.016,30.3,-23.3,-18.7,248.9,-78.1,-45.0,2.4931221212279615,12.42930314573566,-1.0985678859539618,0.0
2.03,10.71,3.177,1.38,9.657,0.9990000000000001,0.332,1.581,2.175,0.38299999999999995,-0.142,0.251,30.6,-24.2,-17.4,241.0,-80.0,-52.2,2.0850823172502335,11.085157773071506,1.3000145677656079,0.0
2.741,9.552999999999999,0.637,1.5419999999999998,9.646,0.863,1.6280000000000001,-0.062,-0.147,-0.187,-0.922,-0.285,30.7,-24.8,-18.6,233.5,-80.0,-61.5,2.7502833380878533,9.517744235127722,-1.0134817388237924,0.0
-0.424,7.695,0.249,1.379,9.685,0.679,-1.7,-1.952,-0.461,0.263,-0.005,-0.28600000000000003,29.6,-25.9,-19.7,235.1,-80.8,-63.4,-0.4210194489908398,7.62805924326856,-1.0441536308209267,0.0
1.123,7.71,-1.099,1.26,9.713,0.493,-0.493,-2.19,-1.317,-0.15,-0.647,0.03,29.2,-25.1,-20.0,232.0,-82.1,-68.5,1.113502225040994,7.412439656732358,-2.3935081220104992,0.0
1.959,10.302999999999999,0.414,1.3530000000000002,9.698,0.534,0.517,0.451,-0.015,0.20199999999999999,0.001,0.096,28.1,-25.1,-21.2,235.5,-81.5,-66.6,1.9627733676498895,10.222425056965221,-1.3455231926555187,0.0
1.262,12.880999999999998,2.65,1.4409999999999998,9.689,0.46299999999999997,-0.231,3.141,2.116,0.138,-0.005,0.106,27.5,-25.7,-21.8,232.7,-81.3,-71.6,1.283372888927837,13.141527331109007,0.4341870952480553,0.0
-0.45,11.43,2.8110000000000004,1.5290000000000001,9.68,0.349,-2.2159999999999997,2.104,2.673,0.462,0.109,0.222,27.4,-27.2,-20.8,227.8,-81.0,-75.1,-0.43286938981195383,11.740370812664876,0.8517266418813507,0.0
0.797,7.3,-0.244,1.6740000000000002,9.658,0.295,-0.675,-2.102,-0.29,-0.174,0.733,-0.055,26.0,-29.0,-20.3,219.7,-80.2,-83.4,0.7957331530624546,7.154911917608826,-1.4692818655303972,0.0
0.527,7.662000000000001,-0.38799999999999996,1.48,9.675,0.615,-0.905,-2.073,-1.077,-0.332,0.046,0.13,28.5,-27.8,-19.1,228.9,-80.8,-69.1,0.5228050149222255,7.486868546901358,-1.675706202707183,0.0
1.295,8.629,-0.18,1.651,9.635,0.7809999999999999,-0.37799999999999995,-1.042,-0.991,0.059000000000000004,0.16399999999999998,0.24600000000000002,27.7,-27.0,-19.7,235.6,-79.6,-63.6,1.2924261842533118,8.474200676296594,-1.6390922658931582,0.0
1.82,12.24,1.247,1.7590000000000001,9.625,0.6609999999999999,-0.016,2.864,0.675,0.111,-0.079,-0.006999999999999999,27.0,-28.6,-19.4,230.2,-78.9,-68.1,1.8342647460436414,12.272672297719618,-0.8378523224333232,0.0
1.88,11.878,-0.273,1.885,9.621,0.23800000000000002,0.14300000000000002,2.293,-0.871,0.5429999999999999,-0.14400000000000002,0.046,27.4,-29.3,-18.4,218.6,-78.9,-79.4,1.8788497730922187,11.664002652845708,-2.2620297620852816,0.0
2.2119999999999997,9.51,2.423,1.9040000000000001,9.619,0.163,0.205,0.081,2.15,0.094,-0.085,-0.14,26.7,-30.2,-17.2,211.1,-78.8,-86.2,2.2188842028033644,9.780115670183053,0.7936393213479058,0.0
3.093,8.933,0.539,1.767,9.644,0.226,1.166,-0.8640000000000001,0.444,-0.226,-0.092,-0.305,26.9,-30.1,-17.4,211.7,-79.1,-85.6,3.095101989347953,8.895007801458927,-0.9771585784913013,0.0
0.213,7.781000000000001,-0.5670000000000001,1.436,9.693999999999999,0.371,-1.2229999999999999,-1.92,-0.919,-0.253,0.053,-0.129,28.4,-27.8,-17.3,218.1,-80.4,-78.5,0.20932413652382967,7.574190617013684,-1.870464889542285,0.0
0.757,9.362,0.536,1.235,9.713,0.5579999999999999,-0.603,0.006,-0.07200000000000001,0.051,0.289,-0.29,29.5,-26.4,-17.4,228.5,-81.7,-66.6,0.7621840907747421,9.316979758903187,-1.0584670915801677,0.0
1.2309999999999999,10.554,0.41200000000000003,1.149,9.726,0.498,0.08,0.8009999999999999,-0.065,0.303,0.111,-0.068,29.5,-27.0,-16.4,229.3,-82.4,-64.4,1.2345344546738637,10.470098056239433,-1.3874409439519768,0.0
0.785,12.314,-0.031,1.0290000000000001,9.751,0.185,-0.318,2.187,-0.214,0.168,0.16399999999999998,-0.079,30.8,-26.9,-14.9,218.3,-83.6,-76.8,0.7848958134774782,12.130421132304978,-2.1186325105865658,0.0
-1.185,11.239,3.5869999999999997,1.035,9.75,0.20199999999999999,-2.225,1.436,3.2889999999999997,0.37200000000000005,0.552,0.095,31.5,-27.1,-14.0,213.3,-83.9,-77.8,-1.1723464542615754,11.68482506843363,1.6359651314393358,0.0
0.369,7.779,-0.35,1.195,9.728,0.322,-0.7809999999999999,-1.92,-0.653,-0.314,0.33799999999999997,0.23600000000000002,30.8,-27.7,-12.9,212.0,-83.0,-77.8,0.36702719621529245,7.6076563875666166,-1.6614323115779361,0.0
1.5630000000000002,7.212000000000001,-0.855,1.206,9.714,0.588,0.314,-2.503,-1.46,-0.311,0.27399999999999997,0.009000000000000001,31.4,-28.6,-12.5,219.8,-82.4,-67.5,1.5541433753271516,6.961632948025261,-2.0753898587725312,0.0
0.845,9.863999999999999,1.046,1.078,9.717,0.769,-0.02,-0.111,0.174,0.27699999999999997,0.312,-0.18100000000000002,31.6,-28.0,-12.5,230.8,-81.9,-56.5,0.8589624516513812,9.897101186512446,-0.6451423180872193,0.0
0.474,11.43,-0.14400000000000002,1.104,9.736,0.396,-0.675,1.7180000000000002,-0.5329999999999999,0.312,-0.21100000000000002,0.431,31.7,-28.0,-11.0,225.7,-83.1,-59.3,0.47299342975405373,11.240473166160962,-2.0780645361068126,0.0
1.69,11.895,-0.242,1.345,9.713,0.127,0.345,2.182,-0.369,0.29100000000000004,0.021,0.019,30.9,-29.6,-10.4,206.0,-82.4,-79.0,1.68945943908285,11.683027114987071,-2.2490649688638897,0.0
3.503,9.333,2.1719999999999997,1.5190000000000001,9.687999999999999,0.11,1.805,-0.087,2.167,-0.129,-0.688,0.14800000000000002,30.1,-29.9,-10.6,199.5,-81.9,-88.2,3.507163484068133,9.564277764650244,0.5638059388087511,0.0
1.686,8.971,1.365,1.578,9.675,0.27699999999999997,0.175,-0.665,1.05,0.03,0.09,-0.261,29.9,-29.3,-13.0,203.3,-80.7,-83.7,1.6925794508803294,9.071432854612233,-0.1701257379687764,0.0
-0.192,8.16,-0.498,1.432,9.698,0.243,-1.624,-1.5390000000000001,-0.741,-0.071,-0.295,0.135,30.9,-28.9,-13.4,209.1,-81.4,-80.3,-0.19411036052949313,7.959635510868288,-1.8646693278057762,0.0
1.609,8.937999999999999,-1.08,1.499,9.689,0.20800000000000002,0.045,-1.051,-1.367,-0.040999999999999995,-0.451,0.084,29.8,-29.3,-14.6,210.3,-81.2,-80.9,1.6050686968225791,8.627760371956697,-2.574612678166146,0.0
2.4130000000000003,10.437000000000001,-0.517,1.675,9.662,0.055,0.738,0.774,-0.5720000000000001,-0.07,-0.35700000000000004,0.08900000000000001,27.8,-29.5,-15.8,209.2,-80.6,-85.9,2.4125026037390773,10.201791252771995,-2.263650463701709,0.0
1.781,12.029000000000002,-0.045,1.702,9.657,-0.07400000000000001,0.086,2.338,0.064,0.065,-0.499,-0.085,28.0,-30.7,-16.7,206.5,-79.9,-91.0,1.7810566340420908,11.85138174678075,-2.0599550865023195,0.0
-0.632,10.970999999999998,1.4169999999999998,1.546,9.683,-0.13,-2.108,1.149,2.3040000000000003,0.429,0.27399999999999997,-0.19399999999999998,27.8,-29.7,-17.5,206.5,-80.3,-93.5,-0.6352134428548827,11.052793928132289,-0.44989361437834186,0.0
0.6509999999999999,7.971,-0.84,1.41,9.705,-0.031,-0.883,-1.5019999999999998,-0.775,-0.57,0.161,0.237,28.1,-29.9,-15.9,199.2,-81.6,-98.2,0.6514543886237422,7.71538102625412,-2.171346310301694,0.0
1.954,7.564,0.002,1.466,9.687999999999999,0.414,0.409,-2.153,-0.5479999999999999,-0.297,0.282,0.028999999999999998,28.0,-29.5,-17.0,213.9,-81.5,-81.7,1.9539634420123462,7.45408830367617,-1.2848386779192922,0.0
0.627,9.919,0.563,1.399,9.691,0.551,-0.6709999999999999,0.049,-0.223,0.11900000000000001,0.389,-0.065,28.9,-29.2,-16.9,226.0,-80.9,-69.6,0.6323851641433224,9.871207998972286,-1.1207143459405593,0.0
1.37,11.763,-0.10300000000000001,1.367,9.703,0.391,0.002,2.06,-0.494,-0.049,-0.321,0.192,29.2,-28.7,-14.8,219.0,-81.7,-74.0,1.3692652082034336,11.575790934337157,-2.0932880915252254,0.0
2.294,12.232000000000001,-0.21100000000000002,1.429,9.699,0.231,0.8640000000000001,2.533,-0.442,0.073,-0.35200000000000004,-0.035,29.0,-29.6,-15.1,217.9,-81.3,-76.4,2.293130666889007,12.02005514471711,-2.277851413620511,0.0
3.682,9.62,-0.271,1.399,9.706,0.114,2.171,-0.191,-0.20199999999999999,0.063,-0.644,-0.201,28.3,-29.7,-15.7,211.7,-81.7,-84.2,3.6814535099362184,9.435373835065342,-1.8962029550506014,0.0
1.453,8.667,1.575,1.516,9.684,0.292,-0.226,-1.1340000000000001,1.391,-0.11699999999999999,0.38299999999999995,-0.133,29.0,-29.1,-17.5,213.9,-81.2,-82.6,1.4610078686366377,8.80718759578638,0.08732502738802617,0.0
0.019,7.791,-0.024,1.4780000000000002,9.689,0.318,-1.538,-1.8940000000000001,-0.425,-0.131,-0.248,0.172,29.4,-28.5,-17.4,218.5,-81.1,-78.3,0.018866504459516438,7.675810621176852,-1.3349881508231076,0.0
1.499,8.959,-0.826,1.5390000000000001,9.682,0.226,-0.047,-0.706,-1.0090000000000001,0.24,0.33799999999999997,-0.013999999999999999,28.3,-29.6,-17.8,216.5,-80.9,-81.7,1.4957302350227768,8.691481245578206,-2.3267794957410586,0.0
1.6640000000000001,11.148,-0.187,1.531,9.686,-0.002,0.133,1.4609999999999999,-0.185,0.102,0.514,-0.049,29.8,-29.8,-16.3,206.1,-81.0,-88.9,1.6640065265204314,10.95762805527464,-2.0599122995786776,0.0
1.207,12.659,0.10800000000000001,1.45,9.698,-0.077,-0.237,3.12,0.14,0.177,0.7809999999999999,-0.062,29.6,-29.4,-13.7,200.3,-81.3,-92.2,1.206853768432842,12.49656088320112,-2.0244169713937636,0.0
0.879,10.389000000000001,-0.728,1.2830000000000001,9.721,-0.136,-0.426,0.713,-0.03,0.106,0.62,-0.142,30.9,-29.6,-10.9,193.5,-82.1,-94.5,0.8807255384702046,10.117260275518401,-2.469678732811969,0.0
1.379,7.185,-0.46399999999999997,1.255,9.72,0.336,0.124,-2.535,-0.8009999999999999,-0.685,0.569,-0.147,32.1,-29.3,-9.5,196.7,-82.6,-87.3,1.376255264394716,7.002153594514436,-1.6783707832461792,0.0
1.518,8.2,0.297,1.033,9.703,0.975,0.53,-1.651,-0.695,-0.462,0.361,-0.19699999999999998,32.9,-28.9,-8.7,229.2,-81.9,-51.1,1.522834011650575,8.128391940478478,-1.1147887848936786,0.0
0.584,10.298,1.683,1.0170000000000001,9.673,1.251,-0.517,0.7509999999999999,0.54,-0.055999999999999994,0.264,0.057,32.9,-27.3,-9.5,239.3,-80.9,-40.0,0.6206046354070512,10.432166942615401,-0.08421263511910237,0.0
0.541,11.95,2.1959999999999997,1.159,9.682,1.043,-0.653,2.376,1.0490000000000002,0.342,-0.218,0.359,33.1,-28.2,-8.6,237.9,-80.7,-41.2,0.5808836839292956,12.147393681264127,0.14490651513677433,0.0
0.919,12.352,-0.747,1.344,9.687000000000001,0.721,-0.516,2.495,-1.0090000000000001,-0.011000000000000001,0.478,0.161,32.3,-29.1,-8.5,217.9,-81.2,-61.7,0.9095273654671356,12.04825052716416,-2.8261091992622847,0.0
2.897,10.982999999999999,-0.862,1.5219999999999998,9.65,0.86,1.284,1.4,-1.671,-0.527,-0.768,-0.08199999999999999,31.7,-29.8,-8.3,216.1,-80.1,-63.1,2.883735671444569,10.675822905445187,-2.7336451614666393,0.0
-0.369,8.248,1.702,1.44,9.658,0.9079999999999999,-1.9140000000000001,-1.3880000000000001,0.5589999999999999,0.69,0.244,-0.265,31.4,-29.5,-8.8,223.1,-79.4,-57.0,-0.34198218440016454,8.417582970596087,0.29969003767834757,0.0
0.958,6.876,-0.941,1.482,9.665,0.754,-0.525,-2.7880000000000003,-1.695,-0.003,-0.318,0.177,31.1,-29.9,-7.6,215.7,-80.4,-62.1,0.9455340446907722,6.618318647989562,-2.0943840727059437,0.0
2.665,9.745,0.397,1.6869999999999998,9.634,0.7120000000000001,0.9179999999999999,-0.04,-0.415,-0.115,-0.06,0.24100000000000002,31.4,-30.2,-7.9,213.3,-79.8,-64.5,2.669727525146264,9.66845738206984,-1.2721422061136032,0.0
2.665,11.399000000000001,0.711,1.824,9.618,0.5770000000000001,0.8690000000000001,1.3,0.099,0.39399999999999996,-0.152,-0.122,30.1,-29.9,-8.1,210.7,-78.8,-69.2,2.67202490718207,11.353073774812426,-1.2300186011052847,0.0
-1.42,11.713,3.766,1.659,9.66,0.313,-3.0789999999999997,2.27,2.676,0.259,0.8390000000000001,0.021,31.3,-30.7,-7.6,201.9,-80.0,-79.3,-1.3994056967856,12.180151340791058,1.7547370205332136,0.0
-0.4,8.157,-0.843,1.614,9.671,0.193,-2.064,-1.339,-1.0290000000000001,-0.275,0.722,0.35600000000000004,30.5,-30.8,-4.7,190.8,-80.2,-87.0,-0.4028373597479678,7.8996888426155,-2.199985511644896,0.0
1.358,6.024,-0.41200000000000003,1.581,9.579,1.382,-0.425,-3.1289999999999996,-1.758,-1.235,0.627,-0.316,30.6,-31.2,-4.4,204.2,-79.5,-67.4,1.3476683130656935,5.866017709228526,-1.4408713866879252,0.0
2.9589999999999996,10.345999999999998,2.0380000000000003,1.409,9.427999999999999,2.301,1.122,0.8340000000000001,-0.6609999999999999,-1.41,-0.125,0.40700000000000003,30.5,-30.6,-5.0,234.7,-76.0,-35.7,3.038438309443345,10.520359610292015,0.19689415898764628,0.0
4.192,10.784,4.729,1.828,9.265,2.6439999999999997,2.438,1.435,2.238,0.9129999999999999,0.29100000000000004,-0.10300000000000001,31.1,-30.9,-8.3,235.6,-70.9,-34.7,4.4056868297525,11.372743838113296,2.7352480967549333,0.0
3.457,10.561,0.239,1.9709999999999999,9.468,1.626,1.391,0.9229999999999999,-1.102,0.526,-1.383,0.076,30.7,-32.0,-5.7,226.0,-73.9,-42.8,3.462389695348024,10.440296880514863,-1.5983584217125522,0.0
4.736000000000001,10.042,3.105,2.258,9.423,1.511,2.3080000000000003,0.542,1.604,-0.099,-0.75,-0.106,29.6,-32.5,-8.2,218.9,-74.8,-55.3,4.816228572124369,10.394232455446906,1.2947428328386508,0.0
1.7930000000000001,10.245,6.01,2.057,9.461,1.558,-0.11,1.035,4.401,-0.111,-0.727,-0.22699999999999998,29.4,-30.8,-10.8,226.9,-74.6,-53.5,1.9557423842301174,11.085167517989404,4.1939369123341015,0.0
0.22,5.8660000000000005,-0.043,1.97,9.48,1.556,-1.989,-3.159,-1.3519999999999999,0.23800000000000002,-1.06,-0.1,28.9,-30.8,-14.3,231.9,-74.8,-51.8,0.21875125583447966,5.777825320141125,-1.0144394797162355,0.0
0.922,7.085,-1.484,1.7790000000000001,9.578,1.125,-0.858,-2.4930000000000003,-2.609,0.34299999999999997,-0.106,-0.321,28.5,-30.3,-16.0,233.0,-77.3,-57.3,0.8926858634750122,6.7363474929881235,-2.659755515618773,0.0
1.494,11.445,-0.345,1.598,9.64,0.8240000000000001,-0.10400000000000001,1.804,-1.169,-0.07400000000000001,0.11599999999999999,0.21899999999999997,28.9,-30.7,-16.0,231.7,-78.9,-59.5,1.4888840489844204,11.222024659921573,-2.2778219466832503,0.0
1.954,13.123,2.133,1.693,9.613,0.943,0.261,3.51,1.19,0.06,0.483,-0.071,29.9,-29.6,-15.7,230.0,-78.6,-60.9,1.9888396696023398,13.289505559506813,-0.12038584822792542,0.0
0.634,10.499,1.202,1.3730000000000002,9.7,0.43200000000000005,-0.674,1.117,1.7469999999999999,0.835,0.649,-0.131,30.5,-30.5,-12.1,224.1,-80.5,-63.7,0.6430447634641616,10.550613743223147,-0.588900733139448,0.0
2.0780000000000003,6.579,-0.271,1.598,9.642999999999999,0.7909999999999999,0.27899999999999997,-2.886,-0.9229999999999999,-0.711,-0.205,0.23800000000000002,30.1,-30.8,-9.7,210.7,-81.2,-71.7,2.074060788506045,6.4358467268090775,-1.3974672642328925,0.0
1.506,7.394,-0.33,1.5090000000000001,9.652000000000001,0.851,-0.017,-2.242,-1.179,0.321,0.40299999999999997,-0.11699999999999999,30.7,-30.8,-10.8,222.9,-79.8,-60.6,1.5009326578898097,7.230259397880394,-1.5870482651268258,0.0
0.924,9.704,0.017,1.444,9.667,0.802,-0.52,0.037000000000000005,-0.785,-0.05,0.265,-0.106,31.0,-30.2,-9.2,219.4,-80.2,-61.2,0.9241474317340674,9.56688906979774,-1.6255048602215394,0.0
1.065,12.599,1.037,1.21,9.705,0.718,-0.163,2.807,0.379,0.36200000000000004,0.005,-0.325,31.6,-30.1,-8.8,219.7,-81.1,-59.5,1.077911172155014,12.591241840472053,-1.1149580349454415,0.0
3.522,10.41,1.113,1.3090000000000002,9.696,0.6659999999999999,2.0709999999999997,1.449,-0.342,-0.601,-0.523,0.368,32.0,-30.8,-8.4,215.4,-82.6,-65.0,3.5346991720778917,10.441840036172048,-0.6965855452896286,0.0
3.491,11.15,1.089,1.395,9.665,0.9009999999999999,1.699,1.54,0.584,-0.405,-0.95,-0.184,31.1,-30.8,-11.3,224.6,-80.4,-58.9,3.507692646232913,11.165329546432991,-0.8526490597625818,0.0
-0.057,7.547000000000001,1.489,1.288,9.684,0.857,-1.3430000000000002,-2.039,0.773,0.534,-0.35100000000000003,-0.146,30.8,-29.6,-14.6,233.2,-80.4,-54.6,-0.03472276948310273,7.690045106147766,0.1989462105500741,0.0
1.07,5.765,-1.525,1.197,9.718,0.537,-0.115,-3.927,-2.089,0.105,-0.56,-0.19399999999999998,31.6,-29.3,-15.1,225.2,-82.1,-64.6,1.055660270266391,5.423174878704025,-2.486062273712121,0.0
1.1320000000000001,10.07,0.39299999999999996,0.977,9.745,0.506,0.153,0.034,-0.037000000000000005,0.11900000000000001,0.385,-0.185,31.0,-28.9,-15.2,229.3,-83.6,-62.6,1.1354265394126337,9.989524036453819,-1.32702264438435,0.0
0.6990000000000001,13.87,0.069,0.898,9.754,0.47200000000000003,0.098,4.212,-0.057999999999999996,-0.226,0.059000000000000004,0.221,31.4,-28.1,-13.8,228.5,-84.1,-62.3,0.6995446943304396,13.680212267050388,-2.2875077156324948,0.0
-0.828,11.775,4.688,0.945,9.741,0.618,-1.3880000000000001,2.4290000000000003,3.177,0.273,1.028,-0.033,32.1,-28.5,-14.0,231.9,-83.3,-57.6,-0.7773873943318436,12.39988548274501,2.6366762891837072,0.0
0.28,7.499,-1.7169999999999999,1.0190000000000001,9.75,0.265,-0.7440000000000001,-1.631,-1.955,-0.5,-0.171,0.47100000000000003,31.7,-29.9,-10.4,209.3,-83.8,-75.4,0.272055694703303,7.099695369986555,-2.963410425906435,0.0
1.0270000000000001,6.91,-1.374,1.2790000000000001,9.681000000000001,0.897,-0.21100000000000002,-2.764,-2.2430000000000003,-0.528,0.542,0.153,30.8,-30.1,-12.1,222.8,-81.8,-62.0,1.0053642151037194,6.577865880573812,-2.532119320287215,0.0
2.09,8.555,0.266,1.379,9.611,1.38,0.7659999999999999,-0.898,-0.9079999999999999,-0.261,0.42,0.078,31.4,-30.1,-11.5,235.8,-78.8,-45.8,2.0957999482087253,8.470916248013255,-1.2157637501724303,0.0
1.1320000000000001,11.722000000000001,1.729,1.27,9.635,1.31,-0.142,2.233,0.311,0.026000000000000002,-0.24600000000000002,-0.067,32.1,-30.0,-10.4,237.1,-78.8,-44.0,1.1712322397392092,11.841626586959682,-0.28327339374729954,0.0
2.6430000000000002,12.709000000000001,0.589,1.459,9.6,1.368,1.57,3.096,-0.672,-0.327,-0.484,0.315,31.7,-29.9,-11.9,237.2,-79.2,-44.1,2.6563083850874016,12.618699445035162,-1.601093713429576,0.0
5.162000000000001,9.824,3.266,1.8619999999999999,9.47,1.736,3.3,0.353,1.53,-0.132,-0.9390000000000001,-0.039,28.9,-30.5,-15.5,238.7,-75.0,-47.0,5.258571919940075,10.20150040955889,1.449409106010986,0.0
1.482,7.295,3.572,1.732,9.48,1.818,0.19699999999999998,-1.703,1.689,0.027999999999999997,-0.20600000000000002,-0.58,29.2,-29.0,-18.4,247.1,-75.2,-44.7,1.5945749219687566,7.7756538723713335,2.2735590327293056,0.0
-0.848,6.457000000000001,-0.05,1.225,9.625,1.4280000000000002,-1.945,-3.15,-1.588,0.536,-0.424,-0.429,30.4,-27.4,-19.1,251.2,-77.2,-40.3,-0.8489826735270535,6.361281899205722,-1.1080496464006013,0.0
0.91,10.76,-1.008,0.9440000000000001,9.687000000000001,1.203,-0.044000000000000004,1.133,-2.156,-0.27699999999999997,-0.244,-0.225,31.0,-26.7,-19.1,257.0,-81.0,-38.1,0.8886366872260577,10.43379096879385,-2.8227814045072224,0.0
1.499,12.315999999999999,3.517,0.968,9.701,1.058,0.26899999999999996,2.8569999999999998,2.478,0.499,0.043,0.23399999999999999,30.5,-26.6,-19.9,256.8,-81.4,-40.0,1.5636842385008283,12.727760439014842,1.3635071724464036,0.0
1.8940000000000001,11.957,-0.5770000000000001,1.187,9.715,0.617,0.7070000000000001,2.242,-1.194,0.078,-0.537,0.184,30.2,-27.3,-20.2,239.0,-82.3,-59.2,1.8876767707959743,11.684725048792787,-2.606509340691434,0.0
-0.271,9.972000000000001,1.281,1.025,9.744,0.419,-1.2209999999999999,0.245,0.21100000000000002,0.353,0.083,-0.172,29.6,-28.6,-19.5,230.8,-83.1,-67.4,-0.26162497033828147,10.045275899755293,-0.4232853324779893,0.0
0.728,7.726,0.034,1.0659999999999998,9.724,0.6920000000000001,-0.28800000000000003,-2.057,-0.594,-0.54,-0.022000000000000002,0.302,30.4,-28.9,-19.5,239.1,-82.8,-58.3,0.7283575350639291,7.619256177456068,-1.2800963258337794,0.0
1.348,8.495,-0.723,1.104,9.716000000000001,0.748,0.368,-1.348,-1.6030000000000002,0.248,0.31,-0.174,28.6,-28.6,-19.8,243.9,-81.6,-53.9,1.3384465822305636,8.24817448006736,-2.1635703115177085,0.0
0.215,9.73,0.335,1.068,9.738,0.45399999999999996,-0.659,0.06,0.217,0.11900000000000001,0.198,0.133,30.7,-29.1,-17.6,232.3,-83.1,-63.1,0.21764769509773682,9.64617825959003,-1.3172791902369356,0.0
1.1059999999999999,11.308,-0.19899999999999998,1.021,9.75,0.243,0.21899999999999997,1.328,-0.085,0.526,0.278,-0.37200000000000005,30.4,-29.0,-18.8,225.1,-83.3,-72.1,1.105146066301699,11.110173145644145,-2.115751839404982,0.0
0.723,11.945,0.024,0.688,9.782,-0.054000000000000006,0.154,1.8319999999999999,1.138,-0.322,0.13,-0.009000000000000001,31.7,-29.9,-15.3,195.1,-85.9,-99.1,0.722977059418718,11.775528721431206,-2.005132789194521,0.0
2.229,12.065,0.326,0.626,9.78,0.355,1.564,2.285,0.036000000000000004,-0.602,-0.556,-0.213,32.2,-28.3,-17.3,217.6,-85.9,-78.4,2.230977072587798,11.942691424525481,-1.7417820874475365,0.0
-1.149,8.885,2.157,0.546,9.782,0.42,-1.719,-1.0859999999999999,0.624,0.452,0.053,0.018000000000000002,31.2,-28.0,-18.4,246.9,-85.8,-50.3,-1.133157628637034,9.12371915894425,0.624321629751319,0.0
1.868,5.053999999999999,-2.373,0.9229999999999999,9.75,0.513,0.945,-4.695,-2.886,-0.17300000000000001,-0.045,0.043,31.4,-28.9,-18.8,236.6,-83.8,-60.9,1.846678652095989,4.576317454003831,-3.211006931800805,0.0
1.8530000000000002,9.354,0.934,0.7829999999999999,9.763,0.498,1.015,-0.9520000000000001,0.132,0.001,0.47,-0.133,30.7,-28.1,-18.2,238.4,-84.3,-58.8,1.8610479928185506,9.374175900108272,-0.6816212747965633,0.0
1.121,12.936,0.5770000000000001,0.7909999999999999,9.755,0.619,0.342,3.088,0.013000000000000001,-0.248,-0.17,0.106,32.0,-28.8,-16.7,240.2,-84.4,-53.4,1.127168132138337,12.844668456187353,-1.6351300414699053,0.0
-0.484,12.984000000000002,4.061,0.968,9.712,0.956,-0.872,3.315,2.373,0.187,0.594,0.008,31.9,-28.2,-18.4,247.1,-82.4,-46.9,-0.4161765466589036,13.484256155202372,1.8198532970814068,0.0
-0.067,9.038,-0.723,1.002,9.738999999999999,0.565,-1.251,-0.27699999999999997,-0.941,-0.08800000000000001,-0.102,0.23600000000000002,32.3,-29.5,-16.0,231.9,-83.3,-60.6,-0.07412621266886016,8.785564004798383,-2.240766034682424,0.0
0.5479999999999999,7.218999999999999,-0.098,0.919,9.73,0.8079999999999999,-0.40399999999999997,-2.471,-0.993,0.446,0.733,-0.28300000000000003,32.2,-29.4,-15.8,241.8,-82.2,-49.2,0.5465635331500139,7.097288478199804,-1.3242483005248191,0.0
0.903,7.461,-1.077,0.8009999999999999,9.75,0.688,0.033,-2.438,-1.713,-0.32799999999999996,0.027999999999999997,0.053,33.4,-30.7,-14.3,237.9,-84.0,-50.8,0.8900027338342774,7.169021089106131,-2.3355707563075585,0.0
0.5670000000000001,10.008,0.177,0.778,9.735,0.897,-0.21,0.27399999999999997,-0.72,-0.168,0.128,0.006,33.4,-29.9,-14.0,246.5,-83.0,-41.3,0.5697014458928856,9.89231290651581,-1.52658691928375,0.0
0.948,11.969000000000001,1.288,0.85,9.718,1.004,0.113,2.1959999999999997,0.401,-0.061,0.002,0.044000000000000004,33.0,-30.1,-13.6,247.4,-82.5,-39.9,0.9704230722986746,12.011826487149524,-0.7674063482690074,0.0
1.061,12.077,3.9339999999999997,0.917,9.672,1.334,0.14300000000000002,2.405,2.6,-0.065,0.45799999999999996,0.1,32.7,-29.9,-15.2,250.6,-81.7,-38.0,1.1522983126994535,12.561946986132773,1.8236508756172967,0.0
1.9180000000000001,10.587,1.4269999999999998,0.917,9.687999999999999,1.209,1.0,0.899,0.218,-0.061,-0.075,-0.008,32.9,-30.5,-15.0,250.2,-81.2,-37.5,1.9476819665572762,10.669292041539347,-0.41516778474821847,0.0
0.797,8.255,0.833,0.897,9.675,1.324,-0.107,-1.564,-0.579,-0.14800000000000002,-0.298,-0.129,32.9,-29.7,-15.1,252.2,-80.7,-35.0,0.8160346073158117,8.274449294301599,-0.5845505929299213,0.0
0.7759999999999999,8.476,0.040999999999999995,0.6859999999999999,9.71,1.188,0.09,-1.234,-1.147,0.062,-0.217,-0.294,33.1,-29.6,-15.8,258.0,-81.6,-31.3,0.7766832513097442,8.358773187355467,-1.4050291560968642,0.0
0.682,9.283,0.977,0.542,9.738,1.026,0.105,-0.474,0.01,0.271,-0.265,-0.042,34.7,-29.4,-15.4,260.7,-82.9,-27.2,0.6993849444204819,9.31240663258256,-0.6194234488218109,0.0
0.05,10.460999999999999,0.28,0.53,9.763,0.753,-0.315,0.563,0.004,0.373,0.009000000000000001,0.013000000000000001,33.9,-29.9,-15.5,257.6,-84.2,-33.1,0.05367542987958322,10.356864549320068,-1.4986315942433655,0.0
0.5770000000000001,11.77,-1.6780000000000002,0.531,9.78,0.48,0.003,2.081,-2.005,-0.132,0.091,-0.04,33.9,-30.9,-14.2,246.8,-85.2,-43.7,0.5629223305428174,11.313103865581073,-3.6576375403189987,0.0
0.249,11.174000000000001,1.389,0.5379999999999999,9.771,0.631,-0.5,1.68,1.203,0.179,0.302,0.159,33.3,-30.3,-13.9,250.4,-85.1,-38.2,0.2642816925796204,11.247157569736125,-0.5302827439156148,0.0
-0.065,9.529,1.18,0.611,9.755,0.797,-0.755,-0.18,0.51,-0.256,0.114,0.113,34.0,-30.5,-13.9,244.4,-84.9,-42.8,-0.048580110306247155,9.591290544703446,-0.4508344041495651,0.0
0.256,8.339,0.242,0.54,9.761000000000001,0.7809999999999999,-0.355,-1.395,-0.851,0.33399999999999996,0.174,-0.11800000000000001,33.9,-29.9,-13.1,252.3,-84.0,-34.0,0.2592748237952179,8.2587135778442,-1.1787483212619372,0.0
0.615,8.334,-0.424,0.556,9.772,0.603,0.078,-1.395,-1.232,0.0,-0.009000000000000001,0.11800000000000001,34.3,-31.0,-12.1,243.1,-85.2,-42.7,0.6105037033399537,8.140022343355435,-1.8387165300509227,0.0
0.848,9.905,0.32799999999999996,0.5920000000000001,9.779,0.429,0.256,0.126,-0.10099999999999999,0.11599999999999999,-0.308,-0.006,34.0,-30.8,-11.8,232.5,-85.7,-54.0,0.8504320955651853,9.815712669258046,-1.3653801834652892,0.0
0.43799999999999994,11.56,-0.07400000000000001,0.56,9.787,0.26899999999999996,-0.15,1.756,-0.35200000000000004,-0.113,-0.22899999999999998,0.001,34.0,-31.4,-11.2,223.8,-86.3,-63.5,0.4376477486010547,11.378832929413985,-2.0399866697183073,0.0
0.6679999999999999,10.341,2.322,0.638,9.773,0.509,0.03,0.568,1.814,-0.154,0.136,0.051,34.6,-31.6,-12.4,234.2,-85.6,-53.7,0.6886013897101252,10.584056729796412,0.5270296638146013,0.0
1.7890000000000001,9.687000000000001,0.397,0.628,9.765,0.648,1.146,-0.152,-0.16899999999999998,-0.33899999999999997,-0.05,-0.034,34.1,-31.6,-12.1,236.2,-85.2,-49.9,1.7933754559878488,9.610549906250178,-1.271705144023214,0.0
0.44299999999999995,8.588,1.5659999999999998,0.615,9.736,1.002,-0.177,-1.065,0.387,-0.34,-0.028999999999999998,-0.055,34.7,-30.8,-14.6,249.8,-84.0,-37.9,0.4703173943351866,8.727784194812967,0.08326822538475875,0.0
0.512,8.672,0.151,0.496,9.74,1.03,0.011000000000000001,-1.0490000000000002,-0.8909999999999999,0.141,-0.01,-0.106,34.6,-29.6,-14.8,260.2,-82.8,-27.9,0.5146316365339237,8.570982854429696,-1.3273794437728106,0.0
1.1540000000000001,9.693999999999999,0.809,0.49700000000000005,9.75,0.932,0.645,0.019,-0.068,0.205,0.149,-0.09699999999999999,34.1,-29.0,-13.9,261.0,-83.5,-26.3,1.1670063286231185,9.687787190913838,-0.8629649891619882,0.0
1.022,11.193,1.185,0.488,9.767000000000001,0.736,0.278,1.347,0.331,0.055,-0.195,0.127,35.3,-29.8,-14.0,256.2,-84.9,-31.7,1.0371373324565627,11.229548062994288,-0.7440124021319057,0.0
0.7809999999999999,11.277000000000001,2.1430000000000002,0.585,9.752,0.857,0.196,1.525,1.285,-0.187,0.233,-0.045,34.8,-30.1,-14.6,254.4,-83.9,-34.3,0.8129653169334344,11.475019495061048,0.190142003334981,0.0
0.5770000000000001,9.56,-0.031,0.5660000000000001,9.76,0.7709999999999999,-0.042,-0.159,-0.733,-0.05,-0.36,0.156,34.9,-30.2,-14.3,253.1,-84.6,-34.7,0.5765306212709107,9.415062210690703,-1.6588266972655359,0.0
0.426,8.981,0.872,0.659,9.735,0.983,-0.245,-0.804,-0.07,-0.205,-0.03,0.004,34.2,-30.5,-14.5,251.5,-83.5,-35.9,0.44089712121689506,8.997867083357788,-0.6664973208716423,0.0
-0.45,9.192,0.852,0.6559999999999999,9.728,1.055,-0.8909999999999999,-0.723,-0.111,0.16,0.051,0.044000000000000004,34.7,-30.1,-15.2,255.8,-82.7,-31.9,-0.43423652980537797,9.20516724076238,-0.7054096014215545,0.0
0.955,8.825,-0.515,0.52,9.761000000000001,0.7859999999999999,0.435,-0.9359999999999999,-1.301,0.078,0.09,-0.006999999999999999,34.0,-30.5,-14.4,257.0,-83.9,-30.6,0.9478454402115595,8.607719714365658,-2.0165875484071956,0.0
0.725,10.571,0.565,0.5479999999999999,9.78,0.47700000000000004,0.366,0.525,0.04,0.19399999999999998,-0.031,-0.272,34.1,-30.5,-14.5,247.8,-85.4,-43.1,0.7296785727844719,10.512319668592891,-1.2448274441601395,0.0
0.498,12.661,0.01,0.44799999999999995,9.788,0.413,0.168,2.847,-0.354,-0.198,-0.129,-0.001,34.3,-30.4,-13.7,239.6,-86.6,-50.5,0.4980591439358388,12.477790052550866,-2.146093542603523,0.0
1.4340000000000002,9.352,2.188,0.578,9.777000000000001,0.502,0.387,-0.16399999999999998,2.611,0.063,-0.361,0.198,34.3,-30.2,-14.1,243.1,-85.7,-46.2,1.453115000511711,9.585578017095012,0.5556571546131024,0.0
1.051,8.708,1.022,0.674,9.757,0.7190000000000001,0.29100000000000004,-1.056,0.24100000000000002,-0.073,0.11599999999999999,-0.23800000000000002,33.2,-30.1,-15.4,243.7,-84.3,-46.1,1.0637419101295227,8.752991440937729,-0.4816045924873078,0.0
0.385,8.485,0.7609999999999999,0.5329999999999999,9.755,0.852,-0.147,-1.27,-0.091,0.012,-0.11199999999999999,-0.171,33.8,-29.2,-14.6,255.8,-84.0,-33.6,0.3962732485550555,8.490273861854014,-0.6933889696253914,0.0
0.759,9.041,0.6679999999999999,0.502,9.758,0.841,0.298,-0.9159999999999999,-0.406,-0.05,-0.002,0.0,35.2,-28.3,-15.7,260.6,-84.2,-29.9,0.7687229405004506,9.021515443046487,-0.8850481069535583,0.0
0.318,10.743,1.176,0.516,9.769,0.679,-0.569,1.026,0.449,0.54,0.182,0.084,34.8,-28.9,-14.0,255.2,-84.6,-34.6,0.3319138737590451,10.786110720163867,-0.6676808464920676,0.0
1.123,12.062000000000001,-0.893,0.583,9.783,0.355,0.626,2.509,-1.454,0.191,-0.2,0.006999999999999999,34.3,-30.1,-13.0,229.8,-86.0,-58.7,1.1174455218982107,11.733683140158286,-2.9363953194273518,0.0
-0.757,11.081,2.09,0.62,9.772,0.54,-1.3019999999999998,1.268,1.464,0.064,0.313,0.045,34.1,-30.2,-12.8,238.6,-85.2,-49.0,-0.7372688766457692,11.276151860386438,0.18585969179182427,0.0
0.129,8.83,1.547,0.6990000000000001,9.751,0.773,-0.57,-0.9209999999999999,0.774,-0.335,0.203,0.16899999999999998,33.4,-30.7,-11.9,239.5,-84.5,-46.1,0.14985882406645978,8.964125595709339,0.02728804130188145,0.0
0.85,8.085,0.122,0.745,9.732999999999999,0.937,0.14400000000000002,-1.564,-0.43,-0.004,0.057,0.042,33.8,-30.9,-12.2,246.3,-83.1,-38.3,0.8518814060639197,7.986898843672332,-1.2602991434370447,0.0
0.623,8.603,0.175,0.7979999999999999,9.726,0.9740000000000001,-0.175,-1.123,-0.856,-0.184,0.003,0.098,33.4,-30.1,-11.6,245.6,-82.8,-38.9,0.6258847555163529,8.507118781928677,-1.291340893400565,0.0
0.6729999999999999,10.564,1.3019999999999998,0.784,9.74,0.8340000000000001,-0.085,0.762,0.35100000000000003,0.127,-0.021,-0.032,33.8,-30.1,-11.6,241.5,-82.9,-41.7,0.6918800148093779,10.63031476710699,-0.5137499365785523,0.0
0.73,11.888,-0.402,0.748,9.756,0.65,-0.114,2.153,-1.071,-0.091,-0.25,0.21600000000000003,33.3,-30.3,-12.1,238.3,-84.3,-47.6,0.7253925751835506,11.646560450833068,-2.418777227642019,0.0
1.166,11.184000000000001,2.373,0.91,9.732999999999999,0.785,0.256,1.4509999999999998,1.588,-0.168,0.017,0.19399999999999998,32.0,-31.2,-10.7,234.6,-83.3,-49.5,1.1984016423739026,11.421454629961783,0.43214423434785987,0.0
2.272,9.39,-0.28300000000000003,0.9640000000000001,9.738,0.648,1.102,-0.6629999999999999,-0.392,0.314,-0.603,-0.231,32.8,-30.2,-11.3,229.5,-83.0,-54.6,2.2686541078464275,9.2024935091281,-1.8924837524815716,0.0
0.39299999999999996,8.811,0.991,0.861,9.748,0.634,-0.585,-0.961,0.525,-0.314,0.013000000000000001,-0.156,32.6,-30.3,-12.5,228.0,-83.8,-58.5,0.4039415201055166,8.85083118635827,-0.5194897101220375,0.0
1.176,8.027999999999999,0.249,0.9570000000000001,9.714,0.941,0.254,-1.682,-0.735,-0.24100000000000002,-0.327,0.126,33.2,-30.1,-13.1,240.2,-82.5,-46.0,1.1799306818899287,7.9516460554287605,-1.1282063619387126,0.0
1.496,9.204,-0.019,0.996,9.712,0.93,0.501,-0.508,-0.9490000000000001,-0.077,-0.03,-0.102,32.4,-29.3,-14.3,241.3,-81.9,-46.1,1.4954945471110848,9.06478865829313,-1.5953355885334135,0.0
0.838,10.662,1.5590000000000002,0.941,9.729,0.797,-0.218,0.89,0.18899999999999997,0.04,0.035,-0.073,32.9,-30.3,-14.2,239.0,-82.6,-48.9,0.8596043538482806,10.77011718355406,-0.2768125852606589,0.0
2.227,11.404000000000002,0.5479999999999999,0.973,9.714,0.924,1.182,1.797,-0.28,-0.415,-0.401,0.006999999999999999,31.7,-29.5,-14.9,239.4,-82.8,-48.9,2.2355475427653935,11.326884966353356,-1.4195256753697636,0.0
-1.061,11.130999999999998,3.263,0.738,9.737,0.902,-1.7480000000000002,1.339,2.266,0.475,0.19699999999999998,0.102,32.6,-27.7,-15.2,252.3,-82.0,-38.3,-1.0095016400642132,11.525266209231686,1.349517041407742,0.0
0.8140000000000001,8.447000000000001,1.6540000000000001,0.882,9.706,1.092,-0.17800000000000002,-1.268,0.34,-0.134,0.31,0.152,33.1,-28.8,-16.1,249.8,-82.7,-40.9,0.8453738470298308,8.602274257272379,0.19063489037151427,0.0
0.759,8.811,0.6970000000000001,0.8690000000000001,9.692,1.22,-0.136,-0.828,-0.42,0.0,-0.038,-0.032,32.8,-28.7,-15.7,253.9,-81.2,-35.5,0.7736680615358853,8.7998343791405,-0.8123814561252921,0.0
0.74,8.682,0.43799999999999994,0.858,9.7,1.159,-0.109,-0.925,-0.8190000000000001,-0.081,-0.13,0.037000000000000005,33.1,-28.6,-17.8,256.5,-81.4,-35.7,0.7487080298156001,8.629138747772458,-1.045929614162262,0.0
0.795,10.353,1.6159999999999999,0.815,9.724,0.976,0.035,0.6,0.5710000000000001,0.23,-0.17600000000000002,-0.142,34.6,-28.8,-21.2,257.4,-82.1,-38.8,0.8224109523645079,10.474875647274088,-0.1694414340566528,0.0
0.848,10.901,-0.371,0.732,9.753,0.7140000000000001,-0.46399999999999997,1.04,-0.534,0.152,-0.491,0.036000000000000004,34.6,-28.2,-20.6,252.3,-83.7,-43.4,0.8433110018821197,10.678816734282517,-2.2226663514149534,0.0
0.675,10.571,3.931,0.727,9.757,0.665,-0.027999999999999997,0.775,3.345,0.251,0.285,-0.106,33.2,-29.0,-22.7,253.2,-84.0,-47.6,0.7205784450199174,11.082908153474934,2.074690474796542,0.0
1.391,9.982000000000001,1.235,0.711,9.74,0.889,0.6890000000000001,0.16,0.485,-0.429,-0.142,0.046,33.2,-27.3,-22.0,257.1,-84.0,-41.7,1.4099940356973557,10.043373318013309,-0.4929495048341468,0.0
0.397,8.524,1.379,0.7240000000000001,9.703,1.224,-0.326,-1.179,0.155,-0.175,-0.149,-0.073,33.5,-27.8,-22.7,266.1,-82.0,-32.5,0.42636652839762174,8.632996851650823,-0.08604035593335335,0.0
0.615,8.349,0.371,0.591,9.701,1.305,0.02,-1.341,-0.929,-0.049,0.075,-0.172,34.6,-27.5,-24.5,273.2,-81.5,-25.7,0.6232898565202957,8.289753195367213,-1.055068109013823,0.0
1.104,9.34,1.456,0.615,9.675,1.48,0.489,-0.335,-0.024,-0.21100000000000002,0.025,0.07,34.4,-26.5,-24.4,276.8,-81.0,-22.4,1.1412372918179217,9.44697676860448,-0.16297047957019362,0.0
0.97,10.276,1.36,0.698,9.658999999999999,1.548,0.31,0.524,-0.13,-0.006,0.012,-0.062,34.5,-26.8,-24.8,275.4,-80.1,-23.2,1.0063856059228542,10.354031514704074,-0.40975041757898856,0.0
1.1179999999999999,10.887,1.13,0.7090000000000001,9.672,1.455,0.392,1.248,-0.306,-0.08,0.083,-0.159,34.1,-26.1,-24.8,274.5,-80.3,-25.8,1.1463322886876457,10.91726678841861,-0.7435059881427506,0.0
1.171,10.444,0.855,0.655,9.675,1.464,0.47700000000000004,0.726,-0.569,-0.275,-0.14300000000000002,-0.049,34.7,-25.8,-24.4,274.4,-80.7,-24.2,1.1924620236542645,10.434069621718134,-0.9421398257589982,0.0
-0.287,10.125,3.687,0.488,9.684,1.4680000000000002,-0.804,0.53,2.063,0.397,0.08900000000000001,-0.287,34.4,-25.3,-23.9,277.4,-80.4,-22.4,-0.19244987305798494,10.601962445880172,1.937348275996464,0.0
0.35200000000000004,8.413,1.736,0.485,9.673,1.5390000000000001,-0.341,-0.987,0.551,-0.18600000000000003,-0.20800000000000002,0.185,34.4,-24.5,-22.1,281.1,-81.2,-16.5,0.3984974692140223,8.583387828037774,0.2877883953932703,0.0
0.19399999999999998,8.952,1.2790000000000001,0.49700000000000005,9.646,1.6980000000000002,-0.348,-0.6579999999999999,-0.47,-0.13699999999999998,-0.09,0.043,34.4,-24.1,-23.0,280.5,-79.8,-16.8,0.23181333009555785,9.03868737647864,-0.24530407716895763,0.0
0.156,9.204,0.28,0.456,9.667,1.587,-0.34600000000000003,-0.37,-1.35,-0.16,-0.111,0.182,32.2,-24.7,-20.4,279.5,-79.9,-15.7,0.16369471892432413,9.119580848260679,-1.2738921426217105,0.0
0.139,9.943,1.551,0.45,9.705,1.334,-0.406,0.055999999999999994,0.311,0.064,-0.033,0.094,32.4,-24.1,-22.0,280.7,-81.6,-18.5,0.17507053547264687,10.061547416085222,-0.1509466842236462,0.0
0.33799999999999997,11.05,2.279,0.525,9.715,1.229,-0.113,1.33,0.624,0.168,0.10300000000000001,0.114,32.0,-23.9,-21.8,277.4,-82.0,-22.1,0.386803287163048,11.274799143537473,0.3739953073589686,0.0
0.7709999999999999,12.089,0.996,0.537,9.724,1.1520000000000001,0.205,2.367,-0.192,0.2,-0.037000000000000005,-0.098,30.7,-24.5,-21.1,273.3,-82.2,-25.1,0.7908685908263138,12.080889430356123,-1.0756465235169652,0.0
0.716,8.691,3.716,0.589,9.724,1.13,-0.10099999999999999,-1.0659999999999998,2.943,0.251,-0.16399999999999998,0.026000000000000002,30.9,-25.4,-20.3,271.9,-82.8,-26.6,0.7891438065474503,9.191268660352357,2.1800517117289746,0.0
1.9969999999999999,8.873,0.982,0.6609999999999999,9.719,1.133,1.3880000000000001,-0.831,-0.271,-0.021,0.001,-0.033,30.2,-25.4,-22.5,270.5,-82.6,-28.4,2.016026945673298,8.904729640113679,-0.5691110531346877,0.0
0.905,8.552,2.136,0.78,9.684,1.337,0.057999999999999996,-1.014,0.777,-0.21600000000000003,-0.10300000000000001,0.17800000000000002,31.1,-25.4,-22.3,269.7,-81.3,-29.9,0.9545927828072958,8.785793628381015,0.645606643794632,0.0
0.764,8.727,0.381,0.7440000000000001,9.686,1.3419999999999999,0.044000000000000004,-0.973,-0.94,0.124,0.068,-0.145,30.2,-25.0,-22.8,271.8,-80.8,-29.5,0.7727135335566608,8.663667755035773,-1.1104777464730267,0.0
0.8,9.855,0.565,0.569,9.718,1.186,0.23,0.13699999999999998,-0.621,0.14300000000000002,0.011000000000000001,-0.18100000000000002,30.1,-24.7,-22.4,274.1,-81.9,-26.6,0.8115230631424991,9.806141442500563,-1.1230629223960817,0.0
0.247,11.315,1.556,0.524,9.731,1.101,-0.134,1.405,0.182,0.205,0.20600000000000002,-0.2,31.0,-24.9,-21.8,274.4,-82.7,-26.1,0.27685278355777737,11.414350125989909,-0.38384077108928816,0.0
1.2,11.133,0.96,0.401,9.758,0.884,0.509,1.6769999999999998,0.18600000000000003,-0.355,-0.18100000000000002,0.08199999999999999,31.7,-24.5,-21.2,275.1,-84.3,-24.4,1.2146681565261737,11.131482605330833,-0.9591482037403504,0.0
-0.098,9.972000000000001,3.9819999999999998,0.41100000000000003,9.732999999999999,1.129,-0.509,0.239,2.852,0.405,0.047,-0.061,32.0,-25.1,-21.7,278.9,-83.0,-21.0,-0.019521635718765848,10.501846843562681,2.2399874508781172,0.0
0.426,8.437000000000001,1.276,0.435,9.731,1.136,0.003,-1.126,0.033,0.0,0.064,0.063,32.5,-24.4,-20.8,278.8,-83.2,-19.4,0.4512137999102069,8.529812828695094,-0.17697517961349996,0.0
0.314,8.662,-0.261,0.43799999999999994,9.73,1.141,-0.177,-1.072,-1.275,-0.192,-0.253,0.026000000000000002,31.7,-24.8,-21.4,277.4,-82.8,-21.2,0.3087404729712783,8.492239570940264,-1.7272832396876314,0.0
0.0,9.637,0.8240000000000001,0.38299999999999995,9.754,0.9359999999999999,-0.441,-0.017,-0.067,-0.021,0.028999999999999998,-0.105,31.4,-24.7,-22.0,278.4,-83.8,-23.1,0.01346050324209045,9.637271780021928,-0.8207048512379282,0.0
0.687,10.542,1.58,0.326,9.767000000000001,0.821,0.32299999999999995,0.861,0.7829999999999999,0.285,-0.233,-0.086,31.6,-24.4,-23.2,281.9,-84.4,-21.2,0.7095687690763923,10.65553858724756,-0.24112772057491294,0.0
0.431,12.0,0.028999999999999998,0.261,9.789,0.524,0.106,2.089,-0.40700000000000003,0.172,-0.44299999999999995,-0.07400000000000001,31.4,-25.0,-22.9,277.9,-85.8,-24.1,0.43124719220345764,11.829546770012877,-2.0155523003123896,0.0
-0.017,10.109,3.747,0.325,9.793,0.405,-0.34,0.091,3.503,0.435,0.134,0.10099999999999999,30.6,-25.3,-22.9,271.5,-86.7,-32.9,0.009486197754324,10.59902713585666,1.9729958908792156,0.0
1.422,9.137,0.512,0.43200000000000005,9.79,0.377,1.405,-0.601,-0.375,-0.109,-0.171,-0.031,29.8,-26.0,-23.2,256.0,-86.9,-49.4,1.4253380988313207,9.089409545798528,-1.0583205623848135,0.0
-0.532,8.777000000000001,1.2830000000000001,0.484,9.772,0.6679999999999999,-1.013,-1.045,0.615,-0.325,-0.141,0.201,29.1,-26.4,-23.4,263.9,-86.1,-40.9,-0.5170059364619042,8.868452977047713,-0.21929125736497412,0.0
-0.177,8.378,-0.922,0.409,9.772,0.715,-0.675,-1.4969999999999999,-1.482,0.212,0.20199999999999999,-0.08199999999999999,29.4,-25.4,-25.2,272.4,-84.6,-32.7,-0.18849165856883315,8.100341030230926,-2.3283563061970094,0.0
1.082,9.544,0.17,0.429,9.771,0.723,0.67,-0.122,-0.622,-0.11699999999999999,0.09699999999999999,0.001,30.5,-25.4,-24.0,275.1,-85.2,-30.4,1.0840589845358237,9.432085340197673,-1.46565420658329,0.0
0.28300000000000003,10.868,1.702,0.41600000000000004,9.774,0.6859999999999999,-0.22699999999999998,1.099,1.138,0.175,0.475,-0.09300000000000001,30.1,-25.4,-23.9,273.7,-85.1,-31.7,0.3033572134745745,10.998590909979779,-0.17114145010233583,0.0
1.5590000000000002,11.663,-0.934,0.368,9.785,0.539,1.249,1.837,-1.5330000000000001,-0.281,-0.012,0.087,31.5,-24.5,-23.2,270.0,-86.5,-34.3,1.5501447010382272,11.332111257699294,-2.9169696345639298,0.0
-1.405,10.312000000000001,4.949,0.365,9.77,0.76,-1.696,0.441,4.141,0.299,0.484,0.188,31.7,-24.7,-21.1,276.9,-85.1,-25.2,-1.3392322738541669,11.005345867762893,3.1452804720059024,0.0
0.45299999999999996,8.27,-0.122,0.547,9.758,0.812,-0.061,-1.4969999999999999,-1.035,-0.028999999999999998,0.284,0.331,31.8,-25.5,-19.4,267.7,-84.7,-29.5,0.45122557289126775,8.128589454006647,-1.5282087457480562,0.0
1.413,8.112,0.048,0.855,9.714,1.037,0.546,-1.5759999999999998,-1.006,-0.302,0.059000000000000004,0.13699999999999998,31.6,-27.3,-19.1,255.6,-82.5,-39.9,1.4136372816142464,7.999475090963021,-1.346642084999743,0.0
0.79,9.232000000000001,-0.006999999999999999,0.87,9.706,1.097,-0.09699999999999999,-0.474,-1.097,-0.19699999999999998,0.136,0.018000000000000002,32.8,-27.1,-19.6,257.3,-81.8,-38.4,0.789721189755661,9.096121538703798,-1.57825422400187,0.0
0.7490000000000001,10.164,1.1159999999999999,0.867,9.7,1.153,-0.115,0.48,-0.016,0.004,-0.001,-0.054000000000000006,32.8,-26.8,-20.3,258.6,-81.4,-37.0,0.7713048301695207,10.204146685298142,-0.6275605818374372,0.0
0.804,11.842,1.192,0.732,9.727,1.0090000000000001,0.152,2.0340000000000003,0.15,0.318,0.047,-0.24100000000000002,33.5,-26.8,-22.0,260.0,-82.3,-36.6,0.8248658203973656,11.870728609300068,-0.8400253940715807,0.0
0.8859999999999999,11.536,2.327,0.6559999999999999,9.753,0.79,0.23,1.7830000000000001,1.537,-0.406,-0.242,0.214,32.8,-26.7,-19.9,257.4,-84.0,-39.7,0.9179996901426098,11.761361937959856,0.3268989648304459,0.0
1.2329999999999999,9.668,0.086,0.635,9.753,0.8059999999999999,0.674,-0.094,-0.825,-0.084,-0.426,-0.027000000000000003,32.8,-27.3,-20.2,258.3,-84.1,-38.9,1.2340877554918117,9.53989900326702,-1.5701157343361862,0.0
0.606,8.406,2.222,0.735,9.713,1.138,-0.13,-1.306,1.084,-0.247,0.18,-0.07,32.2,-26.4,-22.3,263.8,-82.7,-35.7,0.6500106135173592,8.65827770386673,0.7596508441639878,0.0
-0.105,8.572000000000001,-0.261,0.589,9.714,1.208,-0.654,-1.1520000000000001,-1.567,0.023,-0.052000000000000005,-0.038,32.5,-25.7,-21.8,272.7,-82.1,-26.4,-0.11047907206600577,8.40544155593583,-1.7013749217566674,0.0
1.358,8.792,0.318,0.596,9.708,1.252,0.7759999999999999,-0.907,-0.919,-0.201,0.174,-0.003,32.4,-26.5,-21.8,273.5,-81.9,-25.5,1.364624031641994,8.714704975131392,-1.198445012791703,0.0
0.9,11.109000000000002,1.401,0.7340000000000001,9.725,1.03,0.465,1.057,0.179,0.159,-0.032,-0.14800000000000002,32.6,-25.7,-22.7,266.3,-82.5,-33.7,0.9250388568976852,11.183247139567587,-0.5118286125089406,0.0
0.812,12.902999999999999,0.804,0.496,9.766,0.747,0.282,3.1710000000000003,0.071,0.124,-0.040999999999999995,-0.32,33.2,-25.5,-22.1,263.0,-83.8,-36.8,0.8224129349201256,12.850590024602457,-1.4068198122232483,0.0
-1.87,11.73,4.178,0.28300000000000003,9.78,0.659,-2.033,1.885,3.258,0.5,0.353,-0.081,34.6,-23.8,-20.9,272.0,-85.1,-27.4,-1.8218231642300295,12.27283564303194,2.145681625358179,0.0
-0.639,8.126,0.132,0.317,9.786,0.556,-0.9570000000000001,-1.66,-0.424,0.066,0.218,0.175,35.0,-25.5,-19.7,265.9,-86.4,-31.6,-0.6376890009771764,8.031250966028303,-1.244982593734619,0.0
1.575,7.382000000000001,-0.843,0.53,9.774,0.598,0.993,-2.381,-1.3780000000000001,-0.20800000000000002,-0.027000000000000003,0.302,34.7,-26.6,-18.4,258.9,-85.9,-35.7,1.566115923296571,7.128957971677516,-2.100104081433235,0.0
1.185,9.06,0.644,0.675,9.743,0.8859999999999999,0.665,-0.904,-0.44,-0.31,0.127,0.006,33.8,-26.5,-19.3,255.3,-84.2,-40.2,1.1948164988975978,9.0351948221309,-0.9166400930032881,0.0
0.618,10.47,1.195,0.736,9.728,0.998,-0.073,0.5720000000000001,0.317,0.09300000000000001,-0.243,-0.021,34.0,-26.8,-19.3,258.0,-82.7,-36.3,0.6387201792211805,10.519522934953123,-0.6020986245216957,0.0
0.797,11.77,0.706,0.731,9.752,0.7240000000000001,0.11900000000000001,2.049,-0.037000000000000005,0.305,-0.04,-0.036000000000000004,32.7,-27.2,-19.6,255.6,-83.4,-41.2,0.8058572832111408,11.717794798742275,-1.3078318292747142,0.0
-0.318,11.713,3.366,0.605,9.761000000000001,0.728,-1.021,1.8319999999999999,2.792,-0.193,0.198,-0.092,33.0,-26.7,-20.5,251.1,-84.5,-46.5,-0.2752070776736226,12.114743433286558,1.3351784936998303,0.0
1.305,9.318999999999999,-0.132,0.54,9.771,0.63,0.963,-0.503,-0.912,-0.20199999999999999,-0.495,0.032,33.5,-26.7,-19.5,255.2,-85.3,-41.6,1.303469724564055,9.158982112881544,-1.725752975677805,0.0
-0.354,8.26,2.6239999999999997,0.526,9.751,0.8959999999999999,-0.883,-1.486,1.7619999999999998,-0.10099999999999999,0.386,-0.071,33.5,-26.2,-20.6,265.2,-84.0,-32.6,-0.31292386423576946,8.585970173016154,1.1922612311354759,0.0
0.47200000000000003,8.027999999999999,-0.187,0.49200000000000005,9.735,1.08,-0.035,-1.695,-1.264,-0.043,0.111,-0.085,33.7,-26.2,-21.1,270.0,-83.3,-26.0,0.4683914905146869,7.87928077786967,-1.5505098629505503,0.0
0.809,9.424,0.18899999999999997,0.402,9.74,1.072,0.397,-0.332,-0.914,-0.136,0.01,0.012,33.7,-25.3,-21.1,277.0,-83.3,-20.5,0.8123943760432865,9.31756697178798,-1.4230035502482268,0.0
0.6509999999999999,10.98,0.972,0.45799999999999996,9.745,1.001,0.23199999999999998,1.183,-0.196,0.09300000000000001,0.067,-0.134,34.1,-26.7,-20.6,272.7,-83.6,-24.6,0.6678813594144141,10.984141686623737,-0.9118941264869547,0.0
-0.5720000000000001,12.671,1.121,0.235,9.775,0.747,-0.7809999999999999,2.68,0.354,0.204,0.087,-0.092,34.6,-24.8,-19.8,280.5,-85.1,-18.2,-0.5573366340936744,12.678616027319649,-1.039296641046462,0.0
-1.238,9.836,2.574,0.281,9.774,0.7440000000000001,-1.392,-0.08,1.926,0.106,0.244,0.20600000000000002,34.4,-25.0,-20.2,279.7,-85.4,-17.8,-1.2044725200517044,10.132891220571182,0.8824836885244742,0.0
-0.919,9.038,1.291,0.315,9.763,0.872,-1.234,-0.7240000000000001,0.419,-0.46799999999999997,0.498,0.10300000000000001,34.4,-26.6,-18.7,275.6,-84.6,-19.8,-0.8992462408309365,9.128373320593205,-0.24666316756584106,0.0
0.63,8.212,-0.45299999999999996,0.305,9.74,1.103,0.361,-1.546,-1.587,-0.324,0.077,0.204,35.5,-26.0,-18.2,278.2,-83.7,-14.8,0.6211631046271172,8.014953940788343,-1.8476262404748969,0.0
0.433,8.693999999999999,1.291,0.418,9.714,1.276,-0.035,-0.903,-0.05,-0.028999999999999998,0.19399999999999998,0.075,35.5,-26.2,-18.5,274.2,-82.4,-18.0,0.4616413504558822,8.785497520942775,-0.20427083261594037,0.0
0.8190000000000001,11.095,1.686,0.526,9.702,1.33,0.368,0.8859999999999999,0.128,-0.028999999999999998,-0.09,-0.008,34.8,-26.5,-17.7,270.5,-81.9,-19.9,0.8579127718615883,11.217165692362787,-0.22707158773400904,0.0
0.742,13.671,1.058,0.37,9.736,1.117,0.37200000000000005,3.9360000000000004,-0.059000000000000004,0.114,-0.08800000000000001,-0.131,35.8,-26.5,-18.2,272.6,-82.9,-19.2,0.7624837582567434,13.650538985143934,-1.2835781758273455,0.0
1.156,9.465,4.949,0.512,9.705,1.311,0.769,-0.32,3.525,0.21899999999999997,-0.019,0.035,34.7,-26.6,-19.0,272.2,-81.6,-20.5,1.2689269552111897,10.159147068217369,3.2552599325812555,0.0
1.2790000000000001,8.677,1.128,0.5589999999999999,9.701,1.32,0.76,-0.972,-0.17,-0.115,-0.402,-0.031,34.5,-26.6,-18.2,269.1,-81.8,-22.5,1.3046455570235531,8.73798365603704,-0.3795992589142625,0.0
0.0,7.252000000000001,1.109,0.547,9.693,1.386,-0.5820000000000001,-2.38,-0.005,0.08,-0.267,-0.129,33.6,-26.4,-19.7,272.8,-81.2,-21.7,0.02682439732974332,7.335137315184136,-0.12816403201042736,0.0
-0.354,8.811,-0.012,0.348,9.714,1.3019999999999998,-0.537,-0.74,-1.335,0.14800000000000002,0.026000000000000002,-0.095,34.4,-25.0,-20.0,279.7,-81.9,-15.6,-0.3541812699512167,8.684003123000538,-1.4905792121630606,0.0
0.8859999999999999,11.907,0.8,0.434,9.72,1.229,0.397,2.211,-0.237,-0.057,0.098,0.141,34.3,-25.8,-21.3,278.9,-82.3,-18.0,0.9029549490764502,11.867897389881842,-1.240696942518236,0.0
0.934,12.052999999999999,0.883,0.414,9.745,1.015,0.5820000000000001,2.286,-0.098,-0.063,-0.225,-0.18899999999999997,34.7,-26.4,-19.4,271.8,-83.5,-23.8,0.9494950623818917,12.025720919436525,-1.1863176195012484,0.0
-2.425,9.917,6.065,0.31,9.712,1.3219999999999998,-2.68,0.11599999999999999,4.762,-0.006,0.8240000000000001,0.305,34.9,-25.1,-19.6,281.8,-82.4,-13.2,-2.284427602119316,10.807177413365807,4.358674785609879,0.0
0.33,7.772,-0.6779999999999999,0.511,9.683,1.463,-0.187,-1.895,-2.207,0.212,0.027999999999999997,0.268,34.6,-26.5,-19.4,273.9,-81.3,-17.4,0.31258213535712726,7.545857967379552,-1.9836551980599122,0.0
0.8640000000000001,8.356,0.321,0.755,9.658,1.524,0.109,-1.3019999999999998,-1.203,-0.5760000000000001,0.239,0.298,34.6,-27.8,-18.2,264.5,-80.6,-26.0,0.8722315964198183,8.287546964111275,-1.108174336400603,0.0
-0.69,9.529,1.4369999999999998,0.6509999999999999,9.646,1.6440000000000001,-1.357,-0.114,-0.35200000000000004,0.20800000000000002,0.267,-0.163,34.0,-28.0,-18.4,267.2,-79.3,-22.8,-0.6484894734854055,9.638279353761845,-0.1610667613964174,0.0
0.07400000000000001,10.274000000000001,-0.031,0.48200000000000004,9.708,1.297,-0.415,0.539,-1.4,0.214,0.31,0.016,34.8,-26.8,-16.3,268.3,-81.4,-20.2,0.07327935597521523,10.121366966530914,-1.7646738692474357,0.0
0.615,12.29,1.5419999999999998,0.369,9.729,1.178,0.239,2.549,0.35200000000000004,-0.27699999999999997,0.461,0.034,35.8,-27.4,-14.6,269.6,-83.1,-18.4,0.6465712873433614,12.371634180515338,-0.5698265296454206,0.0
2.555,9.347000000000001,3.469,0.535,9.638,1.7309999999999999,2.02,-0.29100000000000004,1.7380000000000002,-0.16899999999999998,-0.018000000000000002,-0.048,35.9,-27.1,-14.2,267.7,-80.7,-17.0,2.658622371533691,9.782671838717658,1.7774852408785558,0.0
1.068,9.419,2.866,0.48,9.592,1.984,0.14800000000000002,-0.285,1.035,-0.077,-0.063,-0.341,36.1,-26.0,-15.4,270.0,-78.1,-14.6,1.1665819151109758,9.758433248479347,1.2182808257166278,0.0
-1.204,7.688,1.6230000000000002,0.036000000000000004,9.639,1.8030000000000002,-1.207,-1.903,-0.601,0.88,-0.256,-0.701,36.8,-25.0,-15.2,279.7,-78.5,-5.0,-1.1523392944045519,7.857426319714304,0.34936339366357005,0.0
-0.239,10.238,-1.262,-0.397,9.718,1.253,0.16699999999999998,0.192,-2.85,-0.085,-0.46299999999999997,-0.225,38.3,-23.4,-15.5,299.3,-81.6,10.3,-0.26653931024566657,9.878998219767205,-2.9666074849784483,0.0
0.316,11.152999999999999,1.9469999999999998,-0.158,9.753,1.008,0.439,1.402,1.113,0.29,0.426,0.39,37.5,-23.6,-16.5,301.6,-83.6,12.1,0.3502027592729726,11.320639019372507,0.02375332520378337,0.0
0.46399999999999997,11.524000000000001,1.2930000000000001,0.218,9.759,0.9390000000000001,0.16699999999999998,1.805,-0.018000000000000002,-0.233,-0.34600000000000003,0.486,37.2,-25.0,-15.0,291.3,-84.6,2.4,0.4851272632194765,11.575092014458054,-0.686744053713328,0.0
-1.3840000000000001,10.812999999999999,3.766,0.494,9.721,1.198,-1.636,1.034,2.3,0.022000000000000002,0.561,0.069,35.2,-26.1,-16.7,267.5,-82.7,-23.5,-1.3049597189655922,11.298381689217662,1.9138527468507902,0.0
-0.5870000000000001,8.394,0.977,0.32299999999999995,9.706,1.361,-0.759,-1.4869999999999999,-0.433,-0.21100000000000002,-0.066,0.044000000000000004,35.5,-26.5,-16.0,273.8,-82.1,-15.2,-0.5636289822606023,8.440865801199326,-0.43868085950898605,0.0
0.764,8.095,0.07200000000000001,0.297,9.677999999999999,1.554,0.586,-1.7530000000000001,-1.6540000000000001,-0.294,0.141,-0.087,35.9,-26.2,-15.7,276.3,-81.4,-12.4,0.7656715834670816,7.988409050878345,-1.310333111127075,0.0
