ACCELEROMETER_X,ACCELEROMETER_Y,ACCELEROMETER_Z,GRAVITY_X,GRAVITY_Y,GRAVITY_Z,LINEAR_ACCELERATION_X,LINEAR_ACCELERATION_Y,LINEAR_ACCELERATION_Z,GYROSCOPE_X,GYROSCOPE_Y,GYROSCOPE_Z,MAGNETIC_FIELD_X,MAGNETIC_FIELD_Y,MAGNETIC_FIELD_Z,ORIENTATION_Z,ORIENTATION_X,ORIENTATION_Y,PRT_X,PRT_Y,PRT_Z,OUT
-0.129,8.085,4.803,-0.581,8.425,4.985,0.564,-0.392,-0.146,0.273,-0.015,0.046,-4.0,-2.1,-40.3,14.8,-59.1,6.7,0.2888445042493467,8.700441423206135,3.559713878069946,4.5
0.22699999999999998,8.22,4.729,-0.491,8.517999999999999,4.835,0.685,-0.255,-0.142,0.11199999999999999,0.061,0.047,-4.0,-2.9,-41.4,14.0,-59.9,6.3,0.6247835007239522,8.824461984447938,3.4237240341850415,4.5
-0.314,8.619,4.681,-0.46,8.552999999999999,4.775,0.166,0.011000000000000001,-0.07200000000000001,0.068,0.07400000000000001,0.055,-4.0,-3.3,-41.2,13.6,-60.6,5.7,0.07675061405923317,9.220795033741465,3.356868524230614,4.5
-0.551,8.849,4.263999999999999,-0.377,8.588,4.72,-0.095,0.20199999999999999,-0.5589999999999999,0.017,-0.086,0.158,-3.1,-3.4,-40.4,11.0,-60.9,5.1,-0.1982620640815963,9.391129200341352,2.9253175035271104,4.5
-1.008,8.49,5.109,-0.257,8.565,4.769,-0.772,-0.121,0.391,0.23,-0.05,0.207,-4.1,-3.0,-41.1,10.3,-60.9,3.1,-0.5797546080627187,9.166052790187456,3.852973636287539,4.5
-0.028999999999999998,8.971,2.8280000000000003,-0.205,8.689,4.542,0.013999999999999999,0.35200000000000004,-1.609,0.025,0.509,0.062,-3.8,-4.4,-40.0,9.5,-62.2,2.2,0.19504007356239256,9.294273252463245,1.433774765523183,4.5
-0.642,8.73,4.6930000000000005,-0.33799999999999997,8.588,4.723,-0.47600000000000003,0.036000000000000004,0.20199999999999999,-0.21899999999999997,-0.12,-0.02,-2.4,-4.7,-41.3,8.2,-61.4,3.9,-0.253404920763401,9.338428227568393,3.37325616944322,4.5
-1.3119999999999998,8.481,5.267,-0.40399999999999997,8.512,4.853,-0.5539999999999999,-0.141,0.23199999999999998,0.036000000000000004,0.4,-0.04,-2.2,-3.1,-40.7,10.2,-60.3,4.3,-0.8617102948541663,9.180818411748712,4.0447524841748,4.5
-0.505,8.684,5.471,-0.506,8.533999999999999,4.805,0.24,-0.128,0.257,0.085,-0.16,-0.133,-1.3,-2.7,-41.0,8.8,-60.5,6.0,-0.04494776737951767,9.403150911393023,4.1445692943629435,4.5
-0.857,8.83,4.1419999999999995,-0.5539999999999999,8.684,4.522,-0.257,0.325,-0.547,0.13699999999999998,0.37799999999999995,0.187,-0.8,-4.3,-40.9,9.7,-61.6,6.6,-0.5277690703618558,9.36240772353762,2.815367547339513,4.5
-0.563,8.662,3.7569999999999997,-0.475,8.731,4.44,-0.361,-0.001,-0.456,0.08900000000000001,0.004,0.251,0.4,-5.0,-41.0,8.2,-62.6,6.8,-0.2704618138509217,9.136824696508503,2.430544562957196,4.5
-0.831,9.077,3.3569999999999998,-0.43,8.846,4.211,-0.4,0.23,-0.8540000000000001,0.282,0.547,0.319,0.7,-6.2,-41.9,5.1,-63.9,5.7,-0.5822531333187924,9.49325809215933,1.9725544566353197,4.5
-0.6779999999999999,8.859,4.159,-0.337,8.832,4.249,-0.34,0.027000000000000003,-0.09,-0.10300000000000001,-0.23,0.027000000000000003,1.7,-6.7,-39.2,1.9,-64.2,4.5,-0.36799154689073604,9.398478254758647,2.78783692425612,4.5
-0.5,9.041,3.7539999999999996,-0.253,8.857000000000001,4.2010000000000005,-0.209,0.059000000000000004,-0.37,0.129,0.155,0.063,1.4,-6.0,-40.3,2.4,-64.5,3.4,-0.22365494493293653,9.515278302884365,2.3434278918424427,4.5
0.302,9.084,3.781,-0.21100000000000002,8.925,4.058,0.536,0.161,-0.297,0.062,0.01,0.013000000000000001,2.2,-6.1,-39.3,358.7,-65.4,3.2,0.5688102173259537,9.55581710780458,2.2954379405365937,4.5
0.20600000000000002,9.115,4.393,-0.22,8.995,3.9010000000000002,0.409,0.094,0.55,0.284,0.067,0.027000000000000003,2.5,-7.2,-40.1,358.8,-66.2,3.2,0.5043905109578821,9.685959255652012,2.8899642749184293,4.5
0.096,9.357000000000001,3.821,-0.29,9.101,3.641,0.36700000000000005,0.301,0.563,0.47700000000000004,0.33299999999999996,-0.069,3.0,-8.3,-39.4,359.7,-67.7,4.1,0.3384576999220688,9.84140889803764,2.279215498146022,4.5
-0.053,9.517000000000001,3.005,-0.49700000000000005,9.216000000000001,3.3139999999999996,0.426,0.29100000000000004,-0.309,0.132,0.473,0.022000000000000002,4.1,-11.0,-39.2,3.1,-69.4,7.0,0.12080164353582833,9.875107841541547,1.4400607906764618,4.5
-0.254,9.146,3.721,-0.509,9.167,3.445,0.203,0.008,0.302,-0.114,-0.252,0.005,5.9,-9.9,-38.6,0.0,-69.3,8.7,-0.029944640655116372,9.62335172445581,2.224832107353147,4.5
-0.022000000000000002,8.931000000000001,3.366,-0.382,9.19,3.4,0.384,-0.298,0.201,0.37200000000000005,0.12,0.171,5.4,-10.1,-39.3,359.6,-69.1,6.9,0.17766406272962817,9.35320548775198,1.8918730360943004,4.5
-0.565,9.852,2.133,-0.342,9.332,2.9939999999999998,-0.242,0.456,-0.852,0.198,0.124,0.191,6.5,-11.3,-38.3,358.5,-71.4,6.2,-0.45281919928770104,10.07180155555359,0.5334662110243906,4.5
0.017,9.838,2.988,-0.17800000000000002,9.327,3.0239999999999996,0.29100000000000004,0.396,-0.07,0.018000000000000002,-0.07200000000000001,0.091,6.4,-12.2,-38.7,355.2,-72.2,4.6,0.1746061141160062,10.19137839862809,1.3490722889786166,4.5
1.111,9.687000000000001,1.7409999999999999,0.063,9.465,2.565,1.048,0.222,-0.825,0.7340000000000001,-0.09,0.14800000000000002,5.9,-13.4,-38.3,348.2,-74.8,-1.4,1.1878014410337452,9.832959296184535,0.07355417225615102,4.5
0.706,10.252,-0.134,0.11,9.637,1.815,0.597,0.616,-1.949,0.601,0.35700000000000004,0.011000000000000001,5.8,-16.2,-36.9,347.9,-77.9,-3.1,0.7014016942725537,10.081160660040783,-1.8703292249541723,4.5
0.457,8.974,1.906,0.10800000000000001,9.673,1.6130000000000002,0.145,-0.502,0.37200000000000005,0.061,0.055999999999999994,0.046,6.9,-17.8,-37.2,344.2,-80.4,-3.6,0.5104698695588444,9.16438153551805,0.35762072608898254,4.5
0.919,8.981,1.755,0.31,9.654,1.6969999999999998,0.664,-0.6920000000000001,-0.076,-0.452,-0.098,0.129,7.3,-18.7,-36.8,341.1,-80.7,-6.1,0.9705693667726494,9.143431786855121,0.19646186248204,4.5
0.924,9.469,2.258,0.38299999999999995,9.586,2.033,0.597,-0.09,0.052000000000000005,-0.27699999999999997,0.9279999999999999,0.079,6.2,-17.7,-36.9,336.9,-78.1,-11.2,1.0035212046145712,9.707106609242713,0.6158956637981494,4.5
0.12,9.896,2.813,0.294,9.564,2.148,-0.018000000000000002,0.142,0.713,0.113,0.34700000000000003,-0.14400000000000002,8.7,-16.7,-36.0,334.6,-77.2,-8.3,0.22534947323411222,10.224753865495492,1.123303612096088,4.5
0.7709999999999999,10.338,1.4409999999999998,0.293,9.562000000000001,2.156,0.509,0.922,-1.11,-0.929,-0.272,0.057999999999999996,10.4,-16.9,-35.8,334.3,-77.9,-7.3,0.8246652567898045,10.42875192148425,-0.32592418502214904,4.5
-0.012,9.769,2.344,0.256,9.485,2.478,-0.35600000000000004,0.561,0.015,0.273,0.64,0.098,10.7,-15.8,-37.7,334.7,-75.1,-6.0,0.08935592636854423,10.021436504576085,0.7004761974347906,4.5
-0.364,9.618,2.739,0.212,9.484,2.485,-1.095,0.392,0.539,-0.09300000000000001,-0.115,0.327,11.8,-15.6,-36.4,333.8,-75.4,-4.3,-0.2449005338694994,9.940024977901631,1.1298089073830624,4.5
0.374,8.639,3.611,0.41700000000000004,9.402000000000001,2.758,-0.040999999999999995,-0.785,0.845,0.015,0.21,0.106,11.0,-14.7,-36.4,331.4,-73.9,-8.1,0.5473194919929857,9.109219080700875,2.129339595621056,4.5
-0.4,9.354,3.1839999999999997,0.327,9.435,2.655,-0.545,-0.128,0.47200000000000003,0.075,0.313,-0.127,11.7,-15.3,-36.8,330.4,-74.0,-8.5,-0.25208160074261543,9.751886903573295,1.6224452799656037,4.5
0.153,9.649,2.0380000000000003,0.342,9.451,2.596,-0.18899999999999997,0.198,-0.5589999999999999,0.07400000000000001,0.047,0.11800000000000001,12.0,-15.7,-35.1,329.2,-74.5,-7.5,0.24515065755374743,9.851194809999187,0.41703233753037305,4.5
0.56,9.773,1.5659999999999998,0.46799999999999997,9.482000000000001,2.458,0.111,0.284,-0.94,0.11699999999999999,0.028999999999999998,0.046,10.6,-15.7,-36.3,327.5,-74.8,-9.5,0.626645884907819,9.893260930528212,-0.09048809541668845,4.5
0.754,9.845,1.5919999999999999,0.484,9.519,2.306,0.311,0.34299999999999997,-0.6559999999999999,0.008,0.006,-0.032,11.9,-16.3,-35.8,325.7,-75.9,-11.7,0.8174458208521362,9.967488445243623,-0.0892268115882342,4.5
1.0390000000000001,9.541,2.3080000000000003,0.48200000000000004,9.538,2.228,0.557,0.003,0.08,-0.006999999999999999,-0.21899999999999997,-0.16699999999999998,12.1,-16.9,-35.5,324.4,-76.5,-12.3,1.1279407154497245,9.784561842252627,0.6535788380636638,4.5
0.838,9.318999999999999,2.552,0.46799999999999997,9.542,2.213,0.327,-0.195,0.426,0.006,-0.126,-0.086,11.7,-16.1,-36.1,327.4,-76.7,-11.9,0.9359193350674299,9.607432398246248,0.9380867291329109,4.5
0.431,9.318999999999999,2.9619999999999997,0.413,9.535,2.253,0.018000000000000002,-0.217,0.7090000000000001,0.114,-0.11900000000000001,-0.12,11.9,-16.0,-35.8,325.5,-76.5,-10.7,0.5471094221495881,9.677723844233837,1.3584176364222231,4.5
0.256,9.721,2.052,0.341,9.56,2.1590000000000003,-0.057999999999999996,0.146,-0.09300000000000001,0.05,-0.04,-0.001,11.8,-16.9,-35.8,328.9,-77.0,-9.0,0.33312277243537775,9.924950193752434,0.39808776672801094,4.5
-0.441,9.919,2.2359999999999998,0.24600000000000002,9.579,2.0869999999999997,-0.653,0.25,0.259,-0.16,-0.067,0.099,11.3,-17.6,-35.9,329.8,-77.5,-7.8,-0.35927910275479386,10.155212868072123,0.5686019086022198,4.5
0.01,10.008,1.422,0.20199999999999999,9.621,1.8869999999999998,-0.145,0.34600000000000003,-0.465,0.309,-0.008,0.20199999999999999,10.4,-17.3,-35.6,336.8,-78.4,-5.2,0.05681879546003236,10.104711048809714,-0.27172457479096135,4.5
-0.168,9.908,0.948,0.249,9.664,1.65,-0.41700000000000004,0.244,-0.7020000000000001,0.281,0.555,0.11699999999999999,10.6,-18.5,-35.6,331.8,-79.7,-8.5,-0.14063366325627769,9.927283739128134,-0.7243284721735223,4.5
-0.735,10.305,1.7619999999999998,0.14300000000000002,9.67,1.625,-0.878,0.635,0.13699999999999998,0.022000000000000002,0.278,0.048,11.6,-18.5,-34.8,330.4,-80.5,-7.9,-0.6847379478568396,10.457932865731806,0.025847990469973103,4.5
-0.374,10.099,2.097,0.042,9.661,1.683,-0.41600000000000004,0.43799999999999994,0.414,0.071,0.152,-0.033,13.5,-18.3,-34.3,332.9,-80.1,-2.2,-0.31225044416435344,10.309382002837127,0.3823981952064184,4.5
-0.364,9.658999999999999,1.767,-0.057999999999999996,9.673,1.611,-0.308,0.198,-0.024,-0.031,0.327,0.006999999999999999,13.8,-19.0,-33.7,336.7,-80.5,1.3,-0.3141794604182368,9.82017769949978,0.12832465428928352,4.5
-0.177,9.773,1.8359999999999999,-0.076,9.662,1.676,0.109,0.22899999999999998,0.01,-0.094,0.353,0.132,15.5,-18.8,-32.9,338.5,-80.3,2.9,-0.12322576015237519,9.94325318391396,0.17402739042968673,4.5
-0.273,9.802,1.959,-0.009000000000000001,9.647,1.761,-0.27399999999999997,0.081,0.161,0.14,0.33899999999999997,0.132,15.5,-18.5,-33.2,333.3,-79.5,0.6,-0.2126701669179895,9.992924167458028,0.2960607767610586,4.5
-0.013999999999999999,9.323,1.829,0.1,9.661,1.679,-0.114,-0.33799999999999997,0.151,0.01,0.307,0.16699999999999998,16.9,-19.2,-32.3,325.9,-80.1,-2.8,0.039595521982025685,9.497657459059276,0.23811968632327218,4.5
0.8240000000000001,9.321,0.8690000000000001,0.193,9.668,1.6340000000000001,0.642,-0.342,-0.7809999999999999,0.05,0.5770000000000001,0.027000000000000003,16.9,-19.6,-31.4,323.5,-80.2,-6.2,0.8484443208909532,9.33055125136473,-0.7322114312164186,4.5
1.5319999999999998,9.524,0.479,0.155,9.681000000000001,1.558,1.382,-0.152,-1.099,-0.113,0.445,-0.107,18.5,-19.9,-30.7,319.9,-80.8,-6.3,1.5444571192435776,9.46188689715228,-1.170636387746359,4.5
0.038,9.34,2.964,-0.025,9.641,1.795,-0.095,-0.365,1.214,0.035,0.345,-0.091,21.3,-18.8,-29.9,320.9,-79.8,-0.5,0.1308243524627899,9.704036921267194,1.355320043194889,4.5
0.115,10.245,2.267,-0.132,9.662,1.671,0.276,0.614,0.568,0.212,0.40299999999999997,0.043,22.1,-19.1,-28.8,322.4,-79.7,3.3,0.18105756424202657,10.4794333740531,0.5111098876101068,4.5
-0.22699999999999998,10.013,1.1640000000000001,-0.107,9.699,1.446,-0.08199999999999999,0.369,-0.38299999999999995,0.336,0.489,0.141,22.8,-20.0,-27.1,320.4,-81.5,4.2,-0.19755441346289015,10.066882464128485,-0.5342693207959313,4.5
-0.34700000000000003,10.025,1.6540000000000001,-0.037000000000000005,9.686,1.535,-0.36,0.308,0.136,-0.13,0.11199999999999999,0.03,24.8,-20.3,-26.3,313.5,-81.0,1.4,-0.30256876998628957,10.161836818681326,-0.04769287076244488,4.5
-0.977,9.855,1.784,-0.001,9.674,1.61,-0.8759999999999999,0.121,0.16,0.085,0.433,0.047,24.6,-20.3,-26.6,311.3,-80.5,-0.5,-0.9264908364885063,10.01914162421106,0.12894124206089264,4.5
-0.165,10.003,1.652,0.068,9.679,1.575,-0.10400000000000001,0.23600000000000002,0.139,-0.059000000000000004,0.039,0.062,25.9,-20.9,-24.8,309.3,-80.9,-1.3,-0.11953164112666412,10.139014015912355,-0.04944665714104035,4.5
0.623,9.465,0.644,0.161,9.69,1.501,0.408,-0.163,-1.006,0.09300000000000001,0.046,0.004,25.1,-21.2,-24.4,302.8,-81.1,-6.1,0.6396554265537462,9.435573841020407,-0.9746164506777701,4.5
-0.259,9.232000000000001,0.9359999999999999,0.039,9.692,1.4969999999999999,-0.307,-0.474,-0.494,-0.087,0.175,-0.138,25.9,-21.1,-23.9,305.4,-81.3,-2.7,-0.23445895972030623,9.25889404873636,-0.6252287505235758,4.5
-1.19,9.474,1.8530000000000002,-0.17800000000000002,9.687000000000001,1.516,-0.9109999999999999,-0.23199999999999998,0.308,-0.037000000000000005,0.483,-0.08900000000000001,27.5,-20.3,-23.5,312.7,-81.1,5.1,-1.1405602888814954,9.655901353404273,0.2628236685538343,4.5
-1.037,9.747,1.915,-0.297,9.674,1.5830000000000002,-0.611,0.052000000000000005,0.325,-0.10800000000000001,0.221,0.11199999999999999,28.7,-20.5,-22.9,315.0,-80.7,10.7,-0.9837022463049633,9.934887652435346,0.27738100890696193,4.5
-0.536,9.658999999999999,1.891,-0.225,9.642000000000001,1.774,-0.278,0.026000000000000002,0.040999999999999995,-0.375,0.134,0.16699999999999998,28.6,-20.2,-21.5,309.3,-79.8,8.2,-0.4772030217299477,9.841906161786536,0.26195109971136765,4.5
-0.385,10.177999999999999,1.93,-0.171,9.633,1.828,-0.251,0.5660000000000001,0.102,0.135,0.36700000000000005,0.185,29.2,-20.8,-21.4,305.9,-79.0,5.8,-0.32323857515056403,10.359338797936713,0.2107735588203321,4.5
-0.522,9.924,2.04,-0.109,9.646,1.764,-0.34299999999999997,0.247,0.256,0.10400000000000001,0.207,0.16899999999999998,29.5,-20.9,-19.7,301.6,-79.6,3.5,-0.4589557979493166,10.128046298532505,0.3631772987271171,4.5
-0.36200000000000004,9.536,2.559,-0.024,9.656,1.713,-0.364,-0.141,0.9520000000000001,0.284,-0.028999999999999998,0.121,29.7,-21.5,-20.0,299.4,-79.7,1.6,-0.28534191070977943,9.831749823873167,0.932789576894169,4.5
-0.36200000000000004,9.886000000000001,2.509,0.028999999999999998,9.662,1.6769999999999998,-0.409,0.312,0.7559999999999999,-0.231,0.084,0.129,29.9,-22.1,-18.5,294.5,-80.4,-0.6,-0.2884190530131429,10.168464331940424,0.8235706283704018,4.5
0.45299999999999996,9.704,1.425,0.067,9.651,1.7369999999999999,0.345,0.10800000000000001,-0.33799999999999997,-0.08,0.41200000000000003,0.043,29.0,-22.0,-18.4,294.8,-79.8,-2.2,0.4959860709080941,9.803145499718244,-0.23619087369986036,4.5
0.275,9.603,1.81,0.057999999999999996,9.651,1.74,0.191,-0.086,0.008,0.073,0.027000000000000003,0.021,30.0,-22.0,-17.8,293.6,-79.7,-1.8,0.32983217329079995,9.768990780439902,0.16542028032393818,4.5
0.4,9.548,1.7719999999999998,0.11800000000000001,9.642999999999999,1.7819999999999998,0.282,-0.094,-0.011000000000000001,-0.017,0.059000000000000004,0.028999999999999998,30.1,-22.4,-18.4,291.9,-79.7,-2.6,0.4549100218754317,9.707690747774944,0.1344812907510029,4.5
0.44299999999999995,9.342,2.026,0.20600000000000002,9.617,1.906,0.289,-0.297,0.496,0.095,0.092,-0.11900000000000001,30.2,-22.4,-18.1,289.2,-79.2,-5.0,0.5101393704230894,9.546529762296062,0.42120816746572376,4.5
-0.366,9.45,1.525,0.11800000000000001,9.636000000000001,1.8159999999999998,-0.484,-0.18600000000000003,-0.29100000000000004,-0.031,0.064,-0.094,30.7,-21.8,-16.9,287.3,-79.3,-4.7,-0.3174890996626517,9.57375079844426,-0.06765590057973192,4.5
0.19899999999999998,9.515,0.929,0.10800000000000001,9.632,1.84,0.11900000000000001,-0.20800000000000002,-0.8440000000000001,-0.217,0.073,0.04,30.3,-22.4,-16.6,289.1,-79.4,-3.4,0.22872623823553825,9.535155017421554,-0.682912953225499,4.5
0.354,9.562999999999999,1.544,0.051,9.588,2.057,0.303,-0.026000000000000002,-0.513,-0.188,0.163,-0.122,31.2,-21.7,-16.3,287.7,-78.2,-2.6,0.40919180024888874,9.68430387763272,-0.08391350473495773,4.5
0.364,9.912,2.129,-0.10800000000000001,9.552999999999999,2.215,0.41700000000000004,0.384,-0.057999999999999996,-0.062,0.11199999999999999,-0.262,31.7,-19.9,-16.6,290.0,-77.3,0.5,0.44601266876563767,10.125275221903438,0.43903915543928473,4.5
-0.7659999999999999,10.18,2.301,-0.355,9.56,2.155,-0.382,0.56,0.10300000000000001,-0.022000000000000002,0.249,-0.11900000000000001,33.5,-18.8,-15.2,296.1,-77.1,8.4,-0.6789337625039716,10.425286851836011,0.6051446133507281,4.5
-0.426,10.187999999999999,1.944,-0.4,9.549,2.195,0.062,0.619,-0.335,-0.013999999999999999,0.057,0.139,33.4,-18.1,-14.5,298.7,-76.8,10.8,-0.35123101607186846,10.371798231759135,0.24164894584334795,4.5
-0.06,10.01,2.1430000000000002,-0.264,9.535,2.276,0.17600000000000002,0.48200000000000004,0.021,0.052000000000000005,-0.037000000000000005,0.214,33.0,-17.0,-15.0,295.5,-76.4,7.5,0.025152858721379616,10.226810585726053,0.45591838894661674,4.5
0.184,9.594,2.5639999999999996,-0.037000000000000005,9.513,2.38,0.221,0.08,0.184,-0.114,-0.29,0.069,31.9,-17.9,-15.7,291.4,-76.2,2.0,0.2903162744721172,9.884192063722587,0.9334086501742009,4.5
-1.188,8.969,3.611,-0.042,9.468,2.553,-1.17,-0.485,1.052,-0.20800000000000002,0.12,0.047,32.3,-17.8,-16.1,289.6,-75.0,0.9,-1.0259741507434565,9.448934017232922,2.1350992904276698,4.5
-1.1159999999999999,9.125,2.2359999999999998,-0.171,9.413,2.7460000000000004,-0.9620000000000001,-0.3,-0.40399999999999997,-0.426,0.18899999999999997,-0.017,31.1,-17.1,-16.1,292.0,-74.3,2.7,-1.0075953150415558,9.376154410769418,0.763712738217383,4.5
-0.682,9.52,2.818,-0.28,9.31,3.0669999999999997,-0.419,0.259,-0.237,-0.136,0.218,0.055999999999999994,31.5,-16.4,-16.5,292.6,-72.0,4.7,-0.5302496797988036,9.855732928235383,1.2727968118950137,4.5
-0.366,9.693999999999999,2.923,-0.35,9.307,3.07,-0.017,0.387,-0.146,0.066,0.205,0.087,31.4,-16.1,-15.4,292.4,-71.6,6.4,-0.20893055814394637,10.041599938811698,1.3319683520003527,4.5
-0.168,9.496,2.873,-0.342,9.355,2.9210000000000003,0.175,0.14,-0.048,0.23600000000000002,0.107,0.124,31.6,-17.2,-15.3,293.4,-72.3,6.9,-0.02137649456534052,9.83749860543977,1.2959680680675298,4.5
-0.14400000000000002,9.412,2.6839999999999997,-0.24600000000000002,9.404,2.77,0.1,-0.145,0.285,0.132,-0.027000000000000003,0.151,32.0,-17.3,-13.7,290.2,-73.5,5.1,-0.014122588665094804,9.724686327023768,1.1138278114171758,4.5
-0.098,9.472000000000001,3.18,-0.10300000000000001,9.445,2.637,-0.086,0.003,0.555,0.28,-0.128,0.121,31.4,-17.3,-13.6,288.8,-74.1,2.9,0.048409550583571645,9.865621446134218,1.5836533702135933,4.5
-0.21100000000000002,9.902999999999999,2.892,0.057999999999999996,9.547,2.24,-0.268,0.33899999999999997,0.721,0.515,-0.135,0.225,31.0,-19.3,-11.8,284.6,-75.5,0.4,-0.09780369530535903,10.2465009583599,1.2154203172212688,4.5
0.6779999999999999,10.374,1.635,0.294,9.629,1.8319999999999999,0.405,0.747,-0.19,0.496,0.031,0.109,32.4,-17.7,-13.3,278.3,-78.3,-7.5,0.7299227588400088,10.497563417555249,-0.14546498043569356,4.5
1.1420000000000001,9.508,1.212,0.431,9.652000000000001,1.681,0.711,-0.14400000000000002,-0.469,-0.268,-0.185,-0.045,31.9,-18.4,-13.8,272.9,-80.1,-13.9,1.1770622952968721,9.570911323833199,-0.4328426784778474,4.5
0.067,8.957,2.701,0.42200000000000004,9.626,1.824,-0.35,-0.674,0.8959999999999999,0.016,-0.013000000000000001,-0.033,31.6,-17.7,-14.2,275.9,-79.1,-13.5,0.15293737568801546,9.281953240950948,1.1617629671830223,4.5
1.058,8.636000000000001,1.2590000000000001,0.47100000000000003,9.632,1.781,0.5579999999999999,-0.792,-0.74,0.198,0.022000000000000002,0.06,31.0,-17.9,-13.5,272.0,-79.2,-14.8,1.096617768704481,8.719307647209579,-0.23673745515688305,4.5
1.3619999999999999,9.345,0.73,0.603,9.625,1.7790000000000001,0.838,-0.256,-1.003,-0.38,-0.028999999999999998,0.04,31.1,-18.4,-13.1,269.5,-79.4,-18.1,1.3840059587912388,9.328378834912975,-0.8847851820515678,4.5
1.403,9.575,2.272,0.604,9.551,2.14,0.799,0.023,0.132,-0.345,-0.026000000000000002,-0.193,32.1,-17.4,-15.1,272.2,-77.2,-16.6,1.4868611142875183,9.81030113336106,0.5985429805739706,4.5
0.716,9.84,2.964,0.43,9.53,2.274,0.215,0.32,0.865,-0.107,0.022000000000000002,-0.17800000000000002,31.9,-17.0,-14.7,277.6,-76.4,-10.7,0.8330428862609592,10.189840340635524,1.2636239084501963,4.5
0.45299999999999996,9.867,2.715,0.303,9.512,2.366,0.126,0.376,0.316,0.01,0.249,-0.076,32.5,-15.8,-14.9,279.9,-75.9,-7.9,0.5646965465912364,10.176530962762074,1.0263812031661457,4.5
0.294,9.886000000000001,2.3609999999999998,0.18600000000000003,9.526,2.323,0.06,0.442,0.083,0.161,0.13,-0.061,33.0,-15.7,-14.6,282.9,-76.0,-5.0,0.3894565900870387,10.138118873157945,0.6786915928140447,4.5
0.177,9.902999999999999,2.334,0.14300000000000002,9.557,2.194,-0.038,0.451,0.081,0.10099999999999999,0.047,0.044000000000000004,33.7,-15.3,-14.5,283.2,-76.9,-3.6,0.266223195098664,10.15165742096017,0.6490537865660579,4.5
0.11,9.472000000000001,2.349,0.188,9.568999999999999,2.1390000000000002,-0.2,-0.015,0.313,0.11599999999999999,0.134,0.037000000000000005,32.7,-15.0,-13.7,281.1,-77.2,-4.7,0.19759728308655022,9.7297398237834,0.7360728735663582,4.5
0.271,10.03,1.4269999999999998,0.257,9.575,2.104,0.02,0.44299999999999995,-0.711,-0.08800000000000001,-0.084,0.132,32.8,-15.8,-13.2,279.6,-77.5,-6.4,0.32320745174741644,10.125819207231737,-0.2720153039660489,4.5
-0.024,9.097999999999999,2.8710000000000004,0.41700000000000004,9.516,2.333,-0.413,-0.252,0.27899999999999997,-0.479,-0.382,0.083,32.1,-15.7,-13.1,275.2,-76.0,-10.1,0.09289054563639323,9.447217309931471,1.3260005450461037,4.5
-0.45299999999999996,9.639,3.1839999999999997,0.435,9.454,2.57,-0.8540000000000001,0.073,0.825,0.161,0.276,0.021,31.6,-15.6,-16.1,279.1,-74.6,-10.6,-0.30977399202139366,10.033881809904475,1.574370318170148,4.5
-0.022000000000000002,9.68,2.6460000000000004,0.435,9.45,2.585,-0.45,0.187,0.10800000000000001,0.018000000000000002,-0.051,0.044000000000000004,31.4,-15.5,-15.9,280.3,-74.5,-9.5,0.09736089248826546,9.982794509176975,1.019085199656987,4.5
0.134,9.352,3.1510000000000002,0.46799999999999997,9.441,2.611,-0.33399999999999996,-0.08900000000000001,0.54,-0.034,-0.171,0.045,31.1,-15.2,-15.7,279.9,-74.3,-10.2,0.2774040470040561,9.740654213706213,1.5650442433724243,4.5
0.294,9.552999999999999,2.231,0.428,9.462,2.541,-0.124,0.096,-0.297,0.075,-0.012,0.002,30.8,-15.5,-15.4,278.6,-74.6,-9.6,0.39262074612037823,9.787288426072932,0.6151749463158249,4.5
0.48100000000000004,9.388,1.939,0.418,9.488,2.4419999999999997,0.025,-0.105,-0.503,0.136,0.048,-0.027999999999999997,30.9,-16.3,-15.8,280.3,-75.2,-9.7,0.5631802072758445,9.575531740191956,0.3429955491097936,4.5
0.6579999999999999,9.548,1.511,0.405,9.526,2.294,0.253,0.022000000000000002,-0.7829999999999999,0.08900000000000001,-0.003,-0.055,30.1,-15.9,-15.4,279.7,-76.3,-10.0,0.7179537332470457,9.66184281537776,-0.11715309577545852,4.5
0.395,9.419,2.006,0.451,9.545,2.205,0.22699999999999998,-0.027999999999999997,-0.304,-0.132,-0.049,0.057999999999999996,30.7,-15.7,-15.7,278.3,-76.9,-11.1,0.47188843228143695,9.618473170122085,0.39989646550153446,4.5
0.397,9.658999999999999,2.5669999999999997,0.521,9.516,2.313,-0.076,0.054000000000000006,0.392,-0.149,-0.021,0.11199999999999999,31.0,-16.5,-15.3,276.9,-76.5,-12.0,0.5002768672074936,9.947476712371396,0.9169564400590731,4.5
0.5,9.738,2.82,0.568,9.496,2.381,0.11699999999999999,0.29600000000000004,0.24600000000000002,0.075,0.165,0.018000000000000002,30.0,-15.7,-16.0,278.3,-75.6,-13.2,0.616723390549401,10.065972899308209,1.1519053129237309,4.5
0.534,9.656,2.064,0.532,9.53,2.25,0.022000000000000002,0.33899999999999997,-0.265,0.17800000000000002,0.182,-0.033,30.6,-16.3,-15.5,277.2,-76.1,-13.4,0.6146205994370264,9.860727666614592,0.4145834097129635,4.5
0.62,9.436,1.082,0.395,9.594,1.99,0.01,-0.003,-0.92,0.37200000000000005,0.526,-0.099,31.3,-16.1,-14.3,276.4,-77.6,-11.8,0.6571986208510319,9.480658378696372,-0.5276615195424155,4.5
-0.306,9.953,2.6430000000000002,0.295,9.601,1.975,-0.606,0.309,0.767,-0.32,-0.22699999999999998,-0.025,32.3,-15.8,-14.1,278.8,-78.9,-9.5,-0.2147313472267758,10.255901966008414,0.9548085211930684,4.5
0.129,9.936,2.3609999999999998,0.33799999999999997,9.596,1.993,-0.207,0.34,0.368,0.203,0.08900000000000001,0.062,30.7,-16.1,-14.3,279.5,-77.8,-8.8,0.21103143711087488,10.189564873161714,0.6658013428792524,4.5
0.172,10.168,1.374,0.39399999999999996,9.629,1.8159999999999998,-0.27399999999999997,0.6779999999999999,-0.5660000000000001,0.11800000000000001,0.13699999999999998,0.124,31.6,-17.2,-14.1,276.6,-78.8,-11.4,0.21545551669473942,10.25354690561037,-0.35219138940894323,4.5
0.907,9.149,0.9,0.508,9.633,1.768,0.325,-0.47200000000000003,-0.727,0.076,0.01,0.10800000000000001,31.4,-17.1,-14.1,274.6,-79.1,-14.1,0.9343355039515222,9.165846052998857,-0.6716645731173447,4.5
0.381,9.498,1.86,0.527,9.629,1.7819999999999998,-0.125,-0.11199999999999999,0.078,-0.07400000000000001,0.092,-0.034,31.3,-17.4,-13.1,270.1,-79.2,-16.8,0.43865572614351034,9.673173304242052,0.23251748325753852,4.5
0.05,9.644,2.061,0.436,9.622,1.8430000000000002,-0.433,0.057999999999999996,0.266,0.054000000000000006,0.325,0.033,31.3,-16.6,-13.3,273.2,-78.8,-13.8,0.11625771963678436,9.852371223812035,0.41739958172642977,4.5
0.122,9.283,2.595,0.429,9.59,2.0069999999999997,-0.307,-0.307,0.589,-0.322,0.237,0.084,32.3,-17.3,-12.7,273.8,-78.6,-12.5,0.21280623786811825,9.584612652258793,1.0064351997446797,4.5
0.048,9.754,2.15,0.42700000000000005,9.565,2.122,-0.276,0.127,-0.08,-0.024,0.451,0.106,32.3,-17.9,-12.0,273.6,-77.3,-11.7,0.12757607226059892,9.975114708600817,0.4961158091032585,4.5
0.757,9.814,1.6469999999999998,0.447,9.549,2.188,0.273,0.26,-0.5429999999999999,0.013999999999999999,0.556,0.086,32.7,-18.4,-10.7,270.1,-76.9,-11.8,0.8193281513816341,9.946246983381515,-0.0335607796041697,4.5
0.843,9.533999999999999,2.009,0.428,9.538,2.24,0.41700000000000004,0.015,-0.331,-0.184,0.425,0.013000000000000001,33.3,-18.3,-9.7,268.8,-76.7,-11.0,0.9208784764926996,9.729381886577622,0.3674192927266289,4.5
0.6459999999999999,9.721,2.229,0.318,9.522,2.325,0.43799999999999994,0.11800000000000001,-0.057999999999999996,-0.066,0.545,-0.057999999999999996,33.8,-18.1,-8.4,267.5,-76.2,-8.5,0.735893802316468,9.951161993440858,0.5625240368290381,4.5
-0.07400000000000001,9.431000000000001,2.99,0.166,9.501,2.423,-0.214,-0.10400000000000001,0.594,0.046,0.591,0.005,34.7,-18.4,-6.3,268.7,-75.8,-5.3,0.05247361928862769,9.795251393063094,1.3927073152584073,4.5
-0.508,9.244,3.11,0.062,9.497,2.445,-0.529,-0.174,0.752,-0.005,0.555,0.12,35.5,-18.7,-5.0,268.8,-75.6,-1.5,-0.3748637878806774,9.633550092737662,1.5607337220839148,4.5
-0.441,10.152000000000001,2.9589999999999996,-0.016,9.461,2.5810000000000004,-0.425,0.691,0.379,-0.213,0.767,0.109,35.3,-19.3,-2.7,266.3,-75.3,-0.7,-0.30730373046488607,10.503069896778499,1.266630633068571,4.5
-1.659,9.533999999999999,4.8580000000000005,-0.057999999999999996,9.374,2.88,-1.561,0.304,1.848,-0.184,0.659,0.34700000000000003,34.7,-19.6,-0.4,261.8,-73.4,1.2,-1.4128176069747844,10.21052479454499,3.316433450169632,4.5
-1.53,9.486,3.6660000000000004,-0.132,9.384,2.846,-1.3980000000000001,0.10300000000000001,0.8190000000000001,0.435,0.9740000000000001,0.563,34.9,-20.0,3.2,258.5,-73.1,2.7,-1.3460898751950072,9.968448123193195,2.1407325996264923,4.5
-0.433,9.17,2.4730000000000003,-0.043,9.449,2.6239999999999997,-0.426,-0.27899999999999997,-0.24,0.39399999999999996,1.087,0.536,32.3,-22.3,7.9,248.1,-74.1,1.5,-0.31932846098470247,9.454402831692734,0.9510070610071872,4.5
0.237,8.859,1.4080000000000001,0.055999999999999994,9.546,2.246,0.159,-0.639,-0.85,0.537,1.7009999999999998,0.335,31.1,-22.3,12.3,241.2,-75.8,-1.1,0.2919975533684388,8.968109586606362,-0.0908948372897409,4.5
-0.005,9.52,1.276,0.031,9.617,1.919,-0.036000000000000004,-0.09699999999999999,-0.643,0.053,1.465,0.321,28.0,-23.4,18.1,232.8,-78.2,-1.0,0.037731732755963046,9.599289398837865,-0.33289691152397993,4.5
0.47600000000000003,9.283,2.076,0.138,9.606,1.9669999999999999,0.315,-0.331,-0.032,-0.191,1.3430000000000002,0.42100000000000004,24.3,-24.4,21.4,220.7,-78.6,-3.1,0.5469759343827785,9.496334836664722,0.4805028586325759,4.5
1.2570000000000001,9.376,2.548,0.31,9.559,2.166,0.882,-0.128,0.425,-0.14300000000000002,1.236,0.377,19.4,-25.7,24.4,209.4,-77.4,-7.5,1.3524031607079676,9.660752663424063,0.9069689449214771,4.5
1.1159999999999999,9.419,3.3160000000000003,0.392,9.503,2.39,0.846,-0.165,1.1059999999999999,0.032,0.8640000000000001,0.128,15.4,-27.1,24.5,198.2,-75.9,-9.3,1.253310698429654,9.829052167820606,1.6666789659267944,4.5
0.364,9.812000000000001,2.653,0.297,9.509,2.378,0.067,0.302,0.275,0.149,0.77,0.035,12.4,-27.1,27.5,194.2,-75.5,-8.8,0.47376489888068896,10.112589696528492,0.9784300947203115,4.5
0.414,9.529,1.865,0.213,9.522,2.3369999999999997,0.233,0.012,-0.428,0.149,0.45799999999999996,0.009000000000000001,11.0,-26.9,28.5,192.8,-76.0,-5.6,0.48970486797974483,9.703181700678403,0.24477750284030586,4.5
-0.254,10.168,2.727,0.138,9.537,2.281,-0.342,0.632,0.46299999999999997,0.06,0.322,0.066,10.2,-26.5,29.5,192.7,-76.5,-3.5,-0.1452628827205082,10.480604791605547,1.012467726438015,4.5
0.213,9.838,2.373,0.19399999999999998,9.561,2.1719999999999997,0.006999999999999999,0.289,0.268,0.31,0.083,0.11,9.4,-25.8,29.7,190.5,-76.9,-4.6,0.3027824583526798,10.093869087019009,0.6963272485232093,4.5
0.07400000000000001,9.232000000000001,2.847,0.243,9.574,2.109,-0.226,-0.49700000000000005,0.963,-0.265,0.263,0.026000000000000002,8.0,-25.9,30.8,188.6,-78.0,-6.8,0.17872146189082078,9.576156274519299,1.2672800184033082,4.5
-0.534,8.767999999999999,2.8710000000000004,0.15,9.578,2.1,-0.349,-0.7979999999999999,0.529,0.015,0.551,-0.011000000000000001,7.8,-25.9,30.5,188.5,-77.5,-5.1,-0.4284372292061851,9.12641530989499,1.3894625334799242,4.5
0.316,9.51,1.453,0.035,9.578,2.106,0.326,-0.06,-0.66,-0.08900000000000001,0.643,0.08800000000000001,4.6,-26.0,31.1,186.6,-77.5,-1.5,0.36918194487255984,9.617099947742368,-0.1620440887963741,4.5
-0.74,9.931000000000001,2.485,-0.09,9.552,2.22,-0.49700000000000005,0.18100000000000002,0.28,0.079,1.048,0.055999999999999994,3.9,-26.1,30.7,187.3,-76.9,1.3,-0.6431840664534709,10.210125524927001,0.828997600656679,4.5
0.376,9.764,1.9609999999999999,-0.18899999999999997,9.548,2.227,0.435,0.12,-0.547,-0.24600000000000002,0.5870000000000001,0.11699999999999999,0.9,-26.5,30.8,185.8,-77.0,5.0,0.45191794904433036,9.951348502047765,0.29837251569685685,4.5
0.10800000000000001,9.757,2.679,-0.195,9.529,2.31,0.272,0.264,0.35200000000000004,-0.036000000000000004,0.613,0.146,-2.0,-26.4,30.2,182.5,-76.4,4.9,0.2158925503214954,10.06479118416032,1.0203542649317392,4.5
-0.225,9.637,2.667,-0.183,9.514,2.371,-0.128,0.185,0.28,-0.152,0.45899999999999996,0.24100000000000002,-4.8,-27.2,30.2,176.1,-76.1,4.8,-0.11447368113892344,9.946431324718338,1.0443575436546262,4.5
-0.129,9.328,2.548,-0.075,9.493,2.46,-0.09300000000000001,-0.155,0.11900000000000001,0.021,0.562,0.21,-7.6,-26.8,29.7,170.8,-75.6,2.6,-0.019516044996778933,9.62102036815236,0.9778114335520356,4.5
-0.031,9.496,2.03,-0.046,9.504,2.416,0.307,0.015,-0.675,-0.08,0.743,0.124,-9.7,-26.8,28.8,166.4,-75.6,1.0,0.05460155209870712,9.700762903766375,0.43369892254717346,4.5
0.079,9.685,1.9080000000000001,-0.09300000000000001,9.497,2.443,0.177,0.193,-0.5539999999999999,-0.053,0.726,0.09,-11.7,-26.9,27.9,162.0,-75.6,1.8,0.16025763992278114,9.866230317024867,0.2788311680315292,4.5
0.184,9.761000000000001,2.454,-0.124,9.481,2.502,0.40399999999999997,0.204,-0.08199999999999999,0.10400000000000001,0.762,0.124,-13.3,-26.9,27.2,159.2,-75.3,2.6,0.2909521939916401,10.030183260582426,0.8024111040754258,4.5
-0.05,9.479,2.9589999999999996,-0.142,9.488,2.474,0.092,-0.009000000000000001,0.485,-0.061,0.612,0.11900000000000001,-15.3,-27.1,25.7,157.6,-75.5,3.2,0.07777493948494832,9.836994533255535,1.355400904341156,4.5
0.795,9.637,1.8630000000000002,-0.135,9.494,2.452,0.408,0.081,-0.015,0.025,0.46299999999999997,0.083,-17.6,-26.0,24.5,151.8,-75.3,3.2,0.8739757748135221,9.806400695691591,0.21268460352967966,4.5
-0.546,9.915,2.339,-0.226,9.454,2.597,-0.19,0.162,0.078,-0.083,0.5760000000000001,-0.048,-19.9,-26.5,23.7,151.0,-75.0,3.8,-0.4394574959374952,10.168195609394445,0.7006690790636099,4.5
-1.659,9.208,3.625,-0.35100000000000003,9.351,2.935,-1.308,-0.142,0.69,-0.209,0.348,0.025,-19.9,-27.4,23.0,151.5,-73.1,6.4,-1.471212826846748,9.687666908572982,2.1598177438528503,4.5
-0.627,9.165,2.713,-0.40700000000000003,9.352,2.923,-0.223,-0.192,-0.225,-0.384,-0.008,0.2,-22.2,-26.7,20.8,149.3,-72.9,8.7,-0.4878378839931944,9.488667704130453,1.2156983176482383,4.5
-0.474,9.68,2.536,-0.344,9.332,2.9930000000000003,-0.09699999999999999,0.161,-0.191,0.057999999999999996,0.462,0.237,-22.7,-26.5,20.2,145.7,-71.9,7.0,-0.34093879165943886,9.966565504422835,0.9537844548904133,4.5
-0.503,9.462,2.758,-0.261,9.343,2.969,-0.299,0.059000000000000004,0.17,0.124,0.461,0.257,-24.2,-26.3,18.6,141.5,-72.3,5.0,-0.35947239420209615,9.787853118623865,1.2073640404002848,4.5
-0.46399999999999997,9.431000000000001,2.6239999999999997,-0.19,9.384,2.842,-0.32299999999999995,-0.040999999999999995,-0.16,0.005,0.565,0.252,-26.1,-25.4,16.6,137.2,-73.0,4.2,-0.33332629434076766,9.735861216326194,1.0706693971233774,4.5
-0.397,9.392999999999999,2.4330000000000003,-0.156,9.412,2.75,-0.195,-0.048,-0.348,0.094,0.6920000000000001,0.19399999999999998,-28.6,-23.9,15.5,132.2,-73.4,3.2,-0.2798119723607349,9.66708230853988,0.8802112814766774,4.5
-0.165,9.144,2.138,-0.17300000000000001,9.434,2.6719999999999997,0.008,-0.29,-0.534,0.024,0.6709999999999999,0.099,-29.9,-24.6,13.7,127.3,-74.2,3.7,-0.06515064962612384,9.371650392777772,0.6155723421349806,4.5
-0.081,9.093,3.115,-0.264,9.427,2.69,0.16399999999999998,-0.341,0.337,-0.095,0.42200000000000004,0.023,-30.1,-23.5,11.4,125.1,-74.2,5.0,0.06528284330221543,9.48046889020539,1.5839453185694738,4.5
-0.09300000000000001,9.996,3.668,-0.348,9.431000000000001,2.6639999999999997,0.446,0.555,0.7929999999999999,0.068,0.48200000000000004,0.0,-30.7,-23.5,10.3,125.0,-74.0,6.8,0.07758489381570217,10.461986903361668,1.9808330616537388,4.5
0.005,9.879,2.7969999999999997,-0.466,9.448,2.585,0.442,0.435,0.195,0.141,0.45799999999999996,-0.131,-31.9,-23.1,9.2,122.9,-74.3,8.5,0.13114374045437235,10.203621397501413,1.1343662088545126,4.5
-0.8909999999999999,9.817,3.295,-0.6990000000000001,9.416,2.65,-0.129,0.341,0.6609999999999999,-0.33399999999999996,0.109,-0.13699999999999998,-31.9,-23.5,7.7,126.4,-74.1,14.4,-0.7377036424862563,10.229960824958788,1.681692556822153,4.5
-1.0490000000000002,9.091000000000001,4.185,-0.813,9.353,2.833,-0.23600000000000002,-0.262,1.3519999999999999,0.134,0.1,0.044000000000000004,-32.0,-24.1,6.6,127.2,-72.6,15.8,-0.840874098684447,9.657869468482117,2.6980354111691307,4.5
-0.5529999999999999,9.386000000000001,2.787,-0.778,9.402000000000001,2.679,0.375,-0.009000000000000001,-0.004,0.249,0.151,0.184,-31.5,-23.7,6.0,126.4,-73.1,16.2,-0.4221302407587709,9.71892316438601,1.2387544488711106,4.5
-0.127,9.16,2.404,-0.564,9.457,2.5340000000000003,0.365,-0.16899999999999998,-0.21899999999999997,0.09300000000000001,-0.134,0.179,-32.6,-24.0,5.9,123.8,-74.3,14.4,-0.020589575645452593,9.431039478789648,0.8694914714278732,4.5
0.038,9.797,2.124,-0.436,9.499,2.398,0.369,0.452,-0.526,0.006999999999999999,-0.07400000000000001,0.0,-32.7,-23.5,6.6,120.3,-75.5,10.4,0.12683657301806672,10.012623496595696,0.47467062176296326,4.5
-0.326,10.008,2.126,-0.414,9.535,2.252,0.06,0.564,-0.09,0.14,0.009000000000000001,-0.08,-32.1,-23.4,7.6,121.7,-75.9,10.0,-0.24220766041791747,10.223757493738935,0.4498156938700606,4.5
-0.326,9.656,1.6159999999999999,-0.381,9.573,2.093,-0.013999999999999999,0.04,-0.371,-0.067,0.012,0.019,-31.7,-23.6,7.6,122.0,-77.3,10.7,-0.26676355415236774,9.792083662459367,-0.0016593891476774925,4.5
-0.637,9.309,1.6469999999999998,-0.303,9.575,2.0980000000000003,-0.19899999999999998,-0.285,-0.522,0.102,0.071,0.054000000000000006,-32.7,-23.1,8.2,120.6,-77.2,8.5,-0.5762782393761112,9.45696849395953,0.09751561453606294,4.5
-0.632,9.363999999999999,1.865,-0.29100000000000004,9.575,2.0980000000000003,-0.317,-0.20600000000000002,-0.233,0.05,0.071,0.065,-32.6,-22.4,8.7,119.1,-77.6,8.0,-0.5633008636304816,9.54740932805373,0.303005378872641,4.5
-0.424,9.658999999999999,1.465,-0.37,9.592,2.006,-0.054000000000000006,0.047,-0.524,0.08199999999999999,0.179,-0.03,-32.8,-22.7,8.7,121.5,-77.9,9.8,-0.37245905318856704,9.770398552684275,-0.15122293279410104,4.5
-0.943,10.145,1.659,-0.496,9.626,1.8090000000000002,-0.424,0.5429999999999999,-0.138,0.18899999999999997,0.406,0.018000000000000002,-33.0,-23.2,8.2,124.4,-78.6,13.3,-0.8901590840142416,10.284412129361598,-0.032232880525246754,4.5
-0.385,9.398,1.597,-0.483,9.65,1.68,0.191,-0.28300000000000003,-0.213,0.129,0.335,0.127,-34.3,-22.5,7.1,123.0,-79.6,16.3,-0.33801471323040627,9.53450021208198,0.009474146318545928,4.5
-0.10300000000000001,9.467,1.736,-0.373,9.673,1.57,0.318,-0.10099999999999999,0.039,0.1,0.133,0.166,-34.6,-22.4,6.1,120.1,-80.2,15.0,-0.05539796801632718,9.624461205779618,0.12276629660797234,4.5
-0.01,10.032,1.932,-0.233,9.672,1.6030000000000002,0.223,0.36,0.32899999999999996,-0.32299999999999995,-0.026000000000000002,0.14,-34.4,-22.2,6.0,115.3,-80.8,10.7,0.04404966242593403,10.213912823762147,0.21861485728858177,4.5
-0.022000000000000002,9.065,2.536,-0.124,9.64,1.795,0.102,-0.575,0.741,0.129,-0.055999999999999994,0.057999999999999996,-34.9,-20.8,5.3,108.3,-79.4,4.4,0.05744731566597601,9.36157467948064,0.981643686084577,4.5
0.977,9.043,1.2830000000000001,-0.013999999999999999,9.641,1.795,1.077,-0.667,-0.413,-0.424,-0.5479999999999999,0.055,-34.5,-21.4,5.2,106.6,-79.9,2.9,1.0167086967458492,9.124919509523775,-0.28038254345397307,4.5
0.266,9.879,2.3080000000000003,0.039,9.583,2.083,0.387,0.133,0.165,0.032,0.009000000000000001,-0.152,-34.1,-21.9,5.5,104.1,-77.8,-1.3,0.34971360740208346,10.123506893937492,0.6201367278253467,4.5
-0.625,10.008,3.548,-0.038,9.561,2.182,-1.143,0.747,1.604,-0.18600000000000003,-0.721,0.03,-34.4,-22.3,7.0,108.4,-77.6,1.2,-0.4894606466635519,10.461821594554731,1.857339548675992,4.5
-0.006999999999999999,9.711,1.8459999999999999,0.075,9.566,2.157,-0.065,0.2,-0.275,0.287,-0.341,-0.006999999999999999,-33.8,-22.6,9.0,110.9,-77.0,-1.5,0.06248447911069671,9.8825682409763,0.20549124632658633,4.5
-0.369,9.388,1.635,0.125,9.599,2.004,-0.616,0.05,-0.68,-0.134,-0.488,0.011000000000000001,-33.5,-21.7,9.2,109.0,-78.2,-3.1,-0.3115995385674446,9.531181845197603,0.05838117282314892,4.5
-0.306,9.242,1.9869999999999999,0.131,9.605,1.976,-0.485,-0.389,0.17600000000000002,0.133,-0.12300000000000001,-0.011000000000000001,-33.3,-21.3,11.1,110.4,-78.0,-4.1,-0.2373045217461093,9.44554469940698,0.4263107967945232,4.5
0.28300000000000003,9.797,1.281,0.11800000000000001,9.609,1.953,0.085,0.18600000000000003,-0.5770000000000001,-0.013999999999999999,-0.213,-0.022000000000000002,-33.4,-22.3,11.9,112.9,-78.5,-3.4,0.32649169933184014,9.871641436365346,-0.38256701648486,4.5
0.043,9.562999999999999,2.167,0.081,9.601,1.996,-0.037000000000000005,-0.038,0.17,-0.10300000000000001,-0.124,-0.11699999999999999,-32.7,-21.8,12.7,114.8,-78.4,-2.9,0.11844995872534772,9.790008388088394,0.538899219183747,4.5
-0.441,9.863999999999999,3.122,-0.06,9.579,2.1,-0.35,0.336,0.953,-0.08,-0.009000000000000001,-0.16399999999999998,-32.5,-22.5,12.2,117.8,-77.7,0.8,-0.3263021138128657,10.248331238281596,1.4508944692784742,4.5
0.11,10.252,1.051,-0.26,9.587,2.0469999999999997,0.504,0.6890000000000001,-0.9740000000000001,-0.051,0.37799999999999995,-0.273,-29.8,-23.9,6.9,116.7,-77.7,5.4,0.14747079459809717,10.283091733502067,-0.675634342763967,4.5
0.223,9.891,1.6740000000000002,-0.29,9.557,2.178,-0.002,0.475,-0.35100000000000003,-0.267,-0.424,0.11699999999999999,-29.0,-24.0,7.6,121.0,-77.6,9.3,0.2864578196451399,10.030046209689862,-0.0009741920689174677,4.5
-0.235,9.046,3.3689999999999998,-0.21899999999999997,9.503,2.41,-0.015,-0.45799999999999996,0.958,-0.155,0.026000000000000002,0.043,-28.9,-23.0,8.3,119.5,-75.9,5.3,-0.09312552219029702,9.4792203584602,1.836085791260975,4.5
0.369,9.503,3.12,-0.203,9.469,2.541,0.5720000000000001,0.024,0.583,-0.065,-0.159,0.015,-29.6,-24.5,7.3,117.6,-75.0,4.7,0.5069601943346744,9.883606913127018,1.4949500821592658,4.5
0.261,9.295,3.7710000000000004,0.024,9.392999999999999,2.818,0.252,-0.106,0.884,-0.086,-0.28300000000000003,0.038,-28.5,-24.5,7.9,117.7,-73.4,-0.2,0.4460802156549535,9.782983033011751,2.186285072218497,4.5
-0.006999999999999999,9.107999999999999,3.259,0.12,9.38,2.858,-0.159,-0.105,0.314,-0.004,-0.18600000000000003,-0.009000000000000001,-28.1,-24.8,8.6,116.3,-73.1,-2.0,0.15550521163411687,9.516771249224112,1.7273323707659556,4.5
-0.125,9.821,2.4330000000000003,0.061,9.418,2.734,-0.198,0.387,-0.29,0.08,0.24100000000000002,0.019,-28.3,-24.4,9.7,118.9,-73.6,-1.6,-0.008805525563775465,10.087269484223302,0.7962862647169657,4.5
-0.369,9.687000000000001,3.0980000000000003,0.035,9.384,2.8480000000000003,-0.33899999999999997,0.29100000000000004,0.149,0.003,0.36200000000000004,0.033,-28.8,-24.9,9.1,118.1,-73.1,-0.7,-0.21461535867074236,10.064861896192669,1.4913850134661948,4.5
0.069,9.52,3.3930000000000002,0.006999999999999999,9.379,2.864,0.08900000000000001,0.24600000000000002,0.39399999999999996,-0.06,0.21899999999999997,0.08,-28.6,-24.7,7.4,117.1,-73.2,-0.1,0.23844654531527382,9.944421925254346,1.7886379783365336,4.5
0.182,9.242,2.978,0.025,9.427,2.7030000000000003,0.243,-0.079,0.045,0.172,0.395,0.11900000000000001,-29.6,-24.1,6.9,113.7,-73.7,-0.5,0.32223633270056595,9.603008367253164,1.4122910621941316,4.5
0.809,9.607999999999999,2.04,0.09300000000000001,9.449,2.6210000000000004,0.757,0.20199999999999999,-0.619,-0.13699999999999998,0.212,0.10800000000000001,-29.3,-24.6,6.3,111.8,-74.4,-1.2,0.9014411440437256,9.80612211849301,0.3963809544204866,4.5
-0.151,9.307,2.622,0.183,9.415,2.739,-0.36200000000000004,-0.10300000000000001,0.07400000000000001,0.032,0.006999999999999999,0.21899999999999997,-31.3,-23.8,6.4,109.1,-73.7,-3.2,-0.025531598142899903,9.611237169809105,1.0683642652092706,4.5
0.251,9.038,2.718,0.40299999999999997,9.384,2.819,-0.128,-0.341,-0.09699999999999999,-0.163,-0.026000000000000002,0.22399999999999998,-32.8,-23.1,8.4,108.0,-73.5,-6.6,0.3843702315369327,9.357673225296315,1.1925520255656286,4.5
0.6970000000000001,9.369,3.1839999999999997,0.444,9.354,2.911,0.253,0.015,0.273,0.036000000000000004,-0.037000000000000005,-0.155,-32.7,-23.2,7.7,104.2,-72.6,-9.0,0.8577990970469926,9.75550700101822,1.5799018520749355,4.5
-0.551,9.817,3.589,0.214,9.383,2.842,-0.767,0.45,0.732,0.203,0.168,-0.152,-33.3,-22.7,10.2,111.7,-72.9,-5.2,-0.3723727164478123,10.274514965765384,1.9630822138434265,4.5
-0.5670000000000001,9.436,2.1790000000000003,0.10300000000000001,9.449,2.6239999999999997,-0.637,-0.027000000000000003,-0.426,0.19,0.172,-0.012,-34.0,-23.3,9.7,112.7,-74.2,-2.6,-0.46664770601579353,9.669585623485565,0.6236824420740659,4.5
-0.23,9.584,2.049,0.079,9.462,2.574,-0.309,0.122,-0.525,-0.147,0.048,0.017,-34.0,-22.6,9.4,111.8,-74.8,-1.8,-0.137747998747572,9.791808618236294,0.45372510694744905,4.5
0.196,9.917,2.548,0.019,9.453,2.608,0.146,0.46399999999999997,-0.061,-0.012,0.04,-0.051,-33.2,-22.7,9.2,113.6,-74.6,-0.6,0.3117373321151251,10.1989152144724,0.8732452598034202,4.5
-0.06,9.888,2.612,-0.016,9.461,2.58,0.059000000000000004,0.26899999999999996,0.16399999999999998,0.245,0.168,-0.094,-33.6,-23.3,9.5,113.5,-74.6,0.0,0.05763816617829553,10.182860137228563,0.9511704723345229,4.5
-0.376,10.01,2.3080000000000003,-0.094,9.51,2.392,-0.282,0.5,-0.084,0.18899999999999997,0.08,0.055999999999999994,-33.6,-23.4,9.7,116.7,-75.5,1.8,-0.279345304418551,10.256018078917727,0.6359240251886034,4.5
-0.163,9.503,2.421,0.011000000000000001,9.527999999999999,2.32,-0.08800000000000001,-0.057,0.122,0.009000000000000001,-0.046,0.17,-33.4,-22.8,10.0,115.4,-76.3,0.8,-0.06486287957831707,9.773415364045169,0.819123878725712,4.5
1.089,9.058,2.064,0.182,9.519,2.35,0.9079999999999999,-0.462,-0.28600000000000003,-0.107,-0.373,-0.031,-34.6,-22.1,9.7,110.2,-76.2,-3.8,1.1727158956736872,9.266940508978648,0.49186586696456347,4.5
0.263,9.091000000000001,2.26,0.163,9.535,2.286,0.1,-0.444,-0.026000000000000002,0.289,-0.011000000000000001,-0.099,-33.7,-22.4,11.2,111.1,-76.1,-4.4,0.35293680661409765,9.337737673153557,0.7107325501944071,4.5
0.21100000000000002,9.273,2.727,0.183,9.568999999999999,2.14,-0.131,-0.322,0.8290000000000001,0.129,-0.517,0.06,-33.8,-21.9,11.6,112.3,-77.3,-3.9,0.3126827810450601,9.595674286769652,1.1379118861606303,4.5
-0.06,9.805,2.069,0.28,9.6,1.983,-0.474,0.26899999999999996,0.11199999999999999,0.185,0.075,0.11599999999999999,-33.1,-21.5,12.8,109.6,-78.0,-7.6,0.011629507239001469,10.012875317080578,0.40568292934246286,4.5
0.7829999999999999,9.503,2.638,0.34600000000000003,9.585,2.045,0.409,-0.087,0.546,-0.057999999999999996,-0.188,-0.032,-33.7,-20.6,12.5,106.4,-77.8,-9.6,0.8766368159922652,9.804657759802161,0.9896141197447532,4.5
0.919,9.943,2.2430000000000003,0.331,9.589,2.028,0.584,0.386,0.201,0.040999999999999995,-0.162,-0.047,-32.8,-21.8,13.2,108.8,-77.8,-9.3,0.9977994507827833,10.172063061053619,0.5219083616556381,4.5
0.632,9.314,2.516,0.371,9.565,2.1319999999999997,0.35700000000000004,-0.289,0.295,-0.036000000000000004,-0.299,-0.05,-33.4,-21.9,14.6,111.5,-77.3,-9.7,0.7251623641596417,9.598392726843418,0.9084451589863638,4.5
0.429,9.405,2.349,0.349,9.552,2.1919999999999997,0.079,-0.147,0.157,-0.03,-0.21100000000000002,-0.165,-32.7,-22.7,14.7,112.0,-77.0,-9.7,0.5185313467433205,9.66139472739208,0.7378645973111011,4.5
0.065,9.527000000000001,1.959,0.28,9.562999999999999,2.155,-0.064,-0.081,-0.355,-0.122,-0.3,-0.153,-31.8,-22.7,16.8,116.9,-77.2,-7.9,0.1386182948189507,9.719424640078884,0.3452602412224468,4.5
0.079,9.472000000000001,1.9269999999999998,0.212,9.545,2.239,-0.183,-0.071,-0.136,-0.084,-0.111,-0.115,-30.4,-23.2,16.6,120.6,-76.8,-5.9,0.15422371141311125,9.65965012708791,0.32515914424867565,4.5
0.038,9.421,2.016,0.171,9.524,2.33,-0.099,-0.141,-0.29,-0.139,-0.064,-0.017,-29.8,-23.3,16.4,121.1,-76.4,-4.3,0.11992902575938139,9.624181971331593,0.42623867900075196,4.5
0.10800000000000001,9.67,2.181,0.14800000000000002,9.507,2.401,-0.122,0.19699999999999998,-0.39299999999999996,-0.292,0.037000000000000005,0.062,-30.4,-24.4,16.3,122.2,-75.9,-3.6,0.19927405876520438,9.89635483221906,0.5475179305901519,4.5
-0.405,9.412,3.177,0.122,9.463,2.571,-0.503,-0.046,0.7040000000000001,0.04,0.425,0.018000000000000002,-30.1,-23.2,15.6,122.4,-75.2,-3.4,-0.2620804404217919,9.808715181726672,1.601099099529146,4.5
-0.7709999999999999,9.4,4.535,-0.026000000000000002,9.46,2.5839999999999996,-0.802,-0.062,1.62,0.11,0.47,0.035,-31.8,-23.8,13.2,121.0,-74.7,0.6,-0.5657599219268035,10.022489015851306,2.9580898630503607,4.5
-1.4409999999999998,10.008,3.292,-0.182,9.434,2.6719999999999997,-1.044,0.541,0.501,-0.568,0.8,0.11599999999999999,-32.7,-23.3,12.9,122.8,-74.5,3.6,-1.2859658149594313,10.422663266265966,1.6697878190913253,4.5
-0.74,9.043,3.596,-0.161,9.281,3.1630000000000003,-0.644,-0.23800000000000002,0.387,-0.22399999999999998,0.537,0.32299999999999995,-33.1,-23.3,8.3,118.6,-72.0,3.7,-0.5404570853712197,9.510272572961846,2.1253909585866086,4.5
-0.915,9.443,2.9330000000000003,-0.215,9.352,2.9419999999999997,-0.6990000000000001,0.091,-0.009000000000000001,0.33799999999999997,1.0270000000000001,0.478,-34.6,-22.6,6.2,115.0,-71.6,3.8,-0.7632576655154868,9.801103735698954,1.402057879725324,4.5
-0.23,8.854,3.2060000000000004,-0.068,9.367,2.903,0.027999999999999997,-0.46299999999999997,0.23800000000000002,0.065,1.042,0.506,-37.1,-20.3,2.0,103.7,-72.7,1.9,-0.0673361563227376,9.258968941438166,1.7296277008463656,4.5
-0.309,8.447000000000001,3.326,-0.036000000000000004,9.366,2.906,-0.541,-0.773,0.607,0.013000000000000001,1.271,0.287,-36.7,-18.6,-0.4,97.2,-72.8,0.3,-0.13998260039385493,8.877520631876125,1.9182279067411954,4.5
-0.026000000000000002,9.615,2.327,-0.154,9.38,2.8569999999999998,0.128,0.23600000000000002,-0.53,-0.036000000000000004,1.351,0.146,-38.3,-16.6,-4.6,92.0,-73.1,1.9,0.09001794768343416,9.86543690608236,0.7272423400785779,4.5
-0.42100000000000004,9.352,3.3810000000000002,-0.321,9.36,2.909,-0.1,-0.008,0.47200000000000003,-0.14400000000000002,1.008,0.154,-36.8,-17.2,-9.2,91.4,-72.8,5.7,-0.2488722901175006,9.780129615647093,1.831784180615804,4.5
-0.615,9.251,3.5,-0.485,9.328,2.987,-0.135,-0.07400000000000001,0.49700000000000005,-0.205,0.898,0.223,-36.5,-16.6,-14.4,86.1,-72.2,8.8,-0.4317815665133813,9.700395605912156,1.9811904925118524,4.5
-0.385,9.022,3.445,-0.526,9.285,3.111,0.141,-0.264,0.335,-0.168,0.7929999999999999,0.255,-34.5,-14.9,-17.8,81.1,-71.4,9.6,-0.19747060125717894,9.462180931448282,1.9598141192918395,4.5
-0.251,9.204,3.5389999999999997,-0.5710000000000001,9.244,3.2239999999999998,0.298,-0.033,0.314,-0.136,0.745,0.22,-32.9,-13.0,-19.7,76.4,-70.8,9.8,-0.05157026505784032,9.654339569682936,2.0229201617998136,4.5
-0.278,9.079,4.216,-0.5870000000000001,9.187000000000001,3.38,0.35200000000000004,-0.084,0.695,-0.243,0.654,0.192,-32.0,-13.2,-23.7,70.7,-69.8,10.0,-0.028949718998599605,9.637100176626673,2.7213311263850386,4.5
0.163,8.902000000000001,3.785,-0.595,9.144,3.4939999999999998,0.758,-0.242,0.29100000000000004,-0.08900000000000001,0.386,0.138,-30.1,-11.0,-26.6,67.7,-69.1,9.9,0.39337020768574016,9.387675531931098,2.305473050566296,4.5
-0.242,9.218,3.405,-0.5710000000000001,9.13,3.533,0.276,0.085,-0.11699999999999999,-0.1,0.21899999999999997,0.168,-29.2,-10.6,-27.1,63.7,-68.6,9.4,-0.03171225805618941,9.642844023765653,1.907528889955801,4.5
-0.395,9.228,3.6460000000000004,-0.503,9.127,3.553,0.10800000000000001,0.10099999999999999,0.094,0.046,0.16399999999999998,0.179,-29.3,-10.3,-27.0,62.7,-68.4,8.4,-0.1682914450134421,9.692278032187051,2.1533112957302785,4.5
-0.6990000000000001,9.436,3.9219999999999997,-0.42100000000000004,9.142000000000001,3.5239999999999996,-0.278,0.294,0.39799999999999996,0.07,0.081,0.146,-28.3,-10.3,-28.3,58.7,-68.6,7.1,-0.4566060534876085,9.94492306171107,2.40806918683118,4.5
0.33,8.878,3.8310000000000004,-0.179,9.151,3.522,0.495,-0.256,0.293,-0.146,-0.168,0.244,-28.7,-9.6,-28.9,55.8,-69.0,5.1,0.5647220162572804,9.369902246888653,2.3431529886256444,4.5
0.01,10.390999999999998,2.54,-0.07,9.187999999999999,3.427,-0.45899999999999996,0.925,-0.2,0.035,0.8190000000000001,0.09300000000000001,-29.3,-8.8,-28.0,52.1,-69.4,0.5,0.16181519475675119,10.662433078224531,0.8431593533426263,4.5
0.129,8.811,3.5789999999999997,-0.096,9.156,3.511,0.225,-0.345,0.068,-0.025,-0.42700000000000005,0.011000000000000001,-27.8,-8.9,-29.6,50.5,-69.1,1.9,0.3479365243140529,9.265912517871763,2.1169337226742906,4.5
0.5529999999999999,7.939,3.84,-0.27,9.144,3.534,0.8590000000000001,-1.281,0.33299999999999996,0.424,0.36200000000000004,-0.493,-27.9,-9.3,-28.0,54.1,-68.6,3.1,0.7886493153029496,8.44177294161913,2.488700837710169,4.5
-0.275,9.335,2.844,-0.48200000000000004,9.23,3.278,0.099,-0.002,-0.19399999999999998,0.29100000000000004,-0.22699999999999998,-0.034,-27.3,-10.6,-29.0,55.9,-69.6,7.9,-0.1119281138592168,9.672082232781229,1.320788923199175,4.5
0.048,9.448,2.562,-0.326,9.295,3.11,0.539,0.11199999999999999,-0.6890000000000001,-0.01,-0.087,0.281,-27.2,-11.5,-28.4,56.7,-71.3,7.4,0.18692578162351214,9.73672436701091,0.9960468628636059,4.5
0.23,9.527000000000001,2.818,-0.172,9.267999999999999,3.2,0.402,0.259,-0.382,-0.131,0.036000000000000004,0.153,-27.4,-10.4,-29.0,51.9,-71.0,4.2,0.3869464438722613,9.853703818912432,1.2298562918996443,4.5
0.168,9.599,2.6069999999999998,-0.11699999999999999,9.285,3.154,0.28,0.302,-0.542,0.22699999999999998,0.111,0.06,-27.5,-10.7,-30.1,50.8,-71.0,2.2,0.31118243129509565,9.89173297281156,1.0110678953689856,4.5
0.18899999999999997,9.85,1.973,-0.038,9.367,2.904,0.193,0.447,-0.919,0.079,0.07,0.14800000000000002,-27.7,-10.5,-28.6,50.7,-72.3,1.5,0.2887147685993861,10.037810923514193,0.33158052743147626,4.5
0.237,9.177,2.861,0.084,9.35,2.957,0.146,-0.17,-0.113,-0.135,-0.07,0.054000000000000006,-26.9,-10.6,-30.4,45.5,-72.6,-1.2,0.38427341986600116,9.517284410165153,1.3162258145211383,4.5
-0.237,9.575,2.9930000000000003,0.068,9.367,2.903,-0.35600000000000004,0.083,0.396,-0.132,0.052000000000000005,-0.002,-27.3,-10.0,-29.3,45.3,-72.8,-1.7,-0.08511461247465682,9.935789949307217,1.4027389586052554,4.5
-0.175,9.256,2.943,0.038,9.362,2.9189999999999996,-0.213,-0.106,0.023,0.044000000000000004,0.157,0.08199999999999999,-26.3,-10.3,-29.8,46.6,-72.7,-0.9,-0.02490317713463619,9.612283711917383,1.403136370199401,4.5
-0.6629999999999999,9.149,4.034,0.011000000000000001,9.343,2.98,-0.674,-0.19399999999999998,1.054,0.08900000000000001,0.319,0.064,-26.1,-10.0,-30.8,44.2,-72.3,-0.2,-0.45238632997789907,9.687238328413079,2.523823721453949,4.5
-0.929,9.263,3.213,-0.09,9.378,2.865,-0.5710000000000001,0.043,-0.21899999999999997,0.295,0.406,0.133,-25.1,-10.9,-31.6,44.0,-72.6,1.4,-0.7672438613492318,9.66965933079999,1.702528790797559,4.5
-0.14400000000000002,9.232000000000001,3.242,-0.077,9.332,3.012,-0.067,-0.1,0.23,-0.418,0.098,0.11,-24.7,-9.7,-32.5,43.7,-72.9,1.8,0.026550240431781807,9.636024512096427,1.7051248303305722,4.5
-1.2670000000000001,8.947000000000001,3.3760000000000003,-0.17300000000000001,9.304,3.096,-1.094,-0.35600000000000004,0.28,0.196,0.7509999999999999,0.11,-23.9,-8.9,-32.5,42.9,-71.4,2.5,-1.08281593419531,9.385370913991473,1.947767044452608,4.5
-0.759,9.601,2.727,-0.242,9.322000000000001,3.034,-0.517,0.27899999999999997,-0.307,-0.051,0.35700000000000004,0.3,-22.5,-9.7,-34.4,43.4,-71.9,4.8,-0.6135999045239149,9.921820407151507,1.1716594920881103,4.5
-0.184,9.424,2.591,-0.138,9.305,3.095,-0.156,0.021,-0.217,0.145,0.425,0.20800000000000002,-21.7,-8.5,-34.4,39.5,-71.5,2.8,-0.043839127483957296,9.719929273618078,1.039214148654537,4.5
-0.45299999999999996,9.697000000000001,2.727,-0.142,9.344,2.975,-0.306,0.332,-0.293,0.077,0.337,0.11,-19.4,-8.5,-35.3,36.5,-72.1,2.5,-0.31085752810752115,10.01431439757954,1.1359673162772117,4.5
0.036000000000000004,9.328,2.67,-0.102,9.363999999999999,2.911,0.141,-0.07,-0.239,0.021,0.10800000000000001,0.092,-18.3,-8.6,-36.5,32.0,-72.7,2.4,0.17154869879755402,9.637267741519201,1.1114951741749677,4.5
-0.105,9.335,2.775,-0.016,9.387,2.838,-0.149,0.037000000000000005,-0.051,-0.013999999999999999,-0.062,0.195,-17.5,-8.7,-35.3,31.1,-73.0,1.7,0.032525173109010194,9.662898085677769,1.2170528743317326,4.5
-0.706,9.378,3.8480000000000003,0.129,9.369,2.8939999999999997,-0.888,0.021,0.968,-0.105,-0.11699999999999999,0.256,-18.6,-8.3,-36.0,29.0,-73.0,-1.5,-0.5108203320058025,9.884329232661274,2.3003308911474587,4.5
0.11,9.783,3.565,0.311,9.386000000000001,2.826,-0.009000000000000001,0.35200000000000004,0.7440000000000001,0.17600000000000002,-0.023,0.198,-18.5,-7.3,-35.9,23.6,-72.9,-5.1,0.28563152619586285,10.231831843699911,1.9121835041364297,4.5
0.828,9.931000000000001,2.88,0.518,9.41,2.713,0.311,0.522,0.16699999999999998,0.049,0.022000000000000002,0.191,-18.9,-7.4,-35.4,20.8,-73.5,-9.6,0.9633913034100213,10.261304084711586,1.1756958269872664,4.5
1.805,9.924,1.686,0.6559999999999999,9.429,2.614,1.149,0.495,-0.929,0.174,0.10400000000000001,-0.003,-20.2,-7.6,-34.7,18.7,-73.6,-12.7,1.8800153879842598,10.052356289546672,-0.04552108252083098,4.5
1.3980000000000001,9.625,2.7030000000000003,0.638,9.441,2.575,0.782,0.16699999999999998,0.032,-0.065,-0.228,-0.209,-19.8,-7.6,-35.3,16.9,-74.3,-14.3,1.5180263986631752,9.927257777079234,1.0229305354624962,4.5
0.606,8.806000000000001,2.82,0.61,9.398,2.736,0.11599999999999999,-0.7040000000000001,0.28600000000000003,0.038,-0.053,-0.213,-19.6,-7.3,-35.2,18.3,-73.5,-13.0,0.7399193214309367,9.143038421537943,1.312493740958084,4.5
0.905,8.693999999999999,2.804,0.551,9.396,2.755,0.08800000000000001,-0.621,0.09699999999999999,-0.247,-0.28,-0.001,-20.5,-7.9,-34.7,18.9,-73.7,-11.4,1.0387291392476081,9.027499810424901,1.300909661758384,4.5
0.304,8.844,3.3280000000000003,0.552,9.349,2.909,-0.262,-0.483,0.41200000000000003,-0.106,0.16399999999999998,0.135,-20.0,-7.3,-34.4,21.5,-72.8,-11.1,0.4725037309436362,9.263949767627851,1.8276517521432352,4.5
0.56,9.697000000000001,2.9619999999999997,0.595,9.308,3.03,0.044000000000000004,0.32899999999999996,0.075,-0.168,-0.053,0.022000000000000002,-20.0,-6.1,-33.8,21.4,-71.6,-11.1,0.7157850386592397,10.042942265117018,1.3212930931318279,4.5
1.3259999999999998,9.307,2.722,0.617,9.297,3.06,0.40299999999999997,-0.043,-0.171,-0.055,-0.102,-0.18600000000000003,-20.6,-7.0,-33.8,22.5,-71.5,-11.5,1.4694143842825915,9.612427590153986,1.108993323383805,4.5
0.8859999999999999,9.326,2.303,0.539,9.345,2.925,0.34700000000000003,-0.019,-0.622,-0.019,0.015,-0.121,-19.1,-7.0,-34.6,21.1,-72.2,-10.7,1.0023648731257435,9.568359834904319,0.710517931450992,4.5
0.778,9.544,2.84,0.442,9.33,2.987,0.386,0.192,-0.174,0.068,0.12300000000000001,-0.08800000000000001,-19.9,-6.5,-33.5,24.9,-72.0,-8.8,0.9249336784256587,9.870966360304417,1.2113384350595675,4.5
0.757,9.515,2.449,0.35600000000000004,9.351,2.9330000000000003,0.434,0.145,-0.48200000000000004,0.045,-0.043,-0.084,-20.8,-7.5,-33.2,27.1,-72.2,-7.1,0.8813192282272347,9.779663739217582,0.8290528124249472,4.5
0.127,10.094,1.915,0.281,9.404,2.7680000000000002,-0.154,0.69,-0.852,0.297,0.133,0.06,-20.2,-7.4,-33.4,27.8,-72.9,-5.9,0.21933089779752293,10.269878224112698,0.2317007103293427,4.5
0.838,9.107999999999999,2.7889999999999997,0.35200000000000004,9.418,2.71,0.244,-0.16899999999999998,0.158,-0.07,-0.153,0.106,-19.5,-8.3,-33.9,26.3,-73.8,-6.5,0.9689289893909692,9.43461819773271,1.2188457968621718,4.5
0.895,9.369,3.182,0.456,9.357000000000001,2.898,0.49200000000000005,0.086,0.11900000000000001,-0.4,-0.247,-0.037000000000000005,-20.9,-7.4,-33.0,23.8,-73.1,-8.8,1.0547312773539756,9.753669023017224,1.5677348379127949,4.5
0.907,9.019,3.759,0.512,9.26,3.1860000000000004,0.40700000000000003,-0.466,0.903,-0.413,-0.504,-0.141,-21.4,-6.4,-33.0,25.6,-71.6,-9.2,1.1145141717856881,9.497299604722944,2.2032361151311672,4.5
0.151,9.711,3.6060000000000003,0.456,9.241,3.252,-0.315,0.466,0.385,0.585,0.10400000000000001,-0.142,-22.7,-5.5,-32.0,30.3,-70.2,-8.2,0.3553167932366069,10.161737483010134,1.9855476077976446,4.5
0.213,9.62,3.012,0.451,9.3,3.077,-0.23800000000000002,0.32,-0.065,-0.294,-0.7559999999999999,-0.08900000000000001,-22.3,-7.8,-31.1,31.4,-71.7,-7.6,0.37437103317143117,9.977753365551258,1.4022115053559865,4.5
0.11699999999999999,9.225,2.926,0.445,9.298,3.0839999999999996,-0.455,-0.09,-0.048,0.212,-0.142,-0.12,-24.4,-8.1,-30.6,32.4,-71.0,-8.6,0.2742493229904262,9.57484641337558,1.3866843437163712,4.5
0.187,9.149,2.492,0.317,9.359,2.911,-0.175,-0.201,-0.373,0.205,-0.040999999999999995,-0.102,-25.0,-7.8,-29.3,38.1,-72.6,-6.2,0.31331417527992517,9.430397357856423,0.9584747782300911,4.5
0.34700000000000003,8.943,2.476,0.223,9.367,2.8960000000000004,0.124,-0.424,-0.42,-0.12300000000000001,-0.023,-0.146,-25.7,-8.9,-29.4,39.5,-72.9,-5.1,0.4716523781926898,9.223374736617652,0.9670245612539834,4.5
-0.067,9.345,2.734,0.08,9.345,2.9730000000000003,-0.147,0.0,-0.239,-0.301,-0.16399999999999998,-0.095,-24.4,-8.4,-28.5,42.5,-72.6,-2.0,0.07489012403542115,9.664888326924562,1.180082665493966,4.5
-0.022000000000000002,9.642000000000001,3.062,0.012,9.29,3.141,-0.033,0.35200000000000004,-0.078,-0.055999999999999994,0.067,-0.016,-24.8,-8.9,-29.6,42.5,-71.4,-0.6,0.1458103197878683,10.009290239910655,1.4619645152577005,4.5
-0.002,9.591000000000001,3.56,-0.021,9.236,3.295,0.002,0.39299999999999996,0.217,-0.163,-0.054000000000000006,-0.023,-24.4,-7.5,-29.7,43.3,-70.8,0.2,0.20262117566271118,10.037117521468328,1.968781734831613,4.5
-0.048,9.552999999999999,3.8760000000000003,0.035,9.165,3.489,-0.07400000000000001,0.41,0.193,-0.319,-0.275,-0.003,-24.7,-7.1,-28.7,45.0,-69.5,-0.3,0.18797045328944367,10.047727243719441,2.300724525993555,4.5
-0.63,9.63,4.434,0.1,9.113,3.6210000000000004,-0.73,0.517,0.813,0.182,-0.12300000000000001,-0.017,-26.1,-6.2,-28.2,45.9,-68.3,-1.6,-0.34870709308765735,10.215615384468265,2.8833594434003023,4.5
-0.18,9.247,3.3089999999999997,0.168,9.199,3.3939999999999997,-0.34700000000000003,0.048,-0.085,0.52,-0.19899999999999998,0.039,-25.6,-6.3,-27.4,43.8,-68.9,-2.3,0.016214679538441884,9.65784054083903,1.7929704882940858,4.5
0.7929999999999999,9.771,1.6780000000000002,0.312,9.365,2.8939999999999997,0.48,0.29600000000000004,-1.163,0.473,-0.235,0.063,-26.9,-8.6,-26.3,45.2,-72.1,-5.4,0.8767081409620046,9.906956062301289,0.024050264088759654,4.5
1.5130000000000001,9.218,2.2119999999999997,0.485,9.402000000000001,2.7439999999999998,1.028,-0.184,-0.532,-0.040999999999999995,-0.18600000000000003,-0.091,-28.4,-8.0,-25.4,42.9,-73.6,-9.2,1.6171614923998974,9.443275916418354,0.6024663259403222,4.5
0.263,8.378,3.8089999999999997,0.479,9.385,2.804,-0.321,-1.034,1.1159999999999999,-0.006,-0.499,-0.09699999999999999,-28.2,-8.5,-25.4,42.0,-73.3,-9.6,0.44901956967411344,8.884142790748644,2.3746415097101607,4.5
0.41700000000000004,9.546,2.322,0.49700000000000005,9.443,2.5980000000000003,-0.081,0.10300000000000001,-0.275,0.218,-0.078,0.087,-28.6,-8.8,-24.2,42.7,-73.9,-10.2,0.521823321084845,9.794114446979224,0.7033573921164336,4.5
0.429,8.816,3.426,0.687,9.385,2.762,-0.16,-0.5429999999999999,0.344,-0.23800000000000002,-0.324,0.11699999999999999,-29.8,-9.2,-24.5,40.4,-74.2,-12.4,0.5935914859995678,9.252646826123124,1.9182150189127678,4.5
1.6880000000000002,9.041,2.167,0.825,9.365,2.79,0.8340000000000001,-0.243,-0.74,-0.27,-0.214,-0.043,-29.2,-8.0,-24.1,37.4,-72.7,-16.5,1.7914788575385832,9.259332630316225,0.5833324473689643,4.5
1.911,9.85,2.9760000000000004,0.767,9.349,2.86,1.146,0.434,0.055999999999999994,0.122,0.0,-0.242,-29.1,-7.1,-23.9,38.8,-72.4,-15.0,2.0571093594783543,10.186516797935818,1.2386176199771957,4.5
0.8190000000000001,9.445,4.231,0.6609999999999999,9.302999999999999,3.033,0.275,0.418,0.746,-0.337,-0.325,-0.281,-30.1,-8.9,-23.6,42.7,-71.9,-13.0,1.0417197961810292,9.996773583371084,2.5999009190849214,4.5
0.496,9.417,3.158,0.584,9.302999999999999,3.0469999999999997,-0.122,0.147,0.243,0.225,-0.205,-0.10800000000000001,-31.0,-9.4,-22.7,47.3,-71.3,-10.9,0.6631627259651811,9.798664978849166,1.5637291425196842,4.5
1.1440000000000001,9.508,2.478,0.635,9.335,2.935,0.5379999999999999,0.16,-0.486,-0.102,-0.55,-0.085,-32.3,-10.8,-21.9,48.3,-72.2,-11.7,1.2693804961828938,9.774003159499006,0.8419141250827782,4.5
1.42,9.453,2.5380000000000003,0.718,9.336,2.915,0.644,0.009000000000000001,-0.192,0.196,-0.523,-0.133,-34.0,-11.3,-20.9,49.9,-72.1,-13.6,1.5472311575436126,9.727262135757409,0.8963816639057698,4.5
0.615,9.041,3.275,0.778,9.35,2.853,-0.163,-0.309,0.42200000000000004,0.037000000000000005,-0.66,-0.131,-35.3,-11.8,-19.3,52.1,-72.4,-15.0,0.777246556364529,9.44732428514598,1.7284335804162354,4.5
0.716,9.369,2.636,0.816,9.383,2.7319999999999998,-0.27,-0.086,0.18600000000000003,0.06,-0.618,-0.095,-36.1,-11.9,-16.6,53.7,-72.8,-16.0,0.8408294250557419,9.667351469091042,1.0366457693077693,4.5
0.8759999999999999,9.146,3.4810000000000003,0.8759999999999999,9.363,2.782,0.0,-0.217,0.6990000000000001,-0.11800000000000001,-0.552,-0.251,-37.6,-13.3,-14.4,56.1,-72.9,-17.7,1.0439214057065365,9.582887117416547,1.9006724056395645,4.5
0.127,9.165,3.014,0.644,9.411,2.682,-0.565,-0.17600000000000002,0.239,0.066,-0.1,-0.37200000000000005,-37.2,-13.5,-12.5,60.9,-73.2,-16.2,0.26789395817673195,9.53297017686408,1.4656952050792873,4.5
0.43799999999999994,8.976,3.412,0.34600000000000003,9.426,2.6830000000000003,0.11900000000000001,-0.493,0.705,0.152,-0.09300000000000001,-0.26899999999999996,-37.4,-16.0,-12.2,68.5,-73.7,-10.3,0.5972359016162729,9.409630969082734,1.8719824527755928,4.5
0.402,9.141,2.806,0.249,9.435,2.6630000000000003,0.153,-0.294,0.14300000000000002,-0.064,-0.39299999999999996,-0.122,-37.0,-16.1,-11.7,73.5,-74.2,-5.5,0.5319365794207301,9.473767654855804,1.2481549972988637,4.5
0.23199999999999998,9.886000000000001,2.8539999999999996,0.305,9.391,2.8080000000000003,-0.047,0.456,0.075,-0.214,-0.643,-0.064,-37.9,-16.7,-9.1,77.2,-73.6,-5.7,0.3715367582979717,10.216782312771711,1.1880469732584584,4.5
0.09300000000000001,9.345,3.759,0.392,9.328,3.0,-0.316,0.045,0.7879999999999999,-0.098,-0.512,-0.08800000000000001,-38.2,-16.9,-8.5,79.3,-72.2,-7.2,0.2896034903771766,9.829085330351246,2.184711968895513,4.5
0.721,8.916,3.321,0.489,9.294,3.091,0.23199999999999998,-0.37799999999999995,0.23,-0.033,-0.7120000000000001,-0.149,-38.6,-17.2,-5.0,83.5,-71.6,-8.3,0.8990259684727832,9.328240540935564,1.7943296013992907,4.5
0.795,9.172,3.2489999999999997,0.461,9.286,3.12,0.265,-0.159,0.235,-0.163,-0.636,-0.35200000000000004,-38.8,-17.5,-2.5,85.7,-71.5,-9.0,0.9706561800044783,9.56831077622698,1.6789477269283188,4.5
0.35700000000000004,9.201,3.654,0.257,9.244,3.265,0.1,-0.043,0.389,-0.07,-0.6809999999999999,-0.49700000000000005,-37.3,-19.7,0.0,94.9,-70.6,-5.8,0.5645311191871212,9.664265202215228,2.1025814411625543,4.5
0.139,9.256,3.843,0.07400000000000001,9.208,3.3739999999999997,0.065,0.048,0.469,-0.147,-0.848,-0.435,-36.5,-21.4,3.0,101.9,-70.1,-2.0,0.3649327009541539,9.749304798274988,2.2976914662562065,4.5
0.33799999999999997,9.033999999999999,3.7880000000000003,0.038,9.157,3.511,0.254,-0.135,0.349,-0.22699999999999998,-0.907,-0.371,-35.5,-22.9,5.6,108.0,-69.5,-0.7,0.5693434437076237,9.517268584983528,2.2745968267789283,4.5
-0.268,9.177,3.9,0.047,9.117,3.613,-0.09699999999999999,0.09699999999999999,-0.005,-0.031,-0.889,-0.395,-33.8,-24.3,8.5,113.4,-68.6,-0.9,-0.021701076895923516,9.68047243695625,2.40564657848817,4.5
-0.20800000000000002,9.354,3.484,0.057,9.106,3.64,-0.265,0.248,-0.156,-0.075,-0.885,-0.273,-31.9,-25.3,10.4,119.4,-68.2,-0.9,0.013609311808941593,9.788474428129792,1.9658125944456726,4.5
-0.654,9.247,4.087,0.11199999999999999,9.08,3.702,-0.7659999999999999,0.166,0.385,-0.02,-0.823,-0.251,-29.2,-27.2,14.3,126.9,-67.9,-1.5,-0.3887493171257937,9.78142703050107,2.6097611414490114,4.5
0.086,9.187000000000001,4.434,0.174,9.078,3.7060000000000004,-0.08800000000000001,0.109,0.7290000000000001,0.198,-0.951,-0.34,-26.7,-27.6,17.3,131.1,-67.7,-2.2,0.37241989681609744,9.769179790859132,2.9143010541680554,4.5
0.12,9.79,3.3569999999999998,0.10099999999999999,9.205,3.3810000000000002,0.018000000000000002,0.585,-0.024,0.368,-0.556,-0.431,-23.8,-27.5,20.7,139.4,-69.8,-1.7,0.31777143862102,10.198871059656271,1.7349349905118794,4.5
-0.223,9.216000000000001,3.187,-0.015,9.307,3.091,-0.20800000000000002,-0.091,0.095,0.342,-0.857,-0.249,-22.1,-27.8,22.3,143.7,-71.5,0.3,-0.0508262005618241,9.611290814344631,1.6618843459852986,4.5
0.096,9.067,2.267,0.042,9.392999999999999,2.818,0.111,-0.304,-0.627,0.499,-0.78,-0.066,-19.4,-27.6,25.1,148.1,-72.6,-0.1,0.2073377302438143,9.314199713662004,0.7494589779540777,4.5
0.711,9.562999999999999,1.882,0.16699999999999998,9.464,2.562,0.506,0.132,-0.616,0.11699999999999999,-0.993,-0.11199999999999999,-18.0,-26.8,27.8,149.7,-74.5,-2.8,0.7944155656153125,9.73675715576347,0.2507548579726917,4.5
0.948,9.359,1.975,0.392,9.479,2.484,0.544,-0.127,-0.43700000000000006,-0.174,-1.012,-0.075,-12.6,-26.9,30.3,152.3,-75.3,-7.4,1.0327065480370283,9.549395524651219,0.3643793345028019,4.5
0.9940000000000001,9.277999999999999,2.557,0.5589999999999999,9.482999999999999,2.435,0.434,-0.205,0.122,0.18100000000000002,-0.765,-0.069,-10.3,-26.3,30.9,153.6,-75.2,-12.9,1.101739165487286,9.565152094542519,0.9495289461097223,4.5
0.998,9.57,1.8119999999999998,0.508,9.53,2.2569999999999997,0.49,0.04,-0.445,0.182,-0.51,-0.252,-7.9,-26.7,32.2,155.3,-75.8,-13.0,1.0685858062434481,9.731186948990162,0.16239747072720867,4.5
0.618,9.29,1.865,0.368,9.539,2.244,0.319,-0.302,-0.405,-0.218,-0.449,-0.228,-6.2,-26.6,32.8,161.4,-76.8,-11.1,0.6905505168723864,9.466366164242128,0.2744095992108122,4.5
0.718,9.424,2.928,0.309,9.476,2.505,0.297,0.067,0.21,-0.345,-0.376,-0.23,-3.8,-26.9,31.3,165.4,-76.0,-8.3,0.8452867802403589,9.771828914004766,1.3028176904583724,4.5
1.022,10.015,2.421,0.212,9.462,2.568,0.8109999999999999,0.5529999999999999,-0.147,0.198,-0.231,-0.27,-1.6,-28.6,31.2,172.2,-74.4,-5.7,1.129446729183893,10.268813581285736,0.6940948917384355,4.5
0.536,9.599,2.076,0.177,9.491,2.46,0.508,0.05,-0.34600000000000003,0.035,-0.508,-0.163,0.2,-27.8,31.4,176.7,-75.3,-4.0,0.6246119605686747,9.805812448342511,0.44019896256763236,4.5
0.48100000000000004,9.469,1.865,0.19899999999999998,9.488999999999999,2.467,0.22,-0.022000000000000002,-0.5710000000000001,-0.179,-0.32899999999999996,-0.141,2.3,-28.0,31.6,179.1,-75.4,-4.6,0.5608312365019275,9.643200672863113,0.25631251833677005,4.5
0.05,9.529,2.344,0.195,9.435,2.668,-0.145,0.095,-0.324,-0.212,-0.434,-0.136,3.2,-28.7,30.6,181.1,-74.7,-4.2,0.15905566815046632,9.783544294893455,0.7454121841551469,4.5
0.012,9.764,3.0980000000000003,0.198,9.371,2.884,-0.196,0.38299999999999995,0.193,-0.336,-0.525,-0.13,4.0,-28.3,30.4,183.0,-72.9,-3.9,0.16785777346115707,10.137396188735282,1.4623495753423783,4.5
-0.431,8.777000000000001,3.898,0.198,9.283999999999999,3.153,-0.628,-0.507,0.745,0.065,-0.026000000000000002,-0.193,6.1,-29.9,29.6,187.3,-71.5,-4.3,-0.2159478765575587,9.293758502516326,2.4485329100332285,4.5
-0.12,9.376,2.739,0.10800000000000001,9.325,3.034,-0.22699999999999998,0.051,-0.295,-0.07400000000000001,-0.564,-0.036000000000000004,6.8,-29.8,29.9,188.9,-72.0,-2.0,0.025139552600807802,9.69631655719273,1.1860481548424209,4.5
0.445,9.295,2.662,0.207,9.325,3.029,0.233,-0.037000000000000005,-0.386,-0.062,-0.304,-0.036000000000000004,6.9,-28.9,28.9,186.8,-72.0,-3.1,0.5850421682469377,9.599090489948892,1.0938379345888738,4.5
0.05,9.041,3.362,0.23399999999999999,9.311,3.07,-0.184,-0.27,0.29100000000000004,-0.099,-0.273,-0.002,8.2,-29.8,28.9,189.0,-71.8,-4.0,0.2299835007697716,9.464617103363711,1.8475269080824854,4.5
-0.062,9.378,3.225,0.196,9.302999999999999,3.095,-0.258,0.075,0.13,-0.039,-0.016,-0.047,8.6,-29.9,29.5,190.6,-71.6,-3.9,0.11221365741233286,9.775773328879051,1.6652377960721234,4.5
-0.19899999999999998,9.386000000000001,2.54,0.127,9.295,3.1239999999999997,-0.268,0.105,-0.526,0.032,0.28300000000000003,0.08900000000000001,8.8,-29.6,28.3,191.9,-71.3,-2.7,-0.06028164390151389,9.674157094904245,0.9976209834012029,4.5
-0.11699999999999999,9.182,3.536,0.188,9.221,3.3310000000000004,-0.305,-0.039,0.205,-0.287,0.059000000000000004,0.17300000000000001,9.0,-30.1,28.4,190.4,-71.2,-2.3,0.08865411384294626,9.630097910342252,2.0197682256438574,4.5
0.261,9.539,3.397,0.265,9.156,3.503,-0.059000000000000004,0.364,-0.048,-0.212,0.09,0.044000000000000004,8.2,-31.1,26.9,189.2,-69.0,-4.3,0.46807185943498797,9.954454928112035,1.8138320811450748,4.5
0.467,9.374,3.335,0.192,9.142000000000001,3.543,0.294,0.281,-0.258,-0.039,0.21899999999999997,-0.13,7.7,-32.1,27.1,189.4,-68.8,-3.9,0.6722025535765861,9.779200808424916,1.7684923735958213,4.5
0.22699999999999998,9.747,2.447,0.025,9.197000000000001,3.405,0.20199999999999999,0.551,-0.958,0.071,0.305,0.0,7.4,-30.8,27.2,191.4,-69.2,-1.4,0.3719351878702473,10.009956297154796,0.8401107933332255,4.5
0.19399999999999998,9.041,3.6439999999999997,0.11699999999999999,9.156,3.512,0.039,-0.155,0.187,0.151,0.046,0.11699999999999999,7.4,-31.4,27.4,189.7,-68.9,-1.5,0.41685840864160195,9.502671054584154,2.1404496946934417,4.5
0.369,9.251,4.288,0.24,9.193999999999999,3.404,0.10300000000000001,0.086,0.858,0.065,-0.47,0.011000000000000001,7.4,-31.5,28.8,187.9,-69.6,-3.7,0.6229536374661555,9.812570402001421,2.7257103425223534,4.5
0.536,10.082,2.8110000000000004,0.281,9.292,3.1239999999999997,0.27699999999999997,0.843,-0.45399999999999996,0.228,0.141,-0.066,8.3,-30.8,27.6,188.2,-70.7,-5.4,0.6883948073487118,10.398196817164871,1.1132639133276878,4.5
0.721,9.496,2.938,0.256,9.277000000000001,3.17,0.42200000000000004,0.262,-0.149,-0.049,-0.14800000000000002,-0.16,8.4,-30.1,28.1,188.8,-71.1,-4.6,0.8823644590284767,9.838273212916834,1.3249581689421328,4.5
0.213,9.144,3.292,0.175,9.272,3.19,0.038,-0.128,0.102,0.011000000000000001,-0.174,-0.106,9.2,-30.4,27.5,191.4,-71.0,-3.3,0.3958607580018635,9.552210314519442,1.7589603086660508,4.5
0.09300000000000001,8.945,3.072,0.13699999999999998,9.299,3.111,-0.068,-0.366,0.016,0.073,0.07,-0.017,10.1,-30.1,28.1,193.4,-71.4,-2.7,0.2595820433707626,9.322296642642964,1.5767880229527373,4.5
0.321,8.662,2.983,0.195,9.285,3.1489999999999996,0.087,-0.6629999999999999,-0.08199999999999999,-0.218,-0.18600000000000003,0.067,10.1,-29.6,27.7,193.3,-71.5,-3.0,0.48437977997844334,9.026232198618189,1.5244941867309072,4.5
1.032,9.267999999999999,2.454,0.36,9.255,3.2230000000000003,0.6859999999999999,-0.023,-0.774,-0.009000000000000001,-0.1,0.009000000000000001,9.2,-30.5,27.5,190.0,-70.7,-4.9,1.1683372429602386,9.532070188247571,0.870396468877223,4.5
0.773,9.484,3.182,0.45299999999999996,9.273,3.157,0.321,0.21,0.025,0.017,-0.068,-0.152,10.0,-29.6,27.5,190.3,-70.9,-7.7,0.9470665895517264,9.865166498742525,1.5653957413520185,4.5
0.45,9.244,3.505,0.391,9.277000000000001,3.156,0.059000000000000004,-0.032,0.349,-0.233,-0.042,-0.305,11.3,-30.4,27.8,190.9,-71.3,-7.6,0.6422844516675262,9.683275335125307,1.9392551320803628,4.5
-0.225,9.505,3.1889999999999996,0.09,9.283999999999999,3.157,-0.315,0.21600000000000003,0.049,0.027000000000000003,0.147,-0.258,11.4,-30.0,27.4,193.8,-71.0,-4.5,-0.049033315624233104,9.896186286121557,1.6212537507554226,4.5
-0.141,9.249,3.2710000000000004,-0.085,9.266,3.21,-0.013000000000000001,0.027999999999999997,-0.064,-0.051,0.158,-0.113,11.2,-30.0,27.2,197.6,-71.0,0.9,0.042383453803851084,9.655449390232999,1.7417875058378747,4.5
-0.20800000000000002,9.17,3.33,-0.156,9.235,3.295,-0.069,-0.12,0.035,-0.03,0.02,-0.022000000000000002,11.6,-29.9,28.0,200.3,-70.5,2.6,-0.016257966112297434,9.58658981013055,1.8215640232610568,4.5
0.163,8.988,2.911,-0.151,9.245,3.2689999999999997,0.304,-0.235,-0.324,0.006999999999999999,-0.174,-0.013999999999999999,11.4,-29.9,27.3,199.4,-70.5,2.8,0.3287313068859893,9.336666090817602,1.4153572116076514,4.5
-0.077,9.295,3.615,-0.10800000000000001,9.243,3.2739999999999996,0.19699999999999998,0.061,0.16699999999999998,-0.10300000000000001,-0.096,-0.126,12.3,-29.4,27.1,200.5,-70.6,2.0,0.12958198642373359,9.754720927245131,2.073597632222895,4.5
-0.5579999999999999,8.789,4.001,-0.255,9.262,3.213,-0.302,-0.47200000000000003,0.7879999999999999,0.284,-0.015,-0.179,13.1,-29.6,26.7,204.3,-70.5,3.6,-0.3328745496135115,9.322394629293003,2.558913619086933,4.5
-1.575,9.304,4.077,-0.504,9.288,3.1060000000000003,-1.062,-0.017,0.9590000000000001,-0.05,0.23600000000000002,-0.149,14.3,-28.4,27.7,207.2,-71.5,7.2,-1.3517805941484276,9.852843394638114,2.6002185035146224,4.5
-0.7040000000000001,9.017000000000001,3.182,-0.526,9.25,3.213,-0.152,-0.102,-0.122,-0.252,-0.138,0.091,13.8,-29.1,27.7,209.1,-70.8,9.7,-0.5245484145961583,9.416767740257116,1.7252139829011317,4.5
-0.883,9.299,3.2489999999999997,-0.546,9.271,3.15,-0.33799999999999997,0.027999999999999997,0.099,0.1,0.133,0.040999999999999995,13.3,-28.7,27.3,207.5,-70.8,9.5,-0.7031326609321745,9.707984858860849,1.7514923469027532,4.5
-0.47200000000000003,9.193999999999999,4.631,-0.38799999999999996,9.167,3.4610000000000003,-0.084,0.027000000000000003,1.169,-0.534,-0.451,0.14,13.3,-29.2,27.0,205.6,-69.5,6.9,-0.19156962983760922,9.817546738063264,3.1269247069392705,4.5
-0.41700000000000004,9.218,3.929,-0.255,9.129,3.573,-0.162,0.08900000000000001,0.35600000000000004,0.282,0.377,0.145,13.6,-30.2,25.7,205.3,-68.4,4.0,-0.17133325301564598,9.727519572879824,2.4348432959126947,4.5
-0.457,9.62,3.383,-0.231,9.193999999999999,3.405,-0.222,0.4,0.021,0.262,0.16899999999999998,0.096,13.0,-30.1,26.9,203.0,-69.2,4.0,-0.25526498389338936,10.040322953108427,1.823374011354212,4.5
-0.01,9.168,3.175,-0.212,9.292,3.127,0.191,-0.08900000000000001,-0.153,0.361,0.127,0.018000000000000002,12.5,-29.4,27.6,202.2,-71.0,3.7,0.1632091696102333,9.559679516936763,1.6488903239496573,4.5
-0.321,8.974,3.778,-0.23399999999999999,9.342,2.9739999999999998,-0.094,-0.22699999999999998,0.6459999999999999,0.053,-0.449,-0.153,11.0,-28.4,28.5,200.4,-72.2,4.5,-0.12455441697841096,9.470127483422468,2.2825802603495915,4.5
-0.4,9.328,3.263,-0.171,9.431000000000001,2.6830000000000003,-0.248,-0.191,0.657,0.415,0.16699999999999998,0.133,11.6,-29.5,29.1,201.7,-73.1,4.1,-0.2468201922204836,9.739075894132997,1.705354368168035,4.5
0.22699999999999998,9.345,1.432,0.0,9.531,2.309,0.125,-0.062,-0.992,0.402,0.125,0.38799999999999996,12.0,-27.1,29.9,200.7,-75.3,2.6,0.28450920148454684,9.45140853461658,-0.14529014435779497,4.5
0.359,9.994,0.539,0.278,9.564,2.151,0.105,0.308,-1.756,-0.237,0.083,0.302,11.5,-27.1,30.8,194.3,-77.1,-3.1,0.37897745255502513,9.942342126041284,-1.1426491759064903,4.5
0.6779999999999999,9.105,2.9810000000000003,0.534,9.506,2.3480000000000003,0.14300000000000002,-0.413,0.619,-0.151,-0.52,-0.006,10.5,-27.7,30.5,186.2,-76.1,-12.2,0.7995589952299859,9.467287167134035,1.4065024380234972,4.5
-0.321,9.862,2.67,0.40399999999999997,9.574,2.085,-0.725,0.28800000000000003,0.584,0.519,0.36200000000000004,-0.163,10.6,-27.1,29.8,187.3,-76.7,-12.2,-0.22364727707173276,10.170364593082605,1.002322771980228,4.5
-0.522,9.496,2.437,0.248,9.652000000000001,1.715,-0.691,-0.183,0.639,0.5539999999999999,0.131,-0.023,11.2,-26.4,31.7,189.3,-79.1,-9.0,-0.44883178483790764,9.7726096323832,0.8246938837958677,4.5
0.5770000000000001,9.522,2.411,0.163,9.7,1.433,0.5670000000000001,-0.348,0.892,0.21600000000000003,-0.08900000000000001,-0.071,9.6,-24.3,34.0,188.8,-80.6,-7.6,0.6371137635788402,9.78953810040558,0.7572079192440704,4.5
-0.802,9.831,3.517,-0.040999999999999995,9.699,1.45,-0.711,0.039,2.108,-0.113,0.21,0.135,9.8,-24.4,33.2,196.9,-81.8,1.5,-0.7127469688769733,10.286225777771124,1.8293728452870142,4.5
1.3019999999999998,9.606,-0.14400000000000002,0.10099999999999999,9.701,1.433,1.2229999999999999,-0.016,-1.6059999999999999,0.115,0.24600000000000002,0.17800000000000002,8.9,-24.2,33.4,191.0,-81.5,-3.2,1.2979916539137135,9.438895146854156,-1.79266619119774,4.5
0.062,10.2,1.128,0.147,9.705,1.3980000000000001,-0.085,0.494,-0.271,-0.267,0.078,0.11,8.6,-23.8,34.4,188.1,-81.8,-6.0,0.08950169104651018,10.243866782275102,-0.6094348154647256,4.5
0.982,9.596,1.472,0.349,9.67,1.5930000000000002,0.633,-0.07400000000000001,-0.121,-0.047,-0.17300000000000001,0.113,8.2,-24.5,33.2,182.3,-80.7,-10.7,1.0225413760054713,9.70223127636219,-0.18825884929043935,4.5
0.84,9.562999999999999,1.281,0.48100000000000004,9.661,1.611,0.39299999999999996,-0.07,-0.368,-0.215,-0.20800000000000002,0.083,8.9,-24.9,33.7,178.9,-80.4,-16.1,0.8756814504295163,9.638304110145295,-0.36579485744053786,4.5
0.833,9.603,1.494,0.534,9.645,1.694,0.366,-0.017,-0.28300000000000003,-0.08800000000000001,-0.07400000000000001,-0.085,7.6,-25.9,33.3,176.6,-79.6,-17.5,0.8768009513238849,9.713333486012012,-0.16095552576803818,4.5
0.579,9.632,1.4409999999999998,0.491,9.652000000000001,1.662,-0.024,0.171,-0.321,-0.14,-0.01,-0.034,9.2,-25.5,32.0,180.3,-79.8,-17.1,0.6205502031240684,9.734338017234556,-0.2114871429299956,4.5
0.852,9.292,1.729,0.423,9.619,1.864,0.133,-0.36200000000000004,0.308,-0.34299999999999997,0.268,-0.19,9.7,-26.2,32.8,182.2,-79.1,-14.3,0.9077887151936036,9.445485655684097,0.12381186063179483,4.5
-0.127,10.001,2.528,0.275,9.617,1.901,-0.349,0.355,0.6629999999999999,0.039,0.086,-0.07200000000000001,8.5,-26.1,31.4,184.8,-78.7,-9.0,-0.04306967930793161,10.283253452715593,0.824474032300065,4.5
0.43799999999999994,9.807,1.693,0.278,9.613,1.921,0.14800000000000002,0.264,-0.272,-0.271,-0.114,0.13699999999999998,8.2,-26.2,32.9,185.9,-78.8,-7.0,0.494505755688498,9.949399293301044,0.016117073296728845,4.5
-0.132,9.759,2.239,0.33399999999999996,9.578,2.0780000000000003,-0.47600000000000003,0.179,0.19899999999999998,-0.011000000000000001,0.209,0.10300000000000001,7.4,-26.7,31.4,183.3,-77.6,-8.9,-0.05072703979057562,9.996058499215648,0.5872539890819746,4.5
0.43799999999999994,9.292,2.31,0.451,9.549,2.189,-0.013000000000000001,-0.256,0.122,-0.113,-0.08199999999999999,0.121,7.9,-27.4,31.3,183.0,-77.0,-11.0,0.525913090958802,9.543404243214775,0.7183723765209515,4.5
0.271,8.995,2.03,0.461,9.521,2.305,-0.263,-0.516,-0.265,-0.168,0.106,-0.098,6.8,-27.9,31.1,182.0,-76.4,-12.2,0.3524253124798763,9.204800201982874,0.5018123560649783,4.5
0.098,9.73,2.437,0.324,9.487,2.46,-0.17800000000000002,0.255,-0.03,-0.175,0.016,-0.048,6.6,-28.4,31.2,183.7,-75.5,-8.3,0.20251042447651374,9.997535254010932,0.7935687574412684,4.5
0.024,9.699,2.6910000000000003,0.20199999999999999,9.47,2.539,-0.149,0.315,0.157,-0.11,0.188,-0.098,7.1,-28.0,30.9,186.3,-75.0,-5.2,0.14318619650682307,10.008964774909058,1.0548838077056475,4.5
-0.634,9.857000000000001,2.588,0.002,9.476,2.523,-0.636,0.381,0.065,-0.146,0.23800000000000002,-0.013000000000000001,7.2,-28.7,30.6,190.1,-75.2,-0.6,-0.5194605044550907,10.152753581227737,0.9549369105750685,4.5
-0.139,9.728,2.217,0.031,9.482999999999999,2.499,-0.184,0.243,-0.27,0.41700000000000004,0.1,0.11599999999999999,6.6,-28.6,30.2,190.5,-74.8,-0.4,-0.04220224243141363,9.960975243005336,0.5878649325895664,4.5
0.551,9.673,1.609,0.09699999999999999,9.541,2.265,0.133,0.07,-0.05,0.27,-0.397,0.018000000000000002,6.7,-28.4,31.1,189.3,-76.4,-1.8,0.6141594955295565,9.802074998687944,-0.03930437822470578,4.5
0.8240000000000001,9.457,1.611,0.12300000000000001,9.579,2.096,0.6940000000000001,-0.11699999999999999,-0.494,0.027000000000000003,-0.537,-0.18899999999999997,7.6,-26.8,32.1,189.4,-77.5,-3.5,0.882369348303393,9.588029814366962,-0.01595656557328784,4.5
0.263,9.271,3.35,0.087,9.567,2.153,0.38,-0.366,1.058,-0.135,-0.966,-0.133,9.7,-26.9,31.1,193.8,-77.5,-1.9,0.388667516236508,9.69679595757805,1.7504844240725357,4.5
0.436,9.814,2.737,0.033,9.571,2.137,0.369,0.284,0.581,0.096,-0.536,-0.301,11.8,-26.5,30.5,196.9,-77.3,-1.8,0.5377569151501135,10.129452701493284,1.0492218394689719,4.5
-0.196,9.781,2.78,-0.136,9.578,2.103,0.006999999999999999,0.368,0.584,-0.036000000000000004,-0.42700000000000005,-0.259,14.9,-26.0,29.3,206.5,-77.7,3.0,-0.0938529722752777,10.108102716078307,1.1190299820851168,4.5
0.113,9.881,1.5590000000000002,-0.22699999999999998,9.589,2.04,0.32899999999999996,0.321,-0.467,0.043,-0.8140000000000001,-0.23,17.0,-24.9,29.8,211.6,-77.9,6.1,0.16842443278053504,10.00180571918394,-0.1136950576850011,4.5
0.747,8.142999999999999,2.049,-0.147,9.548,2.234,1.1,-1.354,-0.336,0.094,-0.574,-0.348,19.7,-25.9,26.7,215.5,-77.0,4.1,0.8263038961173271,8.364982057606762,0.6396530678252381,4.5
-1.252,9.939,2.461,-0.337,9.591000000000001,2.017,-0.889,0.34299999999999997,0.434,0.11900000000000001,-0.526,-0.172,23.4,-24.6,25.7,224.7,-77.8,8.8,-1.1646068520806507,10.217199498031848,0.8125707953800276,4.5
0.062,9.955,2.303,-0.23600000000000002,9.571,2.123,0.426,0.341,0.159,0.094,-0.649,-0.141,23.6,-24.5,23.5,225.9,-77.7,7.9,0.14727179681915534,10.198703955075889,0.6119041220494359,4.5
-0.642,10.293,2.205,-0.261,9.621,1.879,-0.402,0.662,0.319,0.179,-0.531,-0.006999999999999999,26.2,-23.6,23.0,230.9,-78.6,8.0,-0.5693553327887702,10.520069343327174,0.47330066196095566,4.5
0.544,9.998,1.511,-0.13,9.642999999999999,1.7790000000000001,0.7290000000000001,0.324,-0.278,0.065,-0.527,0.062,27.0,-23.7,21.5,230.8,-79.4,5.2,0.5906459317070683,10.106888959686705,-0.20246960246144585,4.5
-0.006999999999999999,9.122,1.5419999999999998,0.003,9.658,1.7009999999999998,-0.01,-0.495,-0.114,0.086,-0.348,0.084,28.3,-22.8,20.3,231.2,-79.8,1.6,0.03877535372226176,9.251328510437204,-0.010689430081334272,4.5
0.326,8.979,1.235,0.126,9.661,1.68,0.307,-0.622,-0.583,0.053,-0.319,0.065,28.0,-23.8,19.0,227.5,-80.1,-3.5,0.3620667884626923,9.057221863698546,-0.29930210896909326,4.5
0.733,9.658999999999999,1.051,0.128,9.642999999999999,1.781,0.605,0.016,-0.73,-0.138,-0.284,-0.247,28.9,-23.2,18.4,226.2,-79.8,-4.9,0.7653102703922611,9.694674628303995,-0.6047768525256831,4.5
-0.225,9.967,1.662,-0.129,9.641,1.7890000000000001,-0.08199999999999999,0.312,-0.134,0.01,0.045,-0.337,29.3,-23.5,18.1,234.9,-79.5,2.2,-0.17300454948024746,10.105613491980112,-0.02456372465030321,4.5
-0.503,10.111,1.743,-0.369,9.642999999999999,1.7469999999999999,-0.21100000000000002,0.631,-0.002,-0.009000000000000001,0.02,-0.078,29.0,-22.0,17.7,243.3,-79.5,9.8,-0.4496287690771066,10.262538240742046,0.03901060529338074,4.5
0.08900000000000001,9.735,1.729,-0.34299999999999997,9.652999999999999,1.695,0.43200000000000005,0.08199999999999999,0.034,0.21899999999999997,-0.028999999999999998,0.109,29.8,-22.4,18.4,245.4,-79.7,12.0,0.14010319802379562,9.886517276090848,0.06880583885623959,4.5
0.34700000000000003,9.793,1.161,-0.21100000000000002,9.675,1.587,0.42200000000000004,0.10800000000000001,-0.12,0.12,-0.213,0.14800000000000002,29.9,-22.1,17.9,242.9,-80.4,8.9,0.37902061486065164,9.847139973613508,-0.511230587478499,4.5
0.735,9.455,1.429,0.114,9.657,1.705,0.779,-0.21600000000000003,-0.251,-0.294,-0.748,0.174,29.7,-22.5,17.8,232.8,-80.3,-1.7,0.7771923210339656,9.556958767043147,-0.19950494019692577,4.5
0.737,9.28,1.724,0.312,9.644,1.754,0.456,-0.385,-0.008,0.098,-0.299,0.065,29.3,-23.6,16.3,227.1,-79.5,-8.9,0.7894234041014082,9.433752258362684,0.12195907876763878,4.5
0.44299999999999995,9.565,1.949,0.484,9.631,1.785,-0.132,0.006,0.092,-0.419,-0.555,0.16699999999999998,29.5,-24.6,15.5,224.9,-79.7,-13.7,0.5034946319441456,9.753792825294475,0.30674692636997425,4.5
1.212,9.524,2.655,0.6609999999999999,9.519,2.263,0.5429999999999999,0.017,0.414,-0.395,-0.419,-0.195,29.5,-24.8,12.2,224.0,-76.5,-16.8,1.3158915527456208,9.823675203162718,0.9941729850376135,4.5
-0.079,9.685,3.053,0.456,9.481,2.463,-0.562,0.182,0.575,-0.021,-0.252,-0.32299999999999995,30.7,-23.8,11.5,230.6,-75.3,-12.4,0.05227333501357852,10.055692127947008,1.4165445020863745,4.5
0.132,9.587,2.124,0.24100000000000002,9.484,2.4819999999999998,0.027000000000000003,0.11199999999999999,-0.624,-0.14800000000000002,-0.20800000000000002,-0.37799999999999995,32.0,-23.3,10.8,234.8,-75.3,-8.5,0.22385714190501999,9.80466748313255,0.5076933377752237,4.5
0.146,9.67,2.3890000000000002,-0.042,9.455,2.6,0.152,-0.008,-0.065,-0.017,-0.207,-0.366,33.6,-21.1,10.9,244.8,-74.6,0.3,0.2542219281152218,9.929588430109614,0.7590664133648948,4.5
-0.5529999999999999,9.785,2.7939999999999996,-0.28,9.451,2.6010000000000004,-0.278,0.315,0.258,0.243,-0.266,-0.23399999999999999,34.5,-20.2,10.4,251.0,-74.4,5.2,-0.4256373292767509,10.114616586997885,1.171253244159203,4.5
-0.591,9.405,2.8160000000000003,-0.32,9.479,2.492,-0.272,-0.075,0.324,0.06,-0.564,-0.028999999999999998,35.6,-19.5,9.8,255.2,-75.1,7.7,-0.4680016596360238,9.744133853748263,1.2513959752272379,4.5
-0.287,9.742,2.66,-0.17800000000000002,9.496,2.44,-0.066,0.251,0.203,0.067,-0.629,0.084,36.8,-19.0,8.3,256.5,-75.4,5.6,-0.17349513025057917,10.048968022489868,1.0259990851630654,4.5
0.22,9.503,2.967,0.109,9.488,2.476,0.109,0.006999999999999999,0.469,-0.087,-0.9359999999999999,0.113,36.5,-18.3,6.4,254.9,-75.5,0.5,0.3479717436884473,9.860060518703587,1.3478205492932478,4.5
1.034,9.443,2.095,0.353,9.475,2.504,0.5760000000000001,0.085,-0.409,-0.317,-0.807,0.027999999999999997,37.1,-17.8,2.0,251.9,-75.2,-7.1,1.1245414839024785,9.65128143726588,0.465406348978439,4.5
0.982,8.794,3.103,0.48,9.382,2.812,0.21600000000000003,-0.545,0.384,-0.27899999999999997,-0.695,-0.21600000000000003,37.5,-17.2,-2.2,256.5,-73.4,-9.7,1.1330475698875868,9.173742649780998,1.5767111339623854,4.5
0.57,8.698,3.2489999999999997,0.38799999999999996,9.302999999999999,3.0789999999999997,0.182,-0.604,0.17,-0.28600000000000003,-0.755,-0.252,37.8,-16.1,-5.8,264.2,-71.8,-7.3,0.7436902092757505,9.10310873835079,1.7653444905708582,4.5
0.555,9.113,3.22,0.384,9.262,3.199,0.2,-0.209,0.004,-0.19399999999999998,-0.643,-0.10800000000000001,38.1,-14.9,-7.7,266.4,-71.0,-6.6,0.7338243750223088,9.506655301071126,1.675768711141064,4.5
0.354,9.318999999999999,2.6889999999999996,0.45899999999999996,9.235,3.267,-0.03,0.07200000000000001,-0.5710000000000001,-0.203,-0.341,-0.003,38.4,-14.6,-10.6,270.1,-70.5,-7.4,0.5066682044707354,9.62581402108333,1.1343675604026877,4.5
1.13,9.297,3.431,0.568,9.151,3.478,0.478,0.193,-0.16,-0.436,-0.359,-0.042,38.3,-13.6,-12.2,270.9,-69.3,-9.0,1.3360613862072093,9.712422220481029,1.834847291572907,4.5
1.444,9.357000000000001,3.8280000000000003,0.569,9.067,3.693,0.93,0.35,-0.001,-0.087,-0.057,-0.135,36.7,-13.4,-13.9,273.6,-67.7,-9.1,1.6875646001829039,9.82742409399191,2.205908066315733,4.5
1.1420000000000001,9.029,4.298,0.585,9.052,3.727,0.59,-0.047,0.597,0.027999999999999997,-0.318,-0.081,37.7,-12.5,-14.6,274.9,-67.4,-8.6,1.418965891766365,9.579651169515639,2.741646999232643,4.5
0.675,8.897,3.9189999999999996,0.68,9.074,3.656,-0.261,-0.237,0.951,0.304,-0.21100000000000002,0.023,37.9,-12.7,-15.1,273.3,-67.7,-10.5,0.9235251395550789,9.395677838348423,2.4164300682159316,4.5
0.34700000000000003,9.249,3.972,0.701,9.097999999999999,3.592,-0.34,0.11800000000000001,0.43700000000000006,-0.32,-0.22699999999999998,-0.001,37.1,-14.5,-15.5,272.7,-68.4,-11.1,0.5951688592243534,9.75603700994253,2.4303723767441876,4.5
0.405,8.799,4.319,0.782,9.013,3.784,-0.363,-0.10400000000000001,0.545,0.039,0.155,0.077,35.4,-14.0,-17.2,275.1,-66.9,-11.6,0.6891507195158273,9.361303454682117,2.8515357117082516,4.5
0.804,9.299,3.472,0.785,9.057,3.677,-0.040999999999999995,0.221,-0.15,0.231,0.024,0.102,35.5,-14.0,-15.6,272.1,-67.1,-11.6,1.0250103251074125,9.720372202794573,1.9069134937279537,4.5
0.96,9.014,3.2230000000000003,0.825,9.073,3.628,0.353,-0.152,-0.332,0.23,0.223,-0.10400000000000001,35.5,-14.9,-15.8,270.5,-67.6,-12.9,1.1620219398326246,9.398864761155032,1.6948661342022853,4.5
-0.086,9.826,2.967,0.54,9.165,3.446,-0.512,0.575,-0.623,0.16399999999999998,0.354,-0.285,36.2,-14.8,-14.8,272.8,-68.6,-10.9,0.09249539462916134,10.173106040945557,1.3638618264506812,4.5
0.192,9.297,3.278,0.368,9.193999999999999,3.392,-0.315,0.046,0.35,0.223,0.062,-0.028999999999999998,36.5,-14.3,-14.2,276.6,-69.4,-6.5,0.385613118897867,9.698580608466354,1.7335494523128736,4.5
0.268,8.873,2.7489999999999997,0.332,9.263,3.2030000000000003,-0.11900000000000001,-0.445,-0.215,0.228,0.012,0.026000000000000002,37.0,-15.0,-13.6,277.0,-70.7,-5.7,0.42117843640926167,9.19669033867626,1.265878959143639,4.5
0.45,9.455,2.339,0.298,9.331,3.0010000000000003,0.157,0.095,-0.64,0.12300000000000001,0.091,-0.061,36.6,-16.1,-12.7,275.9,-71.4,-6.1,0.5718375003676348,9.704793054839532,0.7486251638247619,4.5
0.831,9.311,2.5380000000000003,0.287,9.365,2.897,0.544,-0.053,-0.359,-0.11900000000000001,-0.214,-0.02,37.2,-15.7,-12.4,275.0,-72.8,-5.4,0.9582102026054364,9.592530301460581,0.9444160223034281,4.5
0.718,9.972000000000001,1.9269999999999998,0.314,9.384,2.8289999999999997,0.019,0.679,-0.945,-0.204,-0.583,0.011000000000000001,36.8,-15.8,-11.3,273.4,-73.1,-5.7,0.8122326743328068,10.146589308816866,0.23799260692185698,4.5
0.158,9.222999999999999,3.491,0.364,9.395,2.7880000000000003,-0.182,-0.14300000000000002,0.662,0.19399999999999998,-0.376,-0.064,35.7,-14.9,-13.0,275.5,-72.8,-7.1,0.32761731749235523,9.667227914038692,1.9269523479604307,4.5
-0.591,9.606,3.362,0.355,9.443999999999999,2.62,-0.863,0.122,0.5429999999999999,0.06,-0.125,0.079,36.3,-15.9,-14.3,276.5,-73.9,-7.7,-0.4366994380727667,10.031309729701306,1.7634283959341368,4.5
1.0390000000000001,9.677999999999999,2.8280000000000003,0.46,9.387,2.801,0.579,0.29100000000000004,0.026000000000000002,-0.22,-0.068,-0.06,34.9,-16.6,-15.4,276.0,-73.7,-9.5,1.175955196761683,10.00082437331737,1.1582012904803791,4.5
0.852,9.424,3.06,0.43,9.347000000000001,2.935,0.305,0.129,0.084,-0.133,-0.149,-0.114,35.3,-15.2,-15.3,277.2,-72.5,-8.5,1.0075636896597422,9.788123431111536,1.4417819213059164,4.5
0.6609999999999999,9.22,2.677,0.395,9.335,2.9789999999999996,0.223,-0.091,-0.389,0.023,-0.161,-0.059000000000000004,35.6,-15.2,-16.0,279.0,-72.1,-7.5,0.7992303347187566,9.52596610498009,1.1085353575036954,4.5
0.43799999999999994,9.304,2.366,0.409,9.356,2.91,-0.012,-0.081,-0.446,0.204,0.11699999999999999,0.032,34.6,-14.9,-15.3,279.3,-72.3,-7.8,0.5575505655980489,9.560757387601361,0.7970392350614244,4.5
0.036000000000000004,8.964,2.0380000000000003,0.29,9.452,2.597,-0.209,-0.54,-0.5,0.545,0.61,-0.057999999999999996,35.4,-15.1,-15.4,279.4,-73.9,-7.0,0.1283062355878145,9.176371872648888,0.5345771831715196,4.5
0.28300000000000003,9.666,1.9609999999999999,0.198,9.51,2.385,0.066,0.156,-0.41,-0.008,0.09699999999999999,-0.016,36.2,-15.8,-12.4,278.5,-75.8,-5.1,0.36436010439093486,9.854927559402732,0.32374451849064734,4.5
-0.139,9.635,1.8,0.121,9.522,2.344,-0.26899999999999996,-0.021,-0.402,0.013000000000000001,0.32899999999999996,-0.017,37.0,-15.8,-12.1,278.3,-76.0,-3.9,-0.06526527219114092,9.800709115174598,0.1854380866472094,4.5
-0.44799999999999995,9.879,2.239,-0.025,9.539,2.275,-0.413,0.342,-0.015,0.09699999999999999,0.621,0.011000000000000001,37.9,-15.1,-10.6,280.6,-76.4,-0.1,-0.35876793891931047,10.116102680725648,0.5867010473989003,4.5
-0.536,9.524,2.267,-0.18899999999999997,9.57,2.133,-0.34700000000000003,-0.045,0.134,0.498,0.63,0.126,38.3,-15.9,-7.4,279.2,-77.0,4.5,-0.4512524862007051,9.771406492153568,0.6701845706943625,4.5
-0.20800000000000002,9.62,2.265,-0.218,9.561,2.169,-0.013999999999999999,0.042,0.11699999999999999,-0.293,0.42200000000000004,0.10099999999999999,38.2,-15.4,-4.6,278.0,-77.2,5.7,-0.12212714419524899,9.863620740251424,0.6418409874202937,4.5
-1.7069999999999999,9.863999999999999,4.0680000000000005,-0.285,9.488999999999999,2.46,-1.008,0.258,1.042,-0.078,0.552,0.075,38.0,-15.8,-3.9,275.5,-76.1,5.6,-1.5308204761254087,10.411137831708682,2.4547437175883373,4.5
-0.175,9.256,2.253,-0.256,9.482999999999999,2.484,0.105,-0.20800000000000002,-0.28600000000000003,-0.14300000000000002,0.10400000000000001,0.18,39.1,-15.8,-2.3,273.3,-75.4,6.6,-0.07718960320282298,9.501606185968543,0.7026319462718158,4.5
0.08900000000000001,9.4,1.6740000000000002,-0.125,9.486,2.485,0.214,-0.07400000000000001,-0.818,-0.016,0.174,0.153,38.5,-17.0,-1.7,268.8,-75.1,4.1,0.16149735292303466,9.54645432737394,0.096568008999949,4.5
-0.07200000000000001,9.33,2.1,-0.044000000000000004,9.487,2.485,-0.035,-0.192,-0.433,-0.124,0.16,0.11699999999999999,38.3,-16.9,-1.4,266.3,-75.4,1.4,0.0191192022485918,9.54871292013122,0.5346026795896996,4.5
0.07200000000000001,9.417,2.3080000000000003,0.004,9.455,2.6039999999999996,0.061,-0.038,-0.305,-0.134,0.175,0.046,38.4,-17.5,-0.7,263.2,-74.8,0.0,0.17678443694838586,9.667282457174414,0.7241092155611921,4.5
0.069,9.603,2.234,-0.02,9.427,2.702,-0.033,0.18600000000000003,-0.358,-0.076,0.145,0.043,38.5,-16.8,-0.2,263.4,-74.1,0.2,0.17423703847081062,9.838281552799119,0.6252867680332588,4.5
0.395,9.541,2.6430000000000002,0.013999999999999999,9.38,2.861,0.345,0.17800000000000002,-0.18899999999999997,-0.231,-0.096,0.066,38.6,-16.3,0.0,263.3,-73.5,0.4,0.5264280942577155,9.840438528385455,1.0299504991227864,4.5
0.6779999999999999,9.345,4.056,0.162,9.246,3.264,0.515,0.099,0.792,-0.278,-0.247,-0.139,39.0,-16.9,-1.0,262.2,-72.1,-1.5,0.9078356515316481,9.868018737010878,2.4572109465429244,4.5
-0.44299999999999995,10.078,3.417,0.068,9.289,3.1439999999999997,-0.5589999999999999,0.851,0.541,0.16399999999999998,-0.302,-0.055,39.4,-16.1,-1.7,263.8,-71.0,-1.4,-0.25492565915078813,10.500489029446367,1.7643596716041323,4.5
0.294,9.024,3.2060000000000004,0.179,9.296,3.1189999999999998,0.008,-0.126,0.25,0.08800000000000001,-0.341,-0.003,39.5,-15.7,-2.8,264.8,-71.5,-2.1,0.46800282588139347,9.420017714981135,1.6857305847639548,4.5
0.01,9.481,3.929,0.11800000000000001,9.333,3.009,-0.207,0.19399999999999998,0.941,-0.10300000000000001,-0.261,-0.055999999999999994,39.8,-15.8,-3.1,264.9,-72.2,-2.3,0.21623059092498337,9.99170609757649,2.33357142406248,4.5
-0.129,9.16,3.778,0.13,9.345,2.969,-0.19899999999999998,-0.027000000000000003,0.6940000000000001,0.172,-0.08,0.027999999999999997,40.6,-14.1,-4.0,267.0,-72.2,-2.5,0.06685716047768639,9.652161895159216,2.2420584001602952,4.5
1.104,9.292,1.53,0.20600000000000002,9.435,2.667,0.745,-0.162,-1.09,0.526,0.034,-0.002,40.1,-14.8,-3.5,264.3,-73.5,-3.9,1.17399684074188,9.408417752915415,-0.06623295670680629,4.5
0.06,9.484,1.791,0.14400000000000002,9.53,2.307,0.054000000000000006,-0.016,-0.873,-0.162,0.059000000000000004,-0.019,39.8,-15.1,-2.7,265.4,-76.2,-3.7,0.1320460754588977,9.648996693351997,0.19225931872899027,4.5
0.5670000000000001,9.086,3.5789999999999997,0.23600000000000002,9.448,2.615,0.264,-0.374,1.031,-0.185,-0.29100000000000004,0.065,39.8,-14.2,-3.4,264.7,-75.1,-4.0,0.7296997737883042,9.545391662483805,2.0097667152975665,4.5
0.809,9.163,2.792,0.22699999999999998,9.456,2.59,0.585,-0.31,0.161,0.215,-0.043,-0.221,40.7,-14.6,-3.5,263.5,-74.4,-5.5,0.934340303742775,9.490717227226263,1.20979697041797,4.5
0.36200000000000004,10.008,2.009,0.057,9.517000000000001,2.365,0.33799999999999997,0.40700000000000003,-0.326,0.11,-0.106,-0.185,40.3,-13.4,-3.0,267.6,-75.8,-2.1,0.44459371330239333,10.199671528608885,0.31020338260130975,4.5
0.271,9.845,2.497,0.044000000000000004,9.531,2.307,0.258,0.285,0.042,-0.040999999999999995,-0.251,0.049,41.1,-12.7,-4.0,272.0,-76.4,-0.6,0.3712942987444696,10.120416116765144,0.8196298965021835,4.5
0.8809999999999999,9.505,2.392,0.26,9.545,2.2359999999999998,0.621,-0.039,0.156,0.049,-0.294,0.157,40.7,-14.2,-4.9,267.0,-76.7,-5.4,0.9736546967156344,9.764054567192673,0.7470508285568538,4.5
0.91,9.651,1.705,0.413,9.547,2.204,0.512,0.04,-0.42100000000000004,0.10099999999999999,-0.19899999999999998,-0.026000000000000002,40.4,-14.5,-6.6,265.0,-76.7,-10.1,0.9748969985051991,9.794104430207991,0.04494721888800668,4.5
-0.141,9.824,2.117,0.34299999999999997,9.57,2.116,-0.484,0.254,0.001,0.094,-0.38799999999999996,-0.14800000000000002,40.9,-14.2,-5.9,264.6,-77.2,-9.5,-0.06273831244451815,10.039863594123107,0.4579835319671359,4.5
0.34,9.936,1.607,0.25,9.61,1.936,0.09699999999999999,0.764,-0.8759999999999999,-0.152,-0.06,-0.061,40.0,-14.6,-7.2,267.9,-78.4,-7.8,0.3940954603962231,10.062770521254773,-0.08650551809586604,4.5
-0.048,9.199,2.502,0.198,9.562000000000001,2.169,-0.14,-0.428,0.252,-0.045,-0.054000000000000006,-0.14400000000000002,41.0,-13.7,-9.2,272.2,-77.4,-5.8,0.046728000545210056,9.486816236070581,0.9391715482235803,4.5
-0.39299999999999996,9.697000000000001,1.5419999999999998,0.08900000000000001,9.597000000000001,2.017,-0.39799999999999996,0.052000000000000005,-0.508,0.135,0.035,-0.012,40.7,-13.7,-9.4,275.2,-77.7,-3.4,-0.3384842213593768,9.82051278519233,-0.0835408149634167,4.5
-0.005,9.508,1.757,0.071,9.587,2.062,-0.126,0.003,-0.314,-0.133,-0.065,-0.005,40.3,-13.1,-9.4,274.7,-78.0,-2.3,0.05822174290797622,9.667669956064975,0.14800624733899848,4.5
0.045,9.539,2.526,-0.012,9.572000000000001,2.131,0.18899999999999997,0.077,0.249,0.079,0.061,-0.22899999999999998,40.7,-13.1,-9.7,279.0,-77.4,-0.6,0.13889669339034774,9.825664469530615,0.9012477133223957,4.5
0.19899999999999998,9.749,1.381,-0.099,9.59,2.046,0.243,0.264,-0.679,-0.099,-0.313,-0.033,40.4,-13.5,-9.3,281.7,-77.9,3.1,0.24817740743303102,9.841498653935938,-0.2703242849189873,4.5
0.098,9.627,1.736,-0.075,9.584,2.079,0.149,0.01,-0.28800000000000003,0.033,-0.20800000000000002,-0.049,39.4,-13.4,-11.3,283.4,-77.7,2.1,0.1609131432882554,9.78088219144533,0.10430492502613631,4.5
0.006999999999999999,9.577,1.851,-0.03,9.581,2.09,0.026000000000000002,-0.006999999999999999,-0.177,0.008,-0.21899999999999997,0.033,39.8,-12.8,-12.1,283.0,-77.7,1.7,0.07450003264193639,9.751249456024784,0.229701527014343,4.5
-0.028999999999999998,9.436,2.15,0.06,9.568,2.149,-0.127,-0.111,0.013000000000000001,-0.125,-0.33399999999999996,0.098,39.4,-13.6,-13.1,283.4,-77.6,-0.5,0.05164184470331043,9.662034266671284,0.5512385595597837,4.5
-0.654,9.818999999999999,2.322,0.067,9.552999999999999,2.217,-0.773,0.305,0.10300000000000001,-0.006,-0.092,0.024,38.5,-12.9,-14.8,282.9,-77.0,-2.5,-0.5636854984581351,10.072104216789414,0.6834737046594508,4.5
-0.247,9.45,2.6839999999999997,0.08800000000000001,9.533999999999999,2.295,-0.32,-0.091,0.387,0.016,-0.14300000000000002,-0.031,38.5,-12.9,-14.8,284.7,-76.5,-2.2,-0.13932213722532125,9.765312091351293,1.0893273615342716,4.5
-0.22,9.73,2.332,0.107,9.537,2.283,-0.308,0.201,0.03,-0.092,-0.258,0.055,38.6,-13.0,-16.6,285.5,-76.6,-2.3,-0.12692936176222702,9.983041459878121,0.6944754477136976,4.5
-0.156,9.91,2.33,0.16899999999999998,9.536,2.283,-0.377,0.42200000000000004,0.114,-0.055,-0.09699999999999999,0.051,37.6,-12.7,-17.2,285.5,-76.5,-4.0,-0.06305983194513778,10.159788607865867,0.6603445320997197,4.5
0.376,9.766,2.665,0.28300000000000003,9.515,2.355,0.057,0.315,0.27899999999999997,0.049,-0.156,0.049,37.1,-13.2,-18.2,284.7,-76.0,-6.4,0.4851898140406723,10.069256841413972,0.9965011319557411,4.5
0.043,10.033999999999999,2.935,0.28800000000000003,9.519,2.339,-0.10800000000000001,0.6759999999999999,0.203,-0.062,-0.054000000000000006,-0.03,36.2,-13.4,-20.0,287.2,-76.1,-7.1,0.1627471910293561,10.38052011137722,1.2310749648600106,4.5
0.23,9.8,2.4330000000000003,0.261,9.529,2.303,-0.031,0.271,0.13,0.19699999999999998,0.10300000000000001,-0.044000000000000004,36.1,-13.4,-20.5,287.8,-76.0,-7.0,0.3275822090350944,10.06569900893721,0.7660172046397942,4.5
0.599,9.443,1.939,0.233,9.544,2.241,0.366,-0.10099999999999999,-0.302,0.278,-0.036000000000000004,-0.066,35.0,-13.7,-20.2,288.7,-76.4,-6.0,0.6743623506224614,9.62966170267393,0.32190357580796536,4.5
0.32299999999999995,9.137,2.1959999999999997,0.198,9.57,2.134,0.125,-0.433,0.062,0.156,-0.086,-0.06,36.4,-13.3,-20.8,290.7,-77.3,-5.3,0.4045478531367207,9.372680044131283,0.6330275071951361,4.5
0.005,9.302,2.133,0.166,9.59,2.044,-0.11599999999999999,-0.247,0.027000000000000003,-0.066,-0.107,-0.005,35.6,-14.3,-19.9,292.2,-77.9,-4.7,0.08107448416907562,9.527100644002013,0.5519947889909338,4.5
0.457,9.704,2.37,0.192,9.577,2.102,0.253,0.225,0.17300000000000001,-0.039,0.002,-0.046,34.9,-13.0,-20.7,291.6,-77.6,-5.2,0.5436207907290165,9.960004216767864,0.7043844389632279,4.5
0.462,9.668,2.15,0.218,9.567,2.144,0.213,0.125,0.061,0.027000000000000003,-0.139,0.038,35.6,-14.2,-21.5,290.2,-77.3,-5.5,0.5421105380483474,9.887745792984182,0.49473962632937996,4.5
0.924,8.883,2.291,0.436,9.561,2.1390000000000002,0.47200000000000003,-0.685,0.217,-0.042,-0.26899999999999996,-0.098,35.0,-13.7,-21.6,289.2,-77.2,-8.4,1.008865315060781,9.134145292496871,0.748148749664487,4.5
0.742,9.28,2.241,0.466,9.555,2.158,0.317,-0.28,0.04,-0.07400000000000001,-0.289,-0.155,34.0,-12.9,-22.4,286.2,-77.1,-12.3,0.8258593293829247,9.51834741406438,0.6403622984257735,4.5
0.6659999999999999,9.596,2.164,0.475,9.54,2.222,0.162,0.076,-0.098,-0.218,-0.42100000000000004,-0.08,32.7,-12.8,-23.9,289.4,-76.8,-12.1,0.7494007886506034,9.8173923540342,0.516598320671618,4.5
0.5770000000000001,9.558,2.5789999999999997,0.47,9.501,2.3819999999999997,0.42,-0.14,-0.18899999999999997,-0.191,-0.29100000000000004,-0.193,32.4,-12.0,-26.6,294.2,-75.8,-11.6,0.6836892804016661,9.848266203715124,0.9400828413636384,4.5
0.685,9.936,2.9589999999999996,0.40700000000000003,9.446,2.602,0.185,0.495,0.688,-0.32799999999999996,-0.547,-0.201,31.3,-11.1,-28.2,298.2,-75.1,-9.6,0.8186260761909568,10.281295805171606,1.25451580856556,4.5
0.266,9.675,2.957,0.353,9.454,2.582,-0.08800000000000001,0.221,0.375,0.345,-0.14,-0.174,28.9,-9.7,-29.6,301.3,-74.1,-8.5,0.39894034274687296,10.026834983968545,1.3128811093139856,4.5
0.079,9.433,2.164,0.348,9.539,2.248,-0.26899999999999996,-0.13699999999999998,-0.065,0.11199999999999999,-0.595,0.005,28.0,-11.0,-29.8,305.1,-76.5,-8.1,0.1638220000242972,9.66039642974432,0.566152958564387,4.5
0.596,10.042,0.816,0.502,9.561,2.125,0.135,0.562,-1.315,0.07200000000000001,-0.28300000000000003,0.18600000000000003,27.2,-11.5,-31.1,303.1,-77.0,-12.0,0.6258472207513305,10.034281498281608,-0.885633146128349,4.5
0.6629999999999999,9.192,3.752,0.6940000000000001,9.45,2.5269999999999997,-0.18600000000000003,-0.165,1.392,-0.06,-0.46799999999999997,-0.003,25.4,-11.0,-32.8,303.4,-75.0,-15.1,0.827781668272628,9.677888401772238,2.159442194760996,4.5
0.5770000000000001,9.421,2.248,0.695,9.477,2.4219999999999997,-0.37200000000000005,0.016,-0.138,0.083,-0.271,-0.015,23.2,-10.8,-33.6,304.9,-74.7,-15.8,0.6714834685896552,9.65821163449035,0.6401030970133426,4.5
1.147,9.165,2.241,0.732,9.465,2.461,0.389,-0.271,-0.265,-0.235,-0.445,-0.138,22.7,-11.7,-34.1,304.5,-75.0,-16.8,1.242169216404954,9.400312317081232,0.6527319351363048,4.5
0.39,9.491,2.351,0.535,9.458,2.536,-0.2,0.023,-0.17,-0.06,-0.18899999999999997,-0.35600000000000004,21.3,-10.2,-35.0,309.2,-74.6,-14.7,0.4936430153320871,9.745095531906784,0.7401429912012218,4.5
0.259,9.572000000000001,2.229,0.33399999999999996,9.462,2.556,-0.124,0.12,-0.281,0.10800000000000001,-0.354,-0.191,21.5,-9.1,-36.4,316.2,-74.6,-9.0,0.3581464501321154,9.805941152239042,0.61151879699863,4.5
0.09300000000000001,9.357000000000001,2.8160000000000003,0.259,9.445,2.6260000000000003,-0.165,-0.08800000000000001,0.19,-0.138,-0.373,-0.163,19.5,-8.5,-35.8,323.0,-74.7,-6.2,0.22192110035829607,9.691075941365849,1.2352133920484403,4.5
0.43799999999999994,9.299,2.562,0.214,9.436,2.661,0.301,-0.094,-0.106,-0.04,-0.519,-0.228,18.2,-8.0,-37.4,325.2,-74.2,-4.9,0.5564724953522444,9.589420964493366,0.9800167996782208,4.5
-0.474,9.802,2.653,0.134,9.45,2.6189999999999998,-0.623,0.33799999999999997,0.053,-0.028999999999999998,-0.516,-0.124,16.7,-7.9,-38.0,329.5,-74.4,-3.3,-0.35227797802085864,10.107668508555028,1.0262682628662456,4.5
0.031,9.388,2.859,0.184,9.44,2.6489999999999996,-0.213,-0.062,0.162,-0.048,-0.531,-0.086,15.8,-7.9,-38.4,331.0,-74.3,-3.8,0.1631021977877975,9.729048735681745,1.2760855660206447,4.5
-0.496,9.898,3.0860000000000003,0.175,9.441,2.647,-0.591,0.483,0.294,-0.06,-0.32,-0.147,13.0,-7.7,-38.9,335.3,-74.3,-4.3,-0.35295172905386274,10.273351764014867,1.439959933390676,4.5
-0.22,9.613,2.8760000000000003,0.155,9.455,2.597,0.037000000000000005,0.177,-0.222,0.16399999999999998,-0.271,-0.177,11.9,-8.0,-38.9,337.3,-74.3,-3.6,-0.08946046990029227,9.956008007417541,1.2646922078367575,4.5
1.018,9.613,2.023,0.19,9.491,2.46,0.9470000000000001,-0.23,0.083,0.28,-0.764,-0.21899999999999997,8.2,-9.0,-39.6,343.2,-75.3,-4.1,1.1038929013608032,9.807478185546147,0.3652589524730194,4.5
0.05,8.907,2.516,0.124,9.511000000000001,2.385,-0.198,-0.55,0.318,-0.044000000000000004,-0.716,-0.201,6.4,-8.3,-39.8,346.6,-76.2,-3.6,0.15465776445378696,9.199595771612445,1.0054469726567026,4.5
-0.20600000000000002,8.933,3.031,0.022000000000000002,9.503,2.42,-0.254,-0.7190000000000001,0.762,-0.292,-0.423,-0.257,5.7,-8.3,-40.4,348.2,-76.2,-2.4,-0.07783403508049894,9.311817771963078,1.5204859896545142,4.5
-0.134,9.496,3.05,-0.040999999999999995,9.475,2.529,-0.057999999999999996,0.023,0.397,-0.276,-0.27899999999999997,-0.059000000000000004,4.0,-8.7,-39.4,353.1,-75.4,0.8,0.0007119604064898533,9.8690180522932,1.4480863843788192,4.5
0.292,9.491,2.641,0.04,9.447000000000001,2.6319999999999997,0.252,0.054000000000000006,0.04,-0.042,-0.247,-0.006999999999999999,2.9,-7.0,-40.0,354.7,-74.4,-0.6,0.4129691417252115,9.793104624259328,1.031399198319129,4.5
0.395,9.62,2.552,0.086,9.421,2.7230000000000003,0.153,0.264,-0.13,-0.17600000000000002,-0.177,-0.05,1.4,-7.3,-40.7,356.5,-74.1,-1.8,0.5157930047113264,9.904435037883491,0.9215493240389689,4.5
0.855,9.529,2.715,0.172,9.352,2.946,0.687,0.177,-0.257,-0.016,-0.314,-0.105,0.1,-6.4,-40.1,356.5,-72.6,-3.2,0.9934068430975469,9.835808897457161,1.0835576481154432,4.5
0.247,9.769,2.366,0.10099999999999999,9.392000000000001,2.821,0.153,0.336,-0.434,0.049,-0.201,-0.162,-0.8,-6.5,-40.5,359.0,-73.1,-2.4,0.36314542312744946,10.021697823288687,0.725275216971047,4.5
0.29,9.706,2.33,0.07,9.392999999999999,2.8160000000000003,0.129,0.203,-0.213,0.11900000000000001,-0.121,-0.063,-2.0,-6.1,-40.5,0.0,-73.2,-1.4,0.4041197023654326,9.95334726834428,0.6978548716628206,4.5
0.318,9.445,2.569,0.083,9.417,2.735,0.114,0.043,-0.023,0.07200000000000001,-0.106,-0.006999999999999999,-1.1,-6.7,-40.7,0.1,-73.5,-1.3,0.44022184234828216,9.735090870184335,0.9711439021963393,4.5
-0.022000000000000002,9.558,2.696,0.09699999999999999,9.458,2.589,0.003,0.059000000000000004,-0.039,0.109,-0.059000000000000004,0.043,-2.1,-7.4,-41.0,0.9,-74.5,-2.0,0.09980406017701157,9.870801860793351,1.0870021961940528,4.5
0.113,9.594,2.1790000000000003,0.115,9.495,2.45,0.002,0.094,-0.276,0.076,0.068,0.086,-2.0,-8.0,-40.0,0.5,-75.0,-2.4,0.20604362995566616,9.82088801971376,0.5597772117525623,4.5
0.314,9.917,2.066,0.183,9.509,2.3890000000000002,0.196,0.456,-0.706,-0.155,0.214,0.149,-1.8,-8.4,-39.3,358.9,-75.8,-4.0,0.3998459273511115,10.11958659879818,0.3846183872424933,4.5
0.634,9.448,2.935,0.361,9.432,2.662,0.221,0.035,0.226,-0.195,-0.184,0.139,-1.5,-6.7,-40.0,356.4,-74.8,-6.2,0.7696289045606547,9.795904955889078,1.314839322675044,4.5
-0.268,9.45,2.83,0.307,9.46,2.565,-0.5589999999999999,-0.051,0.27699999999999997,0.4,0.43200000000000005,-0.047,-1.4,-6.9,-40.4,354.1,-73.9,-8.1,-0.14108117117638888,9.788126877584475,1.2473541323328883,4.5
0.12,9.152999999999999,3.074,0.24600000000000002,9.46,2.573,-0.14300000000000002,-0.29,0.47,-0.223,-0.052000000000000005,-0.002,0.3,-7.1,-40.4,354.0,-75.0,-5.5,0.25787779220838586,9.53236948602956,1.5194459602428212,4.5
-0.113,9.575,2.536,0.172,9.47,2.542,-0.196,0.11900000000000001,-0.133,0.031,0.20199999999999999,-0.018000000000000002,-0.1,-8.0,-39.6,355.0,-74.7,-4.5,-0.00041280507797282484,9.862175904563896,0.9285344673361662,4.5
0.539,9.362,2.1790000000000003,0.162,9.472000000000001,2.533,0.336,0.027999999999999997,-0.436,-0.11800000000000001,-0.026000000000000002,0.099,0.0,-7.6,-40.1,356.4,-75.0,-3.3,0.6347738502790836,9.588677806775584,0.5830317974615433,4.5
0.474,9.398,2.148,0.209,9.464,2.5610000000000004,0.217,-0.124,-0.368,0.10800000000000001,0.084,-0.059000000000000004,0.2,-7.7,-39.7,356.6,-74.6,-4.6,0.5695057010192822,9.619440653645892,0.550462321590858,4.5
0.213,9.544,2.119,0.162,9.479,2.5069999999999997,0.051,0.064,-0.389,-0.08800000000000001,0.012,-0.08900000000000001,0.7,-8.6,-40.3,354.2,-75.1,-3.9,0.30548429345521605,9.760788007893787,0.5071122276272146,4.5
-0.115,9.527000000000001,3.031,0.08800000000000001,9.462,2.575,-0.141,0.11,0.439,-0.17300000000000001,-0.002,-0.043,0.5,-7.7,-40.0,357.5,-75.0,-2.2,0.021290219775135802,9.896006570341227,1.4256632443551334,4.5
-0.022000000000000002,9.472000000000001,2.72,0.054000000000000006,9.449,2.625,-0.109,0.081,0.037000000000000005,-0.063,0.07200000000000001,0.064,1.0,-7.6,-39.4,357.2,-74.5,-1.2,0.10259605644878873,9.78972338770335,1.1262584256977775,4.5
-0.354,9.931000000000001,2.315,0.047,9.462,2.576,-0.298,0.33299999999999996,-0.242,0.057999999999999996,0.17800000000000002,0.172,1.4,-7.4,-39.5,357.4,-74.7,-0.9,-0.2495956307350758,10.178689087479668,0.6642984882869107,4.5
0.105,9.388,2.4130000000000003,0.111,9.448,2.6260000000000003,0.047,0.067,-0.366,0.038,0.08800000000000001,0.131,1.7,-7.4,-40.4,354.5,-74.4,-2.2,0.21544452135329453,9.655545855863114,0.831959063622413,4.5
-0.07200000000000001,9.556000000000001,3.177,0.09699999999999999,9.443999999999999,2.639,-0.15,0.243,0.373,0.16899999999999998,0.162,-0.011000000000000001,2.1,-7.0,-39.8,354.3,-74.3,-2.4,0.07435489041521526,9.94776687136066,1.565903772053293,4.5
0.287,9.677999999999999,2.073,0.043,9.455,2.602,0.235,0.158,-0.366,0.305,0.214,-0.106,1.6,-6.8,-40.0,355.5,-74.5,-1.3,0.38081390014653477,9.884570016334012,0.4400435951650745,4.5
0.177,9.163,2.883,-0.08800000000000001,9.441,2.65,0.21,-0.528,0.523,-0.287,-0.11,-0.11599999999999999,3.2,-6.8,-39.8,356.8,-75.0,1.4,0.31010552045021256,9.50994345514551,1.3298109061522043,4.5
-0.584,8.825,3.697,-0.171,9.382,2.85,-0.382,-0.475,0.833,-0.17300000000000001,0.07,0.066,4.4,-6.6,-40.1,357.7,-73.3,3.6,-0.399457667969928,9.313610185982135,2.233067145221975,4.5
0.215,9.376,2.773,-0.071,9.352,2.952,0.287,0.024,-0.179,-0.115,0.046,0.218,4.1,-5.9,-40.6,356.1,-72.6,2.1,0.3575223988681673,9.699593946824951,1.1979920705181266,4.5
0.807,9.33,2.8760000000000003,0.177,9.291,3.1319999999999997,0.795,-0.059000000000000004,-0.355,-0.12,0.156,0.29100000000000004,4.4,-5.6,-40.1,351.0,-71.5,-2.4,0.9629292121817754,9.664115302128629,1.2841992678281158,4.5
0.065,9.35,3.998,0.295,9.232000000000001,3.293,-0.242,0.139,0.7170000000000001,-0.10099999999999999,0.207,0.185,4.9,-4.8,-40.1,348.3,-70.5,-4.8,0.29454611310893236,9.868638892051495,2.4359675707080015,4.5
0.8809999999999999,9.137,3.589,0.43200000000000005,9.198,3.3739999999999997,0.48,-0.08800000000000001,0.256,0.036000000000000004,0.035,0.095,5.5,-4.4,-39.8,343.0,-69.8,-6.9,1.0906977798165094,9.583922652167026,2.0250076420554857,4.5
0.821,8.797,3.1319999999999997,0.524,9.234,3.261,0.251,-0.47600000000000003,-0.09300000000000001,-0.03,0.032,0.10300000000000001,6.3,-5.1,-39.5,341.2,-70.3,-8.3,0.9978328267163152,9.177276186453536,1.628682119838046,4.5
0.919,8.943,3.0980000000000003,0.623,9.23,3.253,0.249,-0.271,-0.115,0.003,0.212,0.024,6.1,-4.7,-39.8,338.8,-70.2,-10.6,1.093315495634409,9.314957729360957,1.567047455319785,4.5
0.467,9.362,3.5410000000000004,0.633,9.232000000000001,3.248,-0.127,0.099,0.207,0.018000000000000002,0.371,0.065,6.7,-4.9,-39.5,336.8,-70.3,-11.1,0.666875674503308,9.803666376011233,1.96143223758114,4.5
-0.247,9.781,3.6460000000000004,0.614,9.267999999999999,3.145,-0.86,0.512,0.501,0.214,0.6,0.237,7.9,-5.6,-40.3,335.3,-70.9,-11.0,-0.04659724220642028,10.241813159438292,2.031102632605111,4.5
0.503,8.986,4.36,0.775,9.18,3.362,-0.24100000000000002,-0.19399999999999998,0.948,0.172,0.314,0.21899999999999997,9.0,-5.4,-39.6,332.0,-69.7,-12.4,0.7578235769158452,9.560584058710722,2.834032618477935,4.5
0.297,9.017000000000001,3.431,0.8,9.224,3.234,-0.527,-0.20199999999999999,0.18100000000000002,0.131,0.335,0.182,10.4,-5.4,-38.8,329.1,-70.1,-13.7,0.4900834706209475,9.446812590214673,1.9193251619216816,4.5
1.1320000000000001,9.199,2.878,0.919,9.253,3.116,-0.084,0.078,-0.41600000000000004,-0.09300000000000001,0.136,0.365,10.9,-7.4,-37.9,325.5,-70.7,-14.9,1.2867677680540581,9.531489744671287,1.2964725058107647,4.5
1.4169999999999998,9.529,2.6,1.083,9.232999999999999,3.122,0.37799999999999995,0.267,-0.539,0.115,0.39299999999999996,0.068,11.6,-7.2,-38.0,319.5,-70.2,-19.0,1.5564987635085148,9.809710211423834,0.9574064795495156,4.5
0.816,8.9,3.5839999999999996,1.002,9.244,3.1180000000000003,-0.18600000000000003,-0.344,0.466,0.14400000000000002,0.264,-0.006999999999999999,13.1,-7.6,-37.5,319.6,-70.5,-18.2,1.0097348572195886,9.352166332000532,2.0587210633574102,4.5
0.623,8.854,3.029,0.899,9.293,2.9989999999999997,-0.231,-0.46299999999999997,-0.196,0.004,0.19,-0.026000000000000002,14.0,-8.0,-37.3,318.2,-71.0,-17.4,0.7806196541153096,9.220994784230232,1.5232117859338348,4.5
0.816,8.837,2.658,0.762,9.308,2.992,0.047,-0.456,-0.344,-0.063,0.125,-0.11900000000000001,15.2,-8.0,-36.8,319.8,-71.7,-14.3,0.9536260659143116,9.14307876358131,1.1480840776516592,4.5
0.797,9.472000000000001,3.275,0.613,9.31,3.02,0.185,0.162,0.255,0.068,0.015,-0.174,16.3,-7.7,-37.0,320.6,-71.5,-12.2,0.9684350736776113,9.869518028660401,1.653591663627497,4.5
0.579,10.147,2.674,0.574,9.356,2.8819999999999997,-0.013999999999999999,0.71,-0.031,0.032,-0.073,0.034,14.5,-7.8,-37.3,321.6,-72.2,-10.8,0.7127142680298812,10.441442663492293,0.9567860142945506,4.5
0.563,9.764,2.938,0.645,9.368,2.8280000000000003,-0.084,0.396,0.115,0.139,-0.21600000000000003,0.024,14.8,-8.3,-37.6,322.8,-72.7,-12.4,0.7072690794432718,10.106908721196112,1.2785443092335242,4.5
0.493,9.68,3.292,0.721,9.427999999999999,2.6,-0.261,0.20600000000000002,0.805,0.41600000000000004,-0.41700000000000004,-0.017,14.2,-9.1,-37.0,321.4,-73.5,-14.3,0.6418275113507821,10.084282530410828,1.6364645711179375,4.5
0.596,9.888,2.648,0.8009999999999999,9.509,2.259,-0.085,0.43700000000000006,0.262,0.105,-0.302,-0.051,13.0,-10.4,-38.4,318.6,-75.7,-19.2,0.6999124841153385,10.18537094880376,0.9528930421846384,4.5
0.634,9.642000000000001,1.492,0.828,9.596,1.8419999999999999,-0.19399999999999998,0.045,-0.35,0.516,-0.17,-0.013000000000000001,11.4,-12.2,-37.7,317.1,-77.6,-23.1,0.6816304045576789,9.75227659252078,-0.15705175756376466,4.5
1.3769999999999998,9.175,0.821,0.902,9.651,1.485,0.467,-0.484,-0.64,0.289,-0.38,0.03,9.8,-13.6,-37.4,312.4,-79.2,-27.6,1.3978139449526157,9.176756932813923,-0.7642273034559965,4.5
1.422,9.11,0.733,0.882,9.683,1.2790000000000001,0.5489999999999999,-0.527,-0.518,0.027000000000000003,-0.107,-0.136,8.9,-15.2,-36.2,307.9,-80.8,-34.8,1.438006951108014,9.09813256208479,-0.8411854083954868,4.5
0.687,9.414,1.923,0.7879999999999999,9.684,1.327,0.141,-0.37799999999999995,0.40700000000000003,-0.071,0.155,-0.196,9.0,-13.7,-36.8,309.7,-81.0,-33.7,0.7313494671850319,9.600567778315089,0.29583828492308917,4.5
0.342,9.693999999999999,1.796,0.643,9.681000000000001,1.426,-0.301,0.013000000000000001,0.369,-0.177,-0.17300000000000001,-0.043,9.8,-14.2,-36.6,318.0,-80.8,-24.3,0.38658904469794514,9.856445636491571,0.13131765077777913,4.5
0.754,9.863999999999999,1.52,0.568,9.672,1.516,0.203,0.156,0.04,-0.006999999999999999,-0.066,-0.149,9.2,-13.6,-37.4,321.7,-80.4,-22.1,0.7939493774114093,9.975720887227594,-0.17902280927057102,4.5
0.6940000000000001,9.982000000000001,1.02,0.426,9.673,1.555,0.26899999999999996,0.34700000000000003,-0.5329999999999999,-0.096,-0.04,-0.201,8.7,-13.0,-37.9,328.1,-80.6,-16.5,0.721423705667538,10.00824131267291,-0.6906617581770129,4.5
0.74,9.718,1.595,0.349,9.657,1.673,0.391,0.062,-0.079,-0.284,-0.21600000000000003,-0.076,9.3,-13.0,-39.3,332.5,-80.5,-12.8,0.7862509380260518,9.844114820054966,-0.0797613441920566,4.5
0.158,9.607999999999999,1.453,0.276,9.648,1.733,-0.07,-0.047,-0.325,-0.033,-0.062,-0.045,8.0,-11.6,-38.7,337.6,-79.7,-9.3,0.20186929584078658,9.714707166922944,-0.18316781467479504,4.5
0.374,9.46,1.798,0.188,9.641,1.784,0.055999999999999994,-0.157,0.076,-0.027999999999999997,0.111,-0.12300000000000001,7.2,-11.5,-38.0,341.3,-79.5,-6.9,0.42979343744494797,9.625414041530062,0.17596059287572596,4.5
-0.21100000000000002,9.892999999999999,1.8119999999999998,-0.026000000000000002,9.645,1.775,-0.204,0.261,0.009000000000000001,-0.129,0.358,-0.15,8.2,-11.0,-38.2,345.7,-79.7,-1.4,-0.1547726858589069,10.05769743251365,0.1344684785379786,4.5
-0.287,10.173,1.817,-0.21,9.642999999999999,1.7719999999999998,0.047,0.473,0.046,0.05,0.46299999999999997,-0.11900000000000001,10.3,-11.7,-39.3,349.1,-79.3,4.3,-0.23067690298001958,10.334965944432955,0.09515300227813484,4.5
-0.172,9.788,2.3680000000000003,-0.35200000000000004,9.626,1.84,0.18,0.162,0.528,-0.08800000000000001,0.001,-0.057999999999999996,12.0,-10.7,-37.4,352.3,-79.0,10.8,-0.09587826271454535,10.046874720318302,0.7021878046277088,4.5
-0.44799999999999995,9.68,1.757,-0.36200000000000004,9.64,1.761,-0.042,0.037000000000000005,-0.006,0.047,-0.035,0.049,12.7,-11.3,-37.9,352.2,-79.1,11.6,-0.3937950613416493,9.839700830663688,0.12395972208448258,4.5
-0.14800000000000002,9.824,1.499,-0.217,9.654,1.71,0.069,0.17,-0.21100000000000002,-0.125,-0.17800000000000002,0.23399999999999999,12.4,-11.2,-37.3,350.0,-79.9,8.7,-0.10320286260972612,9.936884566762021,-0.16599781925038082,4.5
-0.005,9.362,2.363,0.011000000000000001,9.616,1.922,-0.033,-0.281,0.503,-0.135,-0.193,0.11900000000000001,11.2,-11.5,-38.0,344.5,-79.1,1.7,0.0742553556628734,9.624989710778326,0.7647857278785613,4.5
0.022000000000000002,9.766,2.191,0.076,9.6,2.003,-0.11,0.155,0.023,-0.158,-0.209,0.024,10.6,-10.4,-38.8,341.1,-78.4,-1.9,0.09856603853556474,9.994276170580104,0.5295748882094868,4.5
0.304,9.562999999999999,2.263,0.11800000000000001,9.562999999999999,2.167,0.294,0.004,0.083,-0.11800000000000001,-0.247,-0.124,10.2,-10.7,-37.4,340.5,-77.6,-3.2,0.3893517979550989,9.803886205207524,0.6299003514610504,4.5
0.201,9.552999999999999,2.006,0.008,9.57,2.141,0.085,0.172,-0.20600000000000002,-0.175,-0.305,-0.183,8.8,-10.3,-39.6,345.6,-77.2,-2.0,0.2758014772991848,9.752074252250278,0.38108702905866565,4.5
0.271,9.503,1.891,-0.109,9.56,2.1830000000000003,0.39899999999999997,-0.141,-0.136,0.095,-0.257,-0.218,8.0,-10.2,-39.2,350.5,-77.1,2.9,0.3428340421342996,9.683140091586749,0.2749432418868256,4.5
0.079,9.472000000000001,2.325,-0.201,9.55,2.219,0.28,-0.078,0.106,-0.11199999999999999,-0.373,-0.158,7.0,-10.3,-39.1,353.8,-77.2,4.5,0.16896288101990714,9.725669370284159,0.7165590308928012,4.5
-0.45299999999999996,9.565,2.524,-0.299,9.517000000000001,2.345,-0.276,0.062,0.26,-0.047,-0.396,-0.223,5.3,-8.6,-40.4,359.0,-76.2,6.2,-0.3493472376338831,9.853386917799758,0.9239765991031188,4.5
-0.5720000000000001,9.769,2.176,-0.36200000000000004,9.5,2.405,-0.344,0.192,0.05,0.19,-0.36200000000000004,-0.16899999999999998,3.4,-9.1,-40.7,2.7,-75.6,8.0,-0.48018497939256044,9.997812924769002,0.5555898729167454,4.5
-0.299,9.654,2.483,-0.371,9.494,2.427,-0.07400000000000001,0.305,0.008,-0.111,-0.622,-0.13,2.1,-9.6,-40.1,6.9,-75.8,9.1,-0.19358545102545732,9.933045894502543,0.8669082597699893,4.5
