PRT(X),PRT(Y),PRT(Z),ACCELEROMETER X (m/s²),ACCELEROMETER Y (m/s²),ACCELEROMETER Z (m/s²),GRAVITY X (m/s²),GRAVITY Y (m/s²),GRAVITY Z (m/s²),LINEAR ACCELERATION X (m/s²),LINEAR ACCELERATION Y (m/s²),LINEAR ACCELERATION Z (m/s²),GYROSCOPE X (rad/s),GYROSCOPE Y (rad/s),GYROSCOPE Z (rad/s),LIGHT (lux),MAGNETIC FIELD X (μT),MAGNETIC FIELD Y (μT),MAGNETIC FIELD Z (μT),ORIENTATION Z (azimuth °),ORIENTATION X (pitch °),ORIENTATION Y (roll °),PROXIMITY (i),SOUND LEVEL (dB),LOCATION Latitude : ,LOCATION Longitude : ,LOCATION Altitude ( m),LOCATION Altitude-google ( m),LOCATION Speed ( Kmh),LOCATION Accuracy ( m),LOCATION ORIENTATION (°),Satellites in range,Time since start in ms ,YYYY-MO-DD HH-MI-SS_SSS
-4.54E+00,7.56E-01,9.20E+00,5.4045,2.1185,8.4929,8.3346,1.4612,4.9567,-2.6521,0.7053,3.8971,0.6863,2.1553,1.7216,254,-41.79,27.37,10.35,43.83,-8.57,-59.26,2,63.751,19.300062,72.86194,-132.26,0,6.12,29.361288,57.7,Nov-33,1003,2018-09-02 17:22:42:844
-2.41E+00,1.79E+00,1.12E+01,7.4981,2.9433,8.4065,7.6366,0.8542,6.0929,0.431,2.4718,2.5228,0.3353,0.7896,0.5009,254,-36.22,34.06,-1.97,31.76,-5.91,-54.1,2,63.751,19.300062,72.86194,-132.26,0,6.12,29.361288,57.7,Nov-33,1103,2018-09-02 17:22:42:944
-4.25E-01,1.69E+00,1.10E+01,7.9044,2.64,7.3243,7.4016,0.8387,6.3784,0.9609,1.6242,0.8111,-0.1472,-0.2112,-0.0509,344,-32.54,35.12,-5.84,25.11,-4.99,-49.44,2,66.123,19.300062,72.86194,-132.26,0,6.12,29.361288,57.7,Nov-33,1203,2018-09-02 17:22:43:044
-1.09E+00,3.86E+00,8.38E+00,5.3991,4.7209,5.8976,7.5325,1.1814,6.1673,-2.1865,3.4214,0.4224,-1.009,-0.2437,-1.0496,450,-36.6,33.31,-4.09,27.43,-6.06,-50.28,2,66.123,19.300062,72.86194,-132.26,0,6.12,29.361288,57.7,Nov-33,1303,2018-09-02 17:22:43:144
-3.72E+00,5.06E+00,5.53E+00,1.4623,5.7323,5.9203,7.6269,1.2298,6.0405,-5.4055,4.7511,0.2536,-1.1741,-0.1702,-0.4392,450,-38.85,34.06,-0.28,33.51,-7.43,-51.5,2,66.123,19.300062,72.86194,-132.26,0,6.12,29.361288,57.7,Nov-33,1403,2018-09-02 17:22:43:244
-4.95E+00,3.83E+00,5.00E+00,0.2692,4.287,6.7649,7.4079,0.8924,6.3638,-6.7607,3.6433,0.5347,-0.3587,-0.1457,-0.0233,335,-39.6,36.25,1.41,34.81,-5.42,-49.26,0,66.123,19.300062,72.86194,-132.26,0,6.12,29.361288,57.7,Nov-33,1503,2018-09-02 17:22:43:344
-3.61E+00,4.33E+00,1.57E+01,8.4273,5.5351,13.2532,7.0277,0.8693,6.7842,-4.937,6.3355,8.971,0.9447,-1.1992,1.3611,207,-40.29,39.94,-5.84,40.08,-4.47,-45.73,0,66.433,19.300062,72.86194,-132.26,0,6.12,29.361288,57.7,Nov-33,1602,2018-09-02 17:22:43:443
-8.13E+00,7.16E+00,8.69E+00,0.4447,7.768,11.5037,6.5633,0.8369,7.2383,-5.8325,6.9676,4.5809,0.7838,2.224,0.5445,464,-34.04,42.5,-13.9,19.28,-4.11,-47.14,2,66.433,19.300062,72.86194,-132.26,0,6.12,29.361288,57.7,Nov-33,1703,2018-09-02 17:22:43:544
-4.87E+00,3.72E+00,4.94E+00,-1.1707,4.1013,6.6154,5.8019,0.7755,7.8681,-7.2062,3.3642,-0.9518,1.4059,0.6314,2.5233,2931,-20.04,37,-28.78,358.39,-4.54,-36.4,2,66.433,19.300062,72.86194,-132.26,0,6.12,29.361288,57.7,Nov-33,1803,2018-09-02 17:22:43:644
-4.53E+00,3.60E+00,5.35E+00,-0.6557,4.0074,6.752,5.6646,0.6741,7.9767,-5.9153,3.3392,-0.5171,1.0997,0.7539,2.2138,2931,-18.16,36.62,-28.78,358.39,-4.54,-36.4,2,61.85,19.300062,72.86194,-132.26,0,6.12,29.361288,57.7,Nov-33,1903,2018-09-02 17:22:43:744
-4.53E+00,3.60E+00,5.35E+00,-0.6557,4.0074,6.752,5.6646,0.6741,7.9767,-5.9153,3.3392,-0.5171,1.0997,0.7539,2.2138,2931,-18.16,36.62,-28.78,358.39,-4.54,-36.4,2,61.85,19.300064,72.861946,-135.48,0,1.76,29.361288,59.2,Dec-35,2003,2018-09-02 17:22:43:844
-1.71E+00,4.30E+00,7.17E+00,-0.223,3.8427,7.6156,1.9129,-0.6181,9.5984,4.7983,0.8503,0.4441,0.1271,1.5955,1.5821,3645,-16.72,35.87,-24.53,19.03,3.61,-11.27,2,61.85,19.300064,72.861946,-135.48,0,1.76,29.361288,59.2,Dec-35,2103,2018-09-02 17:22:43:944
3.13E+00,4.69E+00,1.53E+01,5.3634,3.7619,14.9695,1.3817,-1.1535,9.6401,4.0311,4.8707,5.622,-1.7457,-0.4147,-0.2906,3645,6.53,26.69,-24.53,329.44,3.44,-8.37,2,63.547,19.300064,72.861946,-135.48,0,1.76,29.361288,59.2,Dec-35,2203,2018-09-02 17:22:44:044
6.52E+00,3.48E+00,7.80E+00,8.015,2.6817,6.6394,2.2022,-0.9325,9.5106,6.7974,4.5041,-2.7652,-0.3235,-0.5819,-1.0811,3791,5.4,26.69,-25.4,338.02,5.71,-11.54,2,63.547,19.300064,72.861946,-135.48,0,1.76,29.361288,59.2,Dec-35,2302,2018-09-02 17:22:44:143
1.10E+00,2.82E+00,6.68E+00,2.9152,2.276,6.3353,2.9006,-0.6054,9.3483,0.4959,2.5531,-1.7995,0.8408,-1.8421,-1.4896,4406,1.34,25.94,-24.97,342.2,4.59,-15.66,2,63.547,19.300064,72.861946,-135.48,0,1.76,29.361288,59.2,Dec-35,2403,2018-09-02 17:22:44:244
-2.33E+00,4.94E+00,9.54E+00,2.4844,5.0322,9.4476,5.3712,0.1914,8.2027,-2.3094,4.8995,1.6635,-0.6969,-2.6155,-1.5615,3963,-10.41,23,-26.22,351.13,-0.58,-28.53,2,60.66,19.300064,72.861946,-135.48,0,1.76,29.361288,59.2,Dec-35,2503,2018-09-02 17:22:44:344
-6.01E+00,3.66E+00,7.98E+00,0.2308,3.7864,9.9465,6.2927,0.0689,7.5212,-5.9225,3.8249,2.4767,-2.2687,-1.6578,-2.3322,3984,-17.47,25.19,-23.65,349.67,-0.9,-38.52,2,60.66,19.300064,72.861946,-135.48,0,1.76,29.361288,59.2,Dec-35,2603,2018-09-02 17:22:44:444
-5.80E+00,4.14E+00,5.22E+00,-0.7282,4.1725,7.7486,7.3542,0.425,6.4734,-6.1193,3.4369,1.5468,-1.3808,-0.722,-1.9232,3984,-26.29,24.44,-20.28,1.14,-0.37,-42.76,2,60.66,19.300064,72.861946,-135.48,0,1.76,29.361288,59.2,Dec-35,2702,2018-09-02 17:22:44:543
-7.74E+00,4.65E+00,8.66E+00,1.3488,5.1607,11.3187,7.771,1.1303,5.874,-5.8867,4.1083,5.8495,0.5718,-1.3595,-0.6118,3560,-32.91,21.87,-24.09,11.32,-3.41,-49.53,2,65.14,19.300064,72.861946,-135.48,0,1.76,29.361288,59.2,Dec-35,2803,2018-09-02 17:22:44:644
-5.83E+00,2.77E+00,1.14E+01,5.7804,4.3672,10.9386,8.0529,1.6916,5.3347,-1.724,2.7909,5.9672,1.5977,-0.2522,0.4428,2909,-32.22,16.31,-18.59,8.39,-8.17,-55.96,2,65.14,19.300064,72.861946,-135.48,0,1.76,29.361288,59.2,Dec-35,2903,2018-09-02 17:22:44:744
-3.11E+00,3.49E+00,8.77E+00,4.9814,4.9529,7.0324,8.1593,1.885,5.1032,-2.614,3.073,1.931,1.2147,-0.4466,0.5515,2593,-32.54,13.37,-16.9,8.62,-9.93,-56.48,2,65.14,19.300053,72.86197,-141.94,0,2.7,29.361288,70.8,13 / 36,3002,2018-09-02 17:22:44:843
-3.11E+00,3.49E+00,8.77E+00,4.9814,4.9529,7.0324,8.1593,1.885,5.1032,-2.614,3.073,1.931,1.2147,-0.4466,0.5515,2593,-32.54,13.37,-16.9,8.62,-9.93,-56.48,2,65.14,19.300053,72.86197,-141.94,0,2.7,29.361288,70.8,13 / 36,3103,2018-09-02 17:22:44:944
-2.88E+00,3.17E+00,8.58E+00,5.0931,4.7621,6.5827,8.1593,1.885,5.1032,-2.614,3.073,1.931,0.5218,0.9553,0.0838,1804,-31.85,12.25,-18.15,5.18,-11.08,-57.98,2,65.32,19.300053,72.86197,-141.94,0,2.7,29.361288,70.8,13 / 36,3203,2018-09-02 17:22:45:044
-2.78E+00,4.74E+00,7.99E+00,2.5223,6.7771,6.4542,6.5406,2.8057,6.7468,-3.302,3.7859,0.2213,0.5511,0.9702,0.3288,1804,-25.91,6.37,-20.28,15.99,-16.2,-44.99,2,65.32,19.300053,72.86197,-141.94,0,2.7,29.361288,70.8,13 / 36,3303,2018-09-02 17:22:45:144
-1.85E+00,3.64E+00,9.28E+00,3.6303,6.2681,7.0978,6.0517,2.9815,7.1175,-2.169,3.4987,0.6608,0.9644,0.5233,0.9163,2158,-23.35,7.5,-20.28,15.85,-17.51,-40.54,2,65.32,19.300053,72.86197,-141.94,0,2.7,29.361288,70.8,13 / 36,3403,2018-09-02 17:22:45:244
6.89E-01,2.65E+00,9.01E+00,5.4669,5.3815,5.4539,5.9178,3.0897,7.1836,-0.6228,2.8764,-2.4289,0.0056,0.4748,0.4103,2856,-20.04,7.12,-28.34,14.13,-18.61,-39.95,2,61.05,19.300053,72.86197,-141.94,0,2.7,29.361288,70.8,13 / 36,3503,2018-09-02 17:22:45:344
-1.66E+00,7.56E-01,1.25E+01,6.0639,4.6414,10.0651,6.7064,2.8125,6.5791,-1.0909,2.6614,2.6379,-0.0412,-2.8381,1.4234,2856,-22.97,9.69,-18.59,358.15,-18.29,-39.18,2,61.05,19.300053,72.86197,-141.94,0,2.7,29.361288,70.8,13 / 36,3602,2018-09-02 17:22:45:443
-3.31E+00,-2.56E-01,1.43E+01,7.4941,3.8485,11.9898,7.3683,2.7211,5.8715,1.253,1.0989,6.7884,2.3125,-3.1662,1.05,3664,-24.47,10.44,-16.84,14.62,-16.67,-45.55,2,61.05,19.300053,72.86197,-141.94,0,2.7,29.361288,70.8,13 / 36,3703,2018-09-02 17:22:45:544
-3.31E+00,-2.56E-01,1.43E+01,7.4941,3.8485,11.9898,7.3683,2.7211,5.8715,1.253,1.0989,6.7884,2.3125,-3.1662,1.05,3664,-24.47,10.44,-16.84,14.62,-16.67,-45.55,2,59.489,19.300053,72.86197,-141.94,0,2.7,29.361288,70.8,13 / 36,3803,2018-09-02 17:22:45:644
-3.31E+00,-2.56E-01,1.43E+01,7.4941,3.8485,11.9898,7.3683,2.7211,5.8715,1.253,1.0989,6.7884,2.3125,-3.1662,1.05,3664,-24.47,10.44,-16.84,14.62,-16.67,-45.55,2,59.489,19.300053,72.86197,-141.94,0,2.7,29.361288,70.8,13 / 36,3903,2018-09-02 17:22:45:744
-3.31E+00,-2.56E-01,1.43E+01,7.4941,3.8485,11.9898,7.3683,2.7211,5.8715,1.253,1.0989,6.7884,2.3125,-3.1662,1.05,3664,-24.47,10.44,-16.84,14.62,-16.67,-45.55,2,59.489,19.300053,72.86198,-145.16,0,2.7,29.361288,70.7,13 / 36,4003,2018-09-02 17:22:45:844
-9.81E+00,-1.61E+00,9.32E+00,9.354,2.8762,9.489,8.6918,4.5308,-0.3088,1.3185,-1.2765,10.8608,-1.0042,0.7092,-1.5162,3664,-27.41,10.44,-15.59,321.19,-27.52,-92.03,2,59.656,19.300053,72.86198,-145.16,0,2.7,29.361288,70.7,13 / 36,4103,2018-09-02 17:22:45:944
-4.57E+00,8.32E+00,1.15E+00,-2.9844,7.781,4.681,8.4016,5.0406,-0.4193,-10.3675,3.0903,5.4265,0.0941,-0.3273,-0.2043,1102,-31.1,-7.63,-28.78,284.85,-29.95,-92.14,2,59.656,19.300053,72.86198,-145.16,0,2.7,29.361288,70.7,13 / 36,4203,2018-09-02 17:22:46:044
-4.86E+00,7.48E+00,2.94E+00,-1.1955,7.9634,4.8369,8.5565,4.7871,0.2021,-9.0993,3.6252,4.8142,0.1521,0.7028,0.8561,2734,-32.91,-7.25,-24.53,293.01,-29.22,-88.65,2,59.656,19.300053,72.86198,-145.16,0,2.7,29.361288,70.7,13 / 36,4303,2018-09-02 17:22:46:144
-2.97E+00,4.70E+00,2.59E+00,0.0466,5.3695,2.975,8.7714,4.3752,0.3005,-8.2082,2.0814,2.7249,0.2086,0.8637,0.8748,3510,-30.35,-6.13,-24.09,293.8,-27.54,-88.51,2,59.656,19.300053,72.86198,-145.16,0,2.7,29.361288,70.7,13 / 36,4403,2018-09-02 17:22:46:244
-2.97E+00,4.70E+00,2.59E+00,0.0466,5.3695,2.975,8.7714,4.3752,0.3005,-8.2082,2.0814,2.7249,0.2086,0.8637,0.8748,3510,-30.35,-6.13,-24.09,293.8,-27.54,-88.51,2,63.0175,19.300053,72.86198,-145.16,0,2.7,29.361288,70.7,13 / 36,4503,2018-09-02 17:22:46:344
-2.97E+00,4.70E+00,2.59E+00,0.0466,5.3695,2.975,8.7714,4.3752,0.3005,-8.2082,2.0814,2.7249,0.2086,0.8637,0.8748,3510,-30.35,-6.13,-24.09,293.8,-27.54,-88.51,2,63.0175,19.300053,72.86198,-145.16,0,2.7,29.361288,70.7,13 / 36,4603,2018-09-02 17:22:46:444
-9.09E+00,3.14E+00,6.11E+00,-0.52858,6.05713,9.6391,7.23733,5.69569,3.36908,-7.10755,0.87956,6.5765,-1.18692,0.10306,-1.23393,5934,-25.537,1.248,-29.654,320.132,-34.616,-67.193,2,63.0175,19.300053,72.86198,-145.16,0,2.7,29.361288,70.7,13 / 36,4703,2018-09-02 17:22:46:544
-8.12E+00,-7.09E-01,5.36E+00,-0.90961,2.72559,9.32512,6.19181,6.13029,4.50017,-7.48902,0.49059,7.32847,0.29965,-0.16272,-1.17694,5934,-24.849,1.561,-31.779,334.076,-37.786,-54.51,2,59.4617,19.300053,72.86198,-145.16,0,2.7,29.361288,70.7,13 / 36,4803,2018-09-02 17:22:46:644
-6.63E+00,1.10E+00,5.56E+00,-1.14371,4.42877,7.42807,5.99194,6.33911,4.48137,-6.3651,0.33771,5.76748,1.95241,-0.51106,-0.99583,6592,-25.911,-4.314,-31.779,338.159,-40.271,-53.207,2,59.4617,19.300053,72.86198,-145.16,0,2.7,29.361288,70.7,13 / 36,4903,2018-09-02 17:22:46:744
-6.77E+00,1.08E+00,5.45E+00,-0.85968,4.79431,7.27776,5.67646,7.34077,3.17196,-6.03535,-1.64916,4.44949,0.36197,-1.20988,-0.45149,6999.0005,-25.911,-6.564,-30.904,328.72,-48.465,-60.804,2,59.4617,19.300049,72.86199,-145.161,0,2.52,29.361286,71.8,Oct-31,5003,2018-09-02 17:22:46:844
-7.61E+00,-7.21E-01,6.00E+00,1.65245,4.65907,8.37006,5.10296,8.25143,1.42971,-2.97863,-2.85772,7.15211,-0.55522,-3.0874,-1.31595,6787.0005,-32.912,-10.939,-24.966,330.18,-57.29,-74.349,2,58.7254,19.300049,72.86199,-145.161,0,2.52,29.361286,71.8,Oct-31,5103,2018-09-02 17:22:46:944
-5.59E+00,4.36E-01,4.76E+00,1.55203,4.44867,5.64749,4.40607,8.75972,0.15585,-1.76583,-4.40834,6.35545,1.70793,-2.2858,-2.4659,5223,-34.036,-18.314,-11.717,334.515,-63.284,-87.974,2,58.7254,19.300049,72.86199,-145.161,0,2.52,29.361286,71.8,Oct-31,5203,2018-09-02 17:22:47:044
-5.35E+00,8.77E+00,6.50E+00,-1.65012,8.998,7.99594,1.34609,9.40286,-2.43818,-3.3899,0.6833,9.0462,0.20058,-1.6738,-1.782,5223,-29.224,-27.939,2.783,305.941,-70.982,-127.441,2,58.7254,19.300049,72.86199,-145.161,0,2.52,29.361286,71.8,Oct-31,5303,2018-09-02 17:22:47:144
6.36E-01,7.59E+00,1.64E+00,-2.29346,3.83939,6.37704,0.27924,9.2565,-3.22639,-0.96584,-4.98942,8.97652,1.31271,-1.63332,-1.99559,3501,-27.037,-29.752,23.659,297.751,-72.584,-165.605,2,57.6421,19.300049,72.86199,-145.161,0,2.52,29.361286,71.8,Oct-31,5403,2018-09-02 17:22:47:244
4.58E+00,5.01E+00,6.36E+00,-3.83421,7.71652,3.49945,-0.93023,9.19724,-3.27351,-4.00177,0.56497,5.68852,-0.69104,-0.71347,-0.28264,3047,-21.474,-33.127,25.845,281.429,-69.338,165.645,2,57.6421,19.300049,72.86199,-145.161,0,2.52,29.361286,71.8,Oct-31,5503,2018-09-02 17:22:47:344
4.58E+00,5.01E+00,6.36E+00,-3.83421,7.71652,3.49945,-0.93023,9.19724,-3.27351,-4.00177,0.56497,5.68852,-0.69104,-0.71347,-0.28264,3047,-21.474,-33.127,25.845,281.429,-69.338,165.645,2,57.6421,19.300049,72.86199,-145.161,0,2.52,29.361286,71.8,Oct-31,5603,2018-09-02 17:22:47:444
4.58E+00,5.01E+00,6.36E+00,-3.83421,7.71652,3.49945,-0.93023,9.19724,-3.27351,-4.00177,0.56497,5.68852,-0.69104,-0.71347,-0.28264,3047,-21.474,-33.127,25.845,281.429,-69.338,165.645,2,57.6421,19.300049,72.86199,-145.161,0,2.52,29.361286,71.8,Oct-31,5702,2018-09-02 17:22:47:543
7.89E+00,7.48E+00,2.72E+00,0.62399,7.52777,8.28386,-7.64531,5.94596,-1.5379,7.07368,2.2361,9.24516,0.48981,-1.20189,-2.50798,1460,-9.724,-40.814,20.221,211.966,-38.981,103.889,2,53.528,19.300049,72.86199,-145.161,0,2.52,29.361286,71.8,Oct-31,5802,2018-09-02 17:22:47:643
8.34E+00,5.79E+00,5.43E+00,-3.03703,7.58205,8.11777,-8.79362,4.27961,-0.72633,6.76864,3.97563,6.59482,0.87968,-1.02985,-1.72821,1460,4.338,-40.501,30.47,218.654,-25.874,94.722,2,53.528,19.300049,72.86199,-145.161,0,2.52,29.361286,71.8,Oct-31,5903,2018-09-02 17:22:47:744
8.27E+00,2.47E+00,6.44E+00,-5.19046,4.76653,8.14421,-9.04413,3.78462,-0.2251,0.97692,2.37153,5.73295,2.1857,-2.24266,-0.13724,2226,7.651,-37.502,33.908,226.879,-22.701,91.426,2,53.528,19.300053,72.86199,-145.161,0,2.844,24.467743,9.2,13 / 36,6003,2018-09-02 17:22:47:844
3.64E+00,7.90E+00,7.13E+00,-3.14487,10.08472,3.8671,-8.63994,4.49995,1.12791,4.17727,5.86932,3.66993,1.79529,-2.02534,0.47902,2843,12.776,-33.502,38.158,233.333,-23.42,86.098,2,50.1731,19.300053,72.86199,-145.161,0,2.844,24.467743,9.2,13 / 36,6103,2018-09-02 17:22:47:944
7.46E-01,1.34E+01,4.71E+00,2.51541,13.97136,0.3306,-8.43676,4.79101,1.42749,10.12497,9.83879,-0.70995,1.19287,-0.75821,-0.58038,2843,14.276,-30.502,40.346,240.573,-29.245,80.397,2,50.1731,19.300053,72.86199,-145.161,0,2.844,24.467743,9.2,13 / 36,6203,2018-09-02 17:22:48:044
9.60E-01,8.60E+00,2.75E+00,1.5338,8.91481,0.79637,-8.80958,4.23779,0.77647,9.554,6.11651,-0.30739,1.44055,0.45619,-0.99478,1881,17.589,-24.252,46.283,251.455,-26.905,83.682,2,50.1731,19.300053,72.86199,-145.161,0,2.844,24.467743,9.2,13 / 36,6303,2018-09-02 17:22:48:144
-1.89E+00,3.51E+00,1.98E+00,-0.49599,4.0089,-1.87219,-9.03287,3.80612,0.30169,7.38651,0.80919,-2.19698,0.94786,-0.03809,-0.37,1255,20.901,-16.502,48.907,258.46,-23.363,87.696,2,54.5471,19.300053,72.86199,-145.161,0,2.844,24.467743,9.2,13 / 36,6403,2018-09-02 17:22:48:244
2.07E-01,4.38E+00,2.88E+00,-0.92812,5.1568,0.24352,-9.00438,3.87985,0.19569,6.60178,1.91229,0.07987,1.38142,0.15259,0.00391,1046,20.901,-13.565,49.721,264.806,-22.99,87.743,2,54.5471,19.300053,72.86199,-145.161,0,2.844,24.467743,9.2,13 / 36,6503,2018-09-02 17:22:48:344
-5.09E+00,2.52E+00,3.54E+00,-2.14046,3.73779,-5.12546,-8.9479,4.0129,-0.04628,5.28635,0.40706,-5.08704,0.1846,-0.97073,0.20311,957,21.651,-9.502,48.907,270.072,-23.913,90.825,2,54.5471,19.300053,72.86199,-145.161,0,2.844,24.467743,9.2,13 / 36,6603,2018-09-02 17:22:48:444
-5.35E-01,-1.39E+00,4.90E+00,-5.04106,0.86827,-0.20932,-8.71189,4.40038,0.95391,2.12803,-2.75283,-0.9943,-2.95633,-0.56752,1.19168,773,22.026,-15.752,47.658,264.758,-25.651,86.288,2,54.5471,19.300053,72.86199,-145.161,0,2.844,24.467743,9.2,13 / 36,6703,2018-09-02 17:22:48:544
1.07E+01,8.04E+00,5.61E+00,4.05811,9.80176,9.8931,-7.45481,5.55866,3.11407,10.07082,5.218,7.26316,-3.01865,-0.30228,2.55415,885,14.651,-32.751,33.533,234.227,-34.529,67.328,2,50.6494,19.300053,72.86199,-145.161,0,2.844,24.467743,9.2,13 / 36,6803,2018-09-02 17:22:48:644
1.07E+01,1.02E+01,5.36E+00,7.60179,11.43778,7.73529,-6.30722,5.44319,5.1731,13.23376,7.62799,2.87284,-3.42612,-0.51532,0.03534,1201,9.464,-39.752,28.471,218.175,-35.783,54.174,2,50.6494,19.300053,72.86199,-145.161,0,2.844,24.467743,9.2,13 / 36,6902,2018-09-02 17:22:48:743
9.88E+00,4.58E+00,8.95E+00,2.9843,6.64436,12.06166,-5.94702,2.41866,7.41306,9.67925,5.15972,5.23053,-3.0325,-1.06075,-1.73779,1201,10.963,-41.939,10.909,200.609,-14.278,38.738,2,50.6494,19.300058,72.86199,-141.935,0,1.512,24.467743,8.5,13 / 35,7003,2018-09-02 17:22:48:844
6.37E+00,5.13E+00,4.09E+00,3.90285,5.53528,6.14229,-3.71403,0.77723,9.0428,6.91358,4.90523,-1.18815,-1.3089,-3.77504,-0.24429,1928,11.713,-41.252,4.095,199.912,-6.078,28.607,2,60.6992,19.300058,72.86199,-141.935,0,1.512,24.467743,8.5,13 / 35,7103,2018-09-02 17:22:48:944
6.02E+00,5.00E+00,9.88E+00,4.64424,4.33041,10.88945,-0.42217,-1.20067,9.72371,5.1129,5.37563,2.55853,-1.9209,-2.493,-1.61955,2296,12.776,-36.064,-3.154,194.266,3.847,7.443,2,60.6992,19.300058,72.86199,-141.935,0,1.512,24.467743,8.5,13 / 35,7202,2018-09-02 17:22:49:043
1.65E+00,7.46E+00,7.21E+00,3.53314,5.56235,8.18344,2.69414,-2.49299,9.09379,1.34621,7.58601,0.80165,-1.65298,-3.31218,-1.59612,1994,11.339,-32.002,-11.717,198.941,13.579,-12.68,2,60.6992,19.300058,72.86199,-141.935,0,1.512,24.467743,8.5,13 / 35,7303,2018-09-02 17:22:49:144
1.30E+00,7.98E+00,8.07E+00,5.7052,4.99721,8.54289,4.89889,-3.16419,7.88411,3.20239,7.73208,2.34826,-2.26231,-0.27138,-4.06273,1847,10.213,-23.126,-20.654,206.225,18.554,-26.479,2,63.5938,19.300058,72.86199,-141.935,0,1.512,24.467743,8.5,13 / 35,7403,2018-09-02 17:22:49:244
-3.48E+00,4.61E+00,4.84E+00,1.32704,3.43716,6.57245,6.48786,-2.15426,7.03116,-3.50753,5.6151,2.3993,-0.76189,-1.87886,-3.19455,1819,15.025,-15.002,-25.342,234.88,12.69,-42.699,2,63.5938,19.300058,72.86199,-141.935,0,1.512,24.467743,8.5,13 / 35,7502,2018-09-02 17:22:49:343
-3.39E+00,4.29E+00,6.10E+00,3.14072,3.49069,6.70898,8.12176,-0.60202,5.46306,-4.92029,4.98442,1.70853,-0.9483,-1.34731,-2.51598,1978,11.339,-11.314,-27.092,247.048,7.215,-52.28,2,63.5938,19.300058,72.86199,-141.935,0,1.512,24.467743,8.5,13 / 35,7603,2018-09-02 17:22:49:444
-6.16E+00,1.08E+01,-8.01E-02,-3.56592,10.80589,5.03629,8.32788,0.26515,5.1717,-10.40572,10.28001,0.32067,-2.06737,-0.05887,-0.95963,1763,9.088,-5.814,-31.779,259.796,-1.549,-58.159,2,61.1804,19.300058,72.86199,-141.935,0,1.512,24.467743,8.5,13 / 35,7703,2018-09-02 17:22:49:544
-7.51E+00,8.32E+00,3.82E+00,-1.5988,8.3965,8.19356,7.83888,0.20265,5.88908,-7.96637,8.52792,4.46849,1.75214,1.01386,1.55388,2382,9.464,-2.127,-30.904,266.657,-1.184,-53.084,2,61.1804,19.300058,72.86199,-141.935,0,1.512,24.467743,8.5,13 / 35,7803,2018-09-02 17:22:49:644
-6.84E+00,7.09E+00,4.14E+00,-1.53226,7.15413,7.79477,7.13416,0.16561,6.72657,-7.07848,6.95222,2.92102,1.57051,1.01653,1.44894,2382,11.339,-8.752,-26.654,252.157,-0.891,-48.362,2,61.1804,19.300058,72.86199,-141.935,0,1.512,24.467743,8.5,13 / 35,7903,2018-09-02 17:22:49:744
-1.83E-01,6.16E+00,8.10E+00,5.29923,6.71419,5.51663,6.97331,0.82764,6.84532,-0.57371,6.02175,0.77307,2.16547,-0.38057,0.39061,2434,10.963,-15.752,-24.092,238.278,-4.037,-45.219,2,61.1804,19.300055,72.86199,-145.161,0,0,19.574194,,Dec-34,8003,2018-09-02 17:22:49:844
-2.40E+00,5.38E+00,4.59E+00,-0.08165,6.27635,4.04982,5.13739,2.35478,8.01452,-4.11829,4.42612,-2.24749,0.20432,2.24051,-1.30264,2108,18.713,-15.065,-21.092,244.761,-12.958,-35.155,2,61.408,19.300055,72.86199,-145.161,0,0,19.574194,,Dec-34,8102,2018-09-02 17:22:49:943
-1.35E+00,7.01E+00,5.67E+00,0.23135,8.35239,3.65201,3.52798,3.01112,8.64042,-2.53689,5.94098,-3.41531,0.62828,2.02107,0.72563,1749,25.713,-15.065,-15.092,247.307,-16.795,-25.306,2,61.408,19.300055,72.86199,-145.161,0,0,19.574194,,Dec-34,8203,2018-09-02 17:22:50:044
2.80E+00,5.84E+00,7.03E+00,4.24585,7.87715,3.364,3.15617,3.42465,8.63022,1.89281,5.11769,-3.65974,0.7428,0.97604,1.25346,1658,26.088,-19.44,-12.529,239.801,-19.843,-20.457,2,61.408,19.300055,72.86199,-145.161,0,0,19.574194,,Dec-34,8303,2018-09-02 17:22:50:144
1.34E-01,3.51E+00,6.66E+00,1.4624,5.57423,4.84563,2.00724,3.26004,9.02849,0.09656,2.96132,-2.2056,-0.04283,1.41547,0.89447,1612,29.776,-20.189,-9.154,235.761,-19.944,-15.277,2,66.0193,19.300055,72.86199,-145.161,0,0,19.574194,,Dec-34,8402,2018-09-02 17:22:50:243
1.70E-01,6.41E+00,1.05E+01,1.64958,9.21497,7.99435,1.89313,2.52215,9.28575,0.18845,7.26835,0.82752,-1.98534,-1.17099,0.92163,1630,27.901,-21.689,-9.154,236.963,-17.073,-10.469,2,66.0193,19.300055,72.86199,-145.161,0,0,19.574194,,Dec-34,8503,2018-09-02 17:22:50:344
4.12E+00,5.42E+00,9.09E+00,6.23688,7.19446,6.189,2.84289,2.04214,9.16068,4.53797,6.10313,-1.33362,-0.98506,-0.38803,-0.28052,1718,24.213,-21.315,-12.529,234.025,-12.019,-17.241,2,66.0193,19.300055,72.86199,-145.161,0,0,19.574194,,Dec-34,8603,2018-09-02 17:22:50:444
2.74E+00,5.18E+00,7.07E+00,4.61755,6.36819,4.74034,3.52454,1.78696,8.97523,1.87303,4.97671,-2.24858,-0.40396,-1.68498,-1.27228,1718,23.901,-18.376,-15.529,239.555,-10.378,-19.781,2,60.7403,19.300055,72.86199,-145.161,0,0,19.574194,,Dec-34,8703,2018-09-02 17:22:50:544
-2.06E+00,3.95E+00,8.06E+00,1.11327,5.31393,7.43573,3.9949,1.73712,8.78599,-1.83612,3.96142,0.74098,-0.93712,-1.20721,-2.40572,1659,19.838,-8.752,-24.092,257.082,-10.203,-24.451,2,60.7403,19.300055,72.86199,-145.161,0,0,19.574194,,Dec-34,8803,2018-09-02 17:22:50:644
-4.07E+00,5.04E+00,6.63E+00,-0.91728,6.21855,6.81358,4.77236,1.90889,8.35171,-4.63036,4.73336,0.31564,-1.01436,-1.39311,-1.94232,1687,20.151,-2.127,-23.216,261.454,-11.044,-28.585,2,60.7403,19.300055,72.86199,-145.161,0,0,19.574194,,Dec-34,8903,2018-09-02 17:22:50:744
-4.95E+00,5.37E+00,5.72E+00,-1.38852,6.50691,6.46312,5.88636,2.28669,7.50281,-5.79846,4.66987,0.16044,-0.39064,-1.82082,-1.02248,1887,12.463,2.31,-26.216,278.178,-12.893,-36.366,2,63.5408,19.300055,72.862,-151.613,0,2.52,19.574194,8.8,13 / 36,9003,2018-09-02 17:22:50:844
-4.21E+00,6.11E+00,4.46E+00,-0.94537,7.10924,4.85153,6.92482,2.71991,6.389,-7.47038,5.16337,0.2282,-0.08597,-1.75797,-0.11008,2328,3.963,2.31,-27.092,284.879,-16.102,-47.305,2,63.5408,19.300055,72.862,-151.613,0,2.52,19.574194,8.8,13 / 36,9103,2018-09-02 17:22:50:944
-3.26E+00,6.94E+00,7.90E+00,3.19736,8.85699,5.69031,8.09662,2.72561,4.8152,-6.44268,5.95024,2.31615,0.46158,-2.06209,0.61963,2631,-4.536,3.061,-25.342,283.098,-16.137,-59.259,2,63.5408,19.300055,72.862,-151.613,0,2.52,19.574194,8.8,13 / 36,9203,2018-09-02 17:22:51:044
-6.58E+00,6.24E+00,6.77E+00,1.31256,7.93059,7.97249,8.43239,2.82421,4.13389,-0.77879,6.45518,1.30881,-0.29742,0.80347,-0.80835,2643,-7.474,3.436,-26.216,289.596,-16.738,-63.884,2,63.5408,19.300055,72.862,-151.613,0,2.52,19.574194,8.8,13 / 36,9303,2018-09-02 17:22:51:144
-6.06E+00,7.65E+00,6.55E+00,1.21201,9.32623,7.04558,8.60768,3.09649,3.53411,-9.15595,6.98194,4.23428,1.98064,-0.32784,1.21512,2116,-7.849,1.936,-25.342,289.801,-18.406,-67.678,2,66.9365,19.300055,72.862,-151.613,0,2.52,19.574194,8.8,13 / 36,9403,2018-09-02 17:22:51:244
-6.15E+00,7.58E+00,5.64E+00,0.46809,8.98734,6.79242,8.47984,3.27175,3.68216,-4.63928,7.17057,2.96778,0.13933,0.91533,0.20738,764,-6.036,-1.003,-25.78,281.897,-18.721,-68.619,2,66.9365,19.300055,72.862,-151.613,0,2.52,19.574194,8.8,13 / 36,9503,2018-09-02 17:22:51:344
-2.81E+00,6.49E+00,4.32E+00,0.16505,7.59384,3.30293,7.84269,3.48756,4.74337,-3.76889,4.73462,-2.47032,-0.76401,2.4003,-0.24696,764,-2.661,-0.627,-27.467,281.784,-20.654,-60.918,2,66.9365,19.300055,72.862,-151.613,0,2.52,19.574194,8.8,13 / 36,9603,2018-09-02 17:22:51:444
-2.01E+00,4.79E+00,3.80E+00,-0.02852,5.83145,2.71301,6.25223,3.43818,6.72748,-4.75552,3.08509,-2.19511,-0.54031,2.24158,0.0316,777,7.651,1.936,-25.78,283.982,-21.05,-47.2,2,70.5318,19.300055,72.862,-151.613,0,2.52,19.574194,8.8,13 / 36,9702,2018-09-02 17:22:51:543
-4.52E+00,4.29E+00,6.57E+00,-0.85251,6.08403,6.65526,5.36462,2.98073,7.64895,-5.38925,3.62655,0.53134,-0.16428,0.2016,1.47664,960,14.651,3.436,-32.591,285.144,-17.695,-35.044,2,70.5318,19.300055,72.862,-151.613,0,2.52,19.574194,8.8,13 / 36,9803,2018-09-02 17:22:51:644
-2.56E+00,4.23E+00,8.29E+00,1.88934,5.95728,7.35101,4.9947,1.62385,8.2817,-1.91886,4.71917,1.03664,-0.81567,1.14915,1.11018,1005,19.463,4.498,-25.78,284.146,-12.787,-34.102,2,70.5318,19.300055,72.862,-151.613,0,2.52,19.574194,8.8,13 / 36,9903,2018-09-02 17:22:51:744
-8.06E-01,5.06E+00,8.01E+00,2.73644,5.55083,7.21989,4.27355,0.10407,8.82589,-0.42151,5.44529,0.92533,-1.41756,0.00879,1.03722,1218,21.275,8.186,-23.216,286.46,-3.578,-26.749,2,72.5702,19.300058,72.862,-154.839,0,2.844,19.574194,8.8,14 / 34,10003,2018-09-02 17:22:51:844
-2.53E+00,7.24E+00,8.61E+00,1.39215,6.46768,9.44273,3.73085,-0.95635,9.01868,-1.88397,7.28786,2.42571,-0.00502,0.62717,0.69261,1217,24.588,11.186,-22.78,287.133,4.984,-23.78,2,72.5702,19.300058,72.862,-154.839,0,2.844,19.574194,8.8,14 / 34,10103,2018-09-02 17:22:51:944
-4.14E+00,6.37E+00,1.18E+01,0.55681,5.11595,13.01273,3.27232,-1.17421,9.16971,-1.67004,6.73424,5.1814,-0.74059,0.87325,0.66118,1418,27.901,12.248,-19.342,287.596,5.951,-20.996,2,72.5702,19.300058,72.862,-154.839,0,2.844,19.574194,8.8,14 / 34,10203,2018-09-02 17:22:52:044
-2.57E+00,3.36E+00,1.11E+01,0.68037,1.47687,11.79689,2.44145,-1.63696,9.35575,-0.87851,3.20397,4.59153,0.41045,0.42636,1.62578,1537,30.525,10.06,-18.529,285.126,9.504,-15.882,2,72.1372,19.300058,72.862,-154.839,0,2.844,19.574194,8.8,14 / 34,10303,2018-09-02 17:22:52:144
3.88E-01,3.05E+00,8.33E+00,2.25945,2.38124,8.25221,2.15089,-0.77007,9.53683,0.58788,3.03824,0.75672,1.11032,-0.0498,0.65266,1537,34.213,1.936,-17.216,271.985,4.504,-12.71,2,72.1372,19.300058,72.862,-154.839,0,2.844,19.574194,8.8,14 / 34,10403,2018-09-02 17:22:52:244
1.67E+00,3.53E+00,8.86E+00,3.62349,2.96834,8.47403,2.46707,0.25649,9.48779,1.18456,2.32412,3.04504,2.53085,-1.38991,0.76237,1711,30.901,-1.376,-18.967,272.174,3.598,-12.685,2,72.1372,19.300058,72.862,-154.839,0,2.844,19.574194,8.8,14 / 34,10503,2018-09-02 17:22:52:344
4.76E+00,3.06E+00,7.83E+00,7.35551,4.18776,4.64626,4.5954,1.74817,8.48508,3.77276,2.65777,-1.84052,1.65308,-2.01895,0.86092,1628,26.463,-11.69,-21.967,260.64,-8.557,-24.568,2,72.1372,19.300058,72.862,-154.839,0,2.844,19.574194,8.8,14 / 34,10602,2018-09-02 17:22:52:443
3.02E+00,3.16E+00,9.10E+00,6.84517,5.00366,5.48456,5.06838,2.51422,8.01003,2.90062,3.04693,-0.74939,0.92549,-0.20641,-0.16121,1392,22.775,-16.876,-21.092,246.749,-12.165,-31.15,2,67.1185,19.300058,72.862,-154.839,0,2.844,19.574194,8.8,14 / 34,10703,2018-09-02 17:22:52:544
2.57E+00,4.14E+00,5.98E+00,4.52002,5.84326,2.2242,5.07722,3.21171,7.75095,1.03297,3.21314,-4.05721,-0.13071,-0.21706,-0.72899,1267,23.151,-16.127,-27.092,246.148,-18.724,-33.133,2,67.1185,19.300058,72.862,-154.839,0,2.844,19.574194,8.8,14 / 34,10803,2018-09-02 17:22:52:644
1.93E+00,4.95E+00,6.39E+00,3.97871,6.83771,2.52975,5.23125,3.46618,7.53591,-0.19991,4.0063,-3.12618,-0.03751,-0.69643,-0.27573,1369,24.963,-15.002,-22.78,246.435,-20.073,-33.393,2,67.1185,19.300058,72.862,-154.839,0,2.844,19.574194,8.8,14 / 34,10903,2018-09-02 17:22:52:744
2.00E+00,5.33E+00,8.02E+00,5.10709,7.76559,3.20491,5.73937,3.37643,7.19929,0.59762,5.14073,-2.47491,-0.84657,-1.0144,-0.6933,1449,22.775,-13.19,-24.904,252.769,-20.139,-38.562,2,61.6182,19.300062,72.86201,-158.065,0,2.88,19.574194,335.2,14 / 34,11003,2018-09-02 17:22:52:844
2.65E+00,4.55E+00,9.71E+00,7.20248,7.36685,3.97917,6.26787,3.08022,6.88451,2.21049,5.15114,-1.2712,-1.42821,-1.05595,-1.00436,1133,20.526,-9.502,-28.78,258.394,-18.306,-42.316,2,61.6182,19.300062,72.86201,-158.065,0,2.88,19.574194,335.2,14 / 34,11103,2018-09-02 17:22:52:944
-2.26E+00,3.52E+00,1.06E+01,4.52837,6.40646,8.31905,6.33802,2.7944,6.94199,-0.67566,4.18379,2.06381,-1.26309,-1.98752,-0.80782,803,16.151,2.31,-33.905,279.795,-16.556,-42.396,2,61.6182,19.300062,72.86201,-158.065,0,2.88,19.574194,335.2,14 / 34,11203,2018-09-02 17:22:53:044
-1.73E+00,4.44E+00,1.05E+01,5.71625,7.06491,7.09584,7.50771,2.66262,5.71972,0.20013,5.03145,2.85701,-1.28918,-1.55023,-1.21262,803,9.088,10.435,-38.155,291.887,-15.377,-49.812,2,72.6447,19.300062,72.86201,-158.065,0,2.88,19.574194,335.2,14 / 34,11303,2018-09-02 17:22:53:144
-2.87E+00,3.88E+00,7.53E+00,3.21265,5.91602,5.88791,7.48244,3.13087,5.51191,-2.05113,3.53815,1.84562,-0.60742,-0.24049,-1.38838,412,0.276,16.31,-38.593,303.377,-17.011,-53.933,2,72.6447,19.300062,72.86201,-158.065,0,2.88,19.574194,335.2,14 / 34,11402,2018-09-02 17:22:53:243
-2.87E+00,3.68E+00,7.18E+00,2.60919,6.02429,5.49388,7.40449,3.73504,5.23387,-3.22142,3.08316,1.37251,0.03653,-0.66553,-0.45842,420,-2.35,18.561,-40.216,309.093,-21.185,-53.557,2,72.6447,19.300062,72.86201,-158.065,0,2.88,19.574194,335.2,14 / 34,11503,2018-09-02 17:22:53:344
-2.37E+00,4.20E+00,7.82E+00,2.98428,7.09522,5.00864,7.22125,4.17666,5.15552,-2.74578,3.81893,0.91283,0.17288,0.35446,-0.42166,507,-3.036,15.561,-40.654,312.592,-24.874,-54.722,2,70.6634,19.300062,72.86201,-158.065,0,2.88,19.574194,335.2,14 / 34,11603,2018-09-02 17:22:53:444
-3.51E+00,3.85E+00,7.16E+00,1.44698,6.68617,5.62309,6.58402,4.63502,5.59801,-3.74371,3.39206,0.81725,0.33693,0.73422,-0.2981,733,-0.85,16.31,-44.467,311.629,-27.068,-51.608,2,70.6634,19.300062,72.86201,-158.065,0,2.88,19.574194,335.2,14 / 34,11703,2018-09-02 17:22:53:544
-2.81E+00,4.61E+00,6.93E+00,0.67188,7.49779,4.53206,6.07378,4.97494,5.87619,-4.09324,3.3712,-0.46125,-0.08064,0.4791,0.27875,772,1.714,13.748,-46.654,308.189,-30.607,-46.342,2,70.6634,19.300062,72.86201,-158.065,0,2.88,19.574194,335.2,14 / 34,11803,2018-09-02 17:22:53:644
-1.03E+00,5.16E+00,1.06E+01,4.3053,9.6618,5.38174,6.34006,4.67792,5.83876,-0.86808,5.70963,1.67126,-0.17758,0.23622,0.25584,821,4.338,14.499,-40.654,306.497,-28.919,-47.262,2,70.6634,19.300062,72.86201,-158.065,0,2.88,19.574194,335.2,14 / 34,11903,2018-09-02 17:22:53:744
-4.68E+00,5.19E+00,7.75E+00,-0.47372,8.16872,6.47594,5.70882,4.48106,6.59544,-4.08149,4.78115,0.25284,-0.80876,0.58722,-0.35667,831,6.902,18.561,-39.029,311.912,-27.361,-41.918,2,67.2669,19.300068,72.86201,-158.065,0,3.492,19.574194,334.8,13 / 34,12003,2018-09-02 17:22:53:844
-8.43E-01,3.11E+00,7.06E+00,2.63994,5.92163,4.26065,6.02267,4.30483,6.43167,-2.89837,2.69084,-0.98162,0.59207,-1.17685,1.24442,831,8.713,18.874,-38.593,312.867,-26.36,-41.465,2,67.2669,19.300068,72.86201,-158.065,0,3.492,19.574194,334.8,13 / 34,12102,2018-09-02 17:22:53:943
3.31E+00,3.51E-01,7.59E+00,7.39903,3.34534,1.66254,7.40191,3.65291,5.29512,1.64863,0.23723,-2.40652,0.3103,-1.21947,1.72537,980,3.214,16.685,-37.717,305.542,-23.466,-51.471,2,67.2669,19.300068,72.86201,-158.065,0,3.492,19.574194,334.8,13 / 34,12203,2018-09-02 17:22:54:044
-2.31E+00,3.21E+00,1.22E+01,8.45934,6.33661,7.28444,8.42288,2.38426,4.42049,1.95157,3.28679,2.8306,0.14944,-0.69482,1.21086,1028,-0.099,17.81,-38.593,302.521,-15.372,-61.22,2,71.0541,19.300068,72.86201,-158.065,0,3.492,19.574194,334.8,13 / 34,12303,2018-09-02 17:22:54:144
-2.25E+00,5.30E+00,9.18E+00,6.00113,7.08598,5.58176,8.48705,2.09346,4.44498,0.01577,5.60984,1.08722,-0.17651,0.66286,-0.48824,1292,-0.85,18.185,-39.404,301.398,-11.977,-63.021,2,71.0541,19.300068,72.86201,-158.065,0,3.492,19.574194,334.8,13 / 34,12403,2018-09-02 17:22:54:244
7.03E-01,3.68E+00,7.90E+00,6.26085,5.47629,2.68103,8.16589,2.92358,4.57616,-0.25207,3.14451,-0.96881,0.60698,-0.04767,-0.7551,1878,-1.224,17.061,-38.593,303.535,-13.977,-60.891,2,71.0541,19.300068,72.86201,-158.065,0,3.492,19.574194,334.8,13 / 34,12503,2018-09-02 17:22:54:344
1.78E+00,2.13E+00,6.11E+00,5.26396,4.08809,0.77245,8.44822,3.28324,3.74411,-2.0212,1.55492,-1.2934,0.91591,-1.50229,0.88489,1900,-0.85,14.124,-40.216,299.625,-19.932,-62.117,2,65.6998,19.300068,72.86201,-158.065,0,3.492,19.574194,334.8,13 / 34,12603,2018-09-02 17:22:54:444
5.95E-01,4.92E+00,9.01E+00,7.06201,7.31291,1.54543,8.97406,2.83692,2.75472,-0.5805,2.95892,-0.9225,-0.38158,-0.26765,0.20738,1880,-11.162,12.997,-40.654,295.303,-16.815,-72.935,2,65.6998,19.300068,72.86201,-158.065,0,3.492,19.574194,334.8,13 / 34,12703,2018-09-02 17:22:54:544
-2.91E-01,5.20E+00,8.63E+00,6.42241,7.41623,2.32541,8.97765,2.75608,2.82423,-0.97801,5.46514,0.35341,-0.31128,-0.09721,0.06517,1467,-11.911,14.873,-41.53,300.121,-16.322,-72.537,2,65.6998,19.300068,72.86201,-158.065,0,3.492,19.574194,334.8,13 / 34,12803,2018-09-02 17:22:54:644
4.67E-01,3.00E+00,8.11E+00,6.53482,5.31453,2.01765,8.72075,2.97139,3.36002,-0.47762,2.86467,-1.66233,-1.65457,0.08069,-0.59583,699,-10.411,19.247,-40.216,306.863,-17.638,-68.929,2,66.7876,19.300068,72.86201,-158.065,0,3.492,19.574194,334.8,13 / 34,12903,2018-09-02 17:22:54:744
-4.61E-01,1.84E+00,1.10E+01,9.03758,5.19547,4.0112,8.67954,3.0705,3.37757,2.26331,2.89354,1.31685,-1.08147,0.38376,-0.67253,689,-17.099,24.811,-40.654,316.152,-18.246,-68.737,2,66.7876,19.300077,72.86201,-158.065,0,3.528,19.574194,335,13 / 34,13003,2018-09-02 17:22:54:844
-2.87E+00,1.95E+00,9.30E+00,6.36319,4.80217,5.90324,8.53717,3.07517,3.71893,-0.48248,2.37637,2.67225,-0.217,-0.31985,0.05878,689,-18.161,27.373,-40.654,319.891,-18.551,-66.423,2,66.7876,19.300077,72.86201,-158.065,0,3.528,19.574194,335,13 / 34,13102,2018-09-02 17:22:54:943
-2.03E+00,2.55E+00,8.76E+00,6.06775,5.17819,4.88083,8.49785,3.08804,3.7975,-0.59073,2.73729,2.29621,-0.27452,-0.11691,-0.09995,831,-16.724,26.999,-40.216,321.433,-18.329,-66.334,2,64.2986,19.300077,72.86201,-158.065,0,3.528,19.574194,335,13 / 34,13203,2018-09-02 17:22:55:044
-1.79E+00,3.20E+00,7.15E+00,4.39072,5.37996,4.04852,8.30564,3.29681,4.03953,-2.3041,2.72254,0.79243,-0.19409,0.21651,-0.22511,842,-20.036,27.373,-40.654,323.954,-19.224,-64.775,2,64.2986,19.300077,72.86201,-158.065,0,3.528,19.574194,335,13 / 34,13303,2018-09-02 17:22:55:144
-2.44E+00,4.12E+00,7.91E+00,4.1627,6.60696,4.96213,8.12121,3.40326,4.31672,-2.33423,3.93735,1.40894,0.00191,0.05511,0.08966,809,-19.661,26.999,-42.342,323.987,-20.257,-62.161,2,64.2986,19.300077,72.86201,-158.065,0,3.528,19.574194,335,13 / 34,13402,2018-09-02 17:22:55:243
-3.22E+00,4.34E+00,9.73E+00,5.08725,7.43086,6.54007,7.97454,3.35971,4.61405,-1.35065,4.71854,2.81511,-0.03697,0.46205,0.07901,801,-17.787,28.873,-41.092,322.934,-20.162,-60.757,2,64.2986,19.300077,72.86201,-158.065,0,3.528,19.574194,335,13 / 34,13503,2018-09-02 17:22:55:344
-8.94E-01,3.33E+00,8.55E+00,5.4025,6.07954,4.33885,7.85397,3.39757,4.78979,-0.9565,3.32869,0.46078,0.183,0.12703,0.20685,827,-14.099,27.748,-44.467,321.674,-20.214,-58.644,2,60.6504,19.300077,72.86201,-158.065,0,3.528,19.574194,335,13 / 34,13603,2018-09-02 17:22:55:444
-2.57E+00,2.46E+00,8.44E+00,4.67802,5.13019,5.97314,7.87207,3.1495,4.92764,-1.69918,2.57876,1.98124,-0.47214,-0.22078,0.33148,832,-15.974,30.31,-44.092,322.707,-19.458,-57.9,2,60.6504,19.300077,72.86201,-158.065,0,3.528,19.574194,335,13 / 34,13703,2018-09-02 17:22:55:544
-2.05E+00,1.11E+00,9.94E+00,6.90166,3.5172,6.65569,8.09341,2.4122,4.98481,0.22262,1.71907,2.34311,-2.01091,-0.06631,-0.05734,832,-20.412,38.811,-47.029,328.428,-14.24,-58.371,2,60.6504,19.300077,72.86201,-158.065,0,3.528,19.574194,335,13 / 34,13803,2018-09-02 17:22:55:644
-5.96E+00,1.94E+00,1.51E+01,8.92139,4.67954,12.86594,8.19733,1.53806,5.15835,2.73603,3.54718,9.31826,-1.40105,-0.79123,-0.02591,910,-19.661,47.311,-37.279,330.581,-10.581,-57.103,2,65.8305,19.300077,72.86201,-158.065,0,3.528,19.574194,335,13 / 34,13902,2018-09-02 17:22:55:743
6.42E-01,1.68E+00,1.28E+01,10.98109,3.7562,5.62738,8.50633,2.288,4.3102,4.89736,2.03692,2.01303,-0.65535,-0.91321,-2.04459,994,-27.037,43.999,-32.591,338.931,-9.445,-59.886,2,65.8305,19.300081,72.862,-158.065,0,2.34,19.574194,335.1,Oct-33,14003,2018-09-02 17:22:55:844
-3.14E+00,6.00E-01,7.04E+00,4.41663,3.12247,5.52615,8.20013,3.91526,3.6877,-2.48997,-0.23148,2.06861,0.15851,-1.00908,-2.035,1108,-39.224,35.498,-26.654,348.238,-21.348,-64.977,2,65.8305,19.300081,72.862,-158.065,0,2.34,19.574194,335.1,Oct-33,14103,2018-09-02 17:22:55:944
-1.39E+00,6.32E-01,2.82E+00,1.47633,1.90459,2.11798,7.68898,5.34672,2.90906,-4.88696,-2.45371,-0.31392,0.04185,-0.81946,-1.42461,982,-46.599,24.435,-23.654,354.699,-28.588,-67.507,2,67.2363,19.300081,72.862,-158.065,0,2.34,19.574194,335.1,Oct-33,14203,2018-09-02 17:22:56:044
-3.81E+00,2.14E+00,9.84E+00,4.78931,7.65222,5.87798,7.31518,5.92221,2.75426,-5.03482,0.26249,1.78013,-0.78159,-0.08656,-0.74071,1219,-49.911,22.249,-19.405,357.853,-37.15,-69.368,2,67.2363,19.300081,72.862,-158.065,0,2.34,19.574194,335.1,Oct-33,14303,2018-09-02 17:22:56:144
-2.98E+00,3.99E+00,8.51E+00,2.06195,8.60016,4.3643,6.44436,6.52639,3.47086,-1.70437,3.70167,3.51751,-0.29263,0.28256,-0.33058,1272,-52.1,17.436,-21.092,5.202,-41.066,-63.396,2,67.2363,19.300081,72.862,-158.065,0,2.34,19.574194,335.1,Oct-33,14403,2018-09-02 17:22:56:244
-1.30E+00,1.25E+00,1.10E+01,5.72588,8.65344,4.05504,6.30908,6.92999,2.88812,0.48942,2.84041,1.8181,0.27835,-0.47218,-0.35509,1463,-51.787,13.748,-23.216,0.836,-44.964,-65.403,2,61.2979,19.300081,72.862,-158.065,0,2.34,19.574194,335.1,Oct-33,14502,2018-09-02 17:22:56:343
-1.67E+00,7.04E-01,1.09E+01,5.99426,8.30933,4.09108,6.36591,7.04644,2.44812,0.91191,2.90217,3.09603,0.45412,0.31026,0.1147,1612,-55.475,10.811,-19.405,2.326,-45.934,-68.965,2,61.2979,19.300081,72.862,-158.065,0,2.34,19.574194,335.1,Oct-33,14602,2018-09-02 17:22:56:443
-1.27E+00,1.45E+00,8.70E+00,4.36368,7.18651,2.94519,6.67597,6.76995,2.402,-1.38478,1.65134,1.4573,0.56331,1.4682,0.60258,1887,-51.411,9.686,-22.78,354.929,-45.11,-69.963,2,61.2979,19.300081,72.862,-158.065,0,2.34,19.574194,335.1,Oct-33,14703,2018-09-02 17:22:56:544
-3.03E+00,1.55E+00,5.03E+00,1.05495,4.56215,3.86574,6.4644,6.68933,3.10398,-4.12215,-0.8204,1.23256,0.43228,1.63864,0.52483,1887,-44.037,8.936,-31.342,348.251,-43.01,-64.351,2,61.2979,19.300081,72.862,-158.065,0,2.34,19.574194,335.1,Oct-33,14802,2018-09-02 17:22:56:643
4.92E-01,5.47E-01,5.17E+00,3.44165,3.80827,0.95927,6.87072,6.37402,2.88713,-2.38309,-1.28915,-1.65374,0.89354,1.15607,0.79541,2095,-38.474,5.998,-37.717,335.274,-41.065,-66.509,2,62.1612,19.300081,72.862,-158.065,0,2.34,19.574194,335.1,Oct-33,14903,2018-09-02 17:22:56:744
-2.47E+00,3.46E+00,1.00E+01,4.11644,8.82964,4.80701,7.02983,5.84639,3.54563,-0.37985,4.84606,3.94072,-0.25694,0.17284,1.11232,2052,-32.912,7.123,-45.779,323.688,-37.468,-63.517,2,62.1612,19.300087,72.862,-158.065,0,2.664,14.680643,335.1,Dec-35,15003,2018-09-02 17:22:56:844
-9.35E-01,3.00E+00,1.28E+01,7.83664,9.51669,4.5943,7.4739,5.37019,3.38708,1.41784,4.92557,1.17468,0.73215,0.43701,0.438,1753,-32.224,6.747,-45.341,319.177,-33.282,-65.527,2,62.1612,19.300087,72.862,-158.065,0,2.664,14.680643,335.1,Dec-35,15103,2018-09-02 17:22:56:944
-5.55E-01,3.37E+00,7.51E+00,3.59195,6.94635,2.61711,7.08144,5.39898,4.10788,-2.12122,2.48808,-0.87698,-0.40182,1.15341,-0.09622,2051,-24.474,4.874,-47.467,313.716,-33.408,-61.096,2,61.7008,19.300087,72.862,-158.065,0,2.664,14.680643,335.1,Dec-35,15203,2018-09-02 17:22:57:044
-1.84E+00,2.59E+00,6.85E+00,2.56958,5.89618,3.96452,6.8228,5.25942,4.68597,-3.0944,1.53004,0.07444,0.71777,0.58722,0.80232,2107,-18.536,5.247,-47.467,312.21,-32.889,-55.907,2,61.7008,19.300087,72.862,-158.065,0,2.664,14.680643,335.1,Dec-35,15303,2018-09-02 17:22:57:144
-2.66E+00,6.65E-01,1.19E+01,6.64764,6.48509,7.98782,7.04476,4.7286,4.91752,0.77635,2.54415,3.88943,0.75879,0.05992,1.07397,2460,-11.162,1.186,-46.217,302.962,-29.657,-54.612,2,61.7008,19.300087,72.862,-158.065,0,2.664,14.680643,335.1,Dec-35,15403,2018-09-02 17:22:57:244
-1.93E+00,3.02E-01,1.03E+01,6.30585,4.93265,6.7861,7.20306,4.35522,5.03174,0.28436,1.29184,2.57975,0.66611,0.39174,0.95839,2460,-7.474,-1.003,-43.654,292.304,-26.888,-54.951,2,63.9869,19.300087,72.862,-158.065,0,2.664,14.680643,335.1,Dec-35,15503,2018-09-02 17:22:57:344
1.56E+00,3.93E-01,1.03E+01,8.84634,4.43802,3.3055,7.80055,3.87852,4.50322,2.38509,0.88357,-0.74181,0.21762,-0.24475,0.79274,2701,-9.724,-5.814,-39.78,281.115,-23.297,-60.002,2,63.9869,19.300087,72.862,-158.065,0,2.664,14.680643,335.1,Dec-35,15603,2018-09-02 17:22:57:444
-9.08E-01,1.16E+00,9.40E+00,6.78372,4.5218,4.91389,8.01507,3.54328,4.40162,0.05263,1.54614,1.21739,0.67889,-0.38324,0.58395,2883,-9.724,-5.44,-35.591,281.904,-21.443,-60.305,2,63.9869,19.300087,72.862,-158.065,0,2.664,14.680643,335.1,Dec-35,15703,2018-09-02 17:22:57:544
5.41E-01,1.72E+00,1.22E+01,10.17671,5.76103,4.0405,8.47056,3.27429,3.70122,2.05868,2.77884,1.34362,0.55692,-0.84396,0.50832,2593,-13.037,-5.064,-36.467,274.273,-19.759,-65.514,2,63.9869,19.300087,72.862,-158.065,0,2.664,14.680643,335.1,Dec-35,15802,2018-09-02 17:22:57:643
5.04E-02,2.32E+00,7.79E+00,6.00957,4.90486,2.43675,8.44779,3.47538,3.56749,-1.12584,1.96939,-0.57651,-0.42101,0.17976,-0.4435,2472,-11.911,-8.002,-30.029,274.281,-20.504,-67.483,2,65.1782,19.300087,72.862,-158.065,0,2.664,14.680643,335.1,Dec-35,15902,2018-09-02 17:22:57:743
1.27E+00,1.80E+00,6.89E+00,5.94127,3.98285,1.05507,8.61243,3.15228,3.47269,-1.50743,1.31773,-1.59268,-0.53392,-0.36938,0.59779,1941,-11.537,-5.814,-27.904,274.081,-19.341,-67.774,2,65.1782,19.300089,72.862,-158.065,0,1.26,14.680643,335.1,Nov-35,16003,2018-09-02 17:22:57:844
-1.13E+00,1.86E+00,8.76E+00,6.90176,3.97508,4.25398,8.70279,2.42961,3.81167,-0.2782,1.80391,-0.42742,-1.06761,0.29268,0.46411,1482,-12.662,1.561,-24.966,284.597,-14.344,-66.347,2,65.1782,19.300089,72.862,-158.065,0,1.26,14.680643,335.1,Nov-35,16103,2018-09-02 17:22:57:944
-1.21E+00,1.67E+00,1.10E+01,9.22722,3.74095,5.13355,8.90761,1.67255,3.74533,1.17066,1.62034,0.70974,-0.54723,0.03435,0.37675,1144,-13.037,4.123,-22.342,297.03,-11.004,-67.476,2,65.514,19.300089,72.862,-158.065,0,1.26,14.680643,335.1,Nov-35,16203,2018-09-02 17:22:58:044
-2.14E+00,2.89E+00,1.18E+01,9.6209,4.2348,6.38641,8.97169,1.14049,3.79188,1.74107,3.18903,3.35411,0.45305,-0.2831,0.43161,690,-13.411,6.747,-16.841,310.697,-6.678,-67.089,2,65.514,19.300089,72.862,-158.065,0,1.26,14.680643,335.1,Nov-35,16303,2018-09-02 17:22:58:144
-1.23E+00,2.73E+00,1.04E+01,8.7661,4.07904,4.93356,8.99206,1.29031,3.69436,0.87971,3.25018,-0.07723,1.02563,-0.27777,-0.13084,433,-13.037,8.936,-15.967,318.905,-7.561,-67.665,2,65.514,19.300089,72.862,-158.065,0,1.26,14.680643,335.1,Nov-35,16403,2018-09-02 17:22:58:244
-8.68E-01,2.69E+00,9.69E+00,8.09883,4.42773,4.07649,8.9247,2.03995,3.51551,0.25868,2.65348,1.00263,0.89301,0.09187,-0.48824,433,-14.474,8.936,-17.654,316.744,-10.602,-68.776,2,61.2292,19.300089,72.862,-158.065,0,1.26,14.680643,335.1,Nov-35,16503,2018-09-02 17:22:58:344
-1.99E+00,2.41E+00,7.80E+00,5.7954,4.18387,4.41641,8.79376,2.48997,3.5553,-1.65151,1.79653,1.11382,0.47276,0.2751,-0.03923,396,-13.411,9.311,-18.092,323.515,-13.636,-68.517,2,61.2292,19.300089,72.862,-158.065,0,1.26,14.680643,335.1,Nov-35,16603,2018-09-02 17:22:58:444
-7.84E-01,3.35E+00,9.80E+00,7.60548,5.80095,4.04434,8.68514,2.58844,3.74683,0.24175,3.40882,0.34488,0.03067,0.77098,0.15572,467,-13.786,7.811,-21.967,313.903,-15.205,-67.22,2,61.2292,19.300089,72.862,-158.065,0,1.26,14.680643,335.1,Nov-35,16703,2018-09-02 17:22:58:544
3.68E-01,2.22E+00,8.43E+00,6.98009,4.19881,3.13066,8.46938,2.2478,4.40312,-0.25943,2.41762,-0.83877,0.38594,0.66339,0.89767,597,-11.537,7.123,-24.904,307.868,-14.017,-63.086,2,60.0704,19.300089,72.862,-158.065,0,1.26,14.680643,335.1,Nov-35,16803,2018-09-02 17:22:58:644
-1.80E+00,1.73E+00,1.19E+01,8.5979,4.07347,7.55095,7.91263,1.71872,5.53233,2.36382,2.47828,3.33266,0.29326,1.16406,0.85187,824,-5.287,5.998,-30.029,294.205,-11.548,-57.739,2,60.0704,19.300089,72.862,-158.065,0,1.26,14.680643,335.1,Nov-35,16903,2018-09-02 17:22:58:744
2.09E+00,2.49E+00,1.06E+01,8.84486,4.68333,4.78299,6.95404,2.42695,6.4747,3.07159,2.63579,-1.15555,1.12897,1.98911,-0.64111,914,2.463,-1.376,-30.467,287.387,-12.247,-49.619,2,60.0704,19.300089,72.862,-158.065,0,1.26,14.680643,335.1,Nov-35,17003,2018-09-02 17:22:58:844
-4.38E-01,-7.13E-03,1.06E+01,6.10152,3.68776,7.81059,5.50291,3.89708,7.12048,1.22324,0.34548,2.19054,0.76997,1.38724,-1.79532,1007,10.588,-4.689,-28.342,273.291,-20.466,-40.53,2,60.0704,19.300089,72.862,-158.065,0,1.26,14.680643,335.1,Nov-35,17102,2018-09-02 17:22:58:943
7.42E-01,-1.75E+00,6.36E+00,2.76984,2.07697,5.65756,2.6979,5.44796,7.6949,0.31883,-2.27727,0.10648,0.67569,2.19577,-2.15538,1350,22.401,-4.689,-23.654,278.678,-33.748,-19.321,2,61.287,19.300089,72.862,-158.065,0,1.26,14.680643,335.1,Nov-35,17203,2018-09-02 17:22:59:044
3.47E+00,1.82E-01,5.76E+00,4.12289,3.65559,3.85526,0.67267,6.16045,7.60044,3.56176,-1.82245,-2.60365,0.39606,0.90733,-1.29997,1350,28.651,-3.627,-18.967,286.027,-37.583,-8.988,2,61.287,19.300089,72.862,-158.065,0,1.26,14.680643,335.1,Nov-35,17303,2018-09-02 17:22:59:144
4.37E-01,1.09E+00,8.36E+00,0.61441,6.14624,5.76065,-0.2084,6.15604,7.63087,1.40752,0.81616,-0.63129,-0.03751,-0.3273,-0.97932,2278,30.151,0.436,-16.841,288.825,-39.351,-1.759,2,61.287,19.300089,72.862,-158.065,0,1.26,14.680643,335.1,Nov-35,17403,2018-09-02 17:22:59:244
-5.94E-01,2.56E+00,9.37E+00,-0.64301,7.85053,5.72208,-0.02469,6.05231,7.71617,-0.62177,2.64465,-0.91496,-0.5957,-0.77844,-0.59903,2891,27.588,3.748,-18.967,293.862,-38.615,0.489,2,65.3287,19.300089,72.862,-158.065,0,1.26,14.680643,335.1,Nov-35,17503,2018-09-02 17:22:59:344
-1.92E+00,2.22E+00,9.95E+00,-1.77979,7.73686,6.67654,0.16592,5.89631,7.83431,-1.92187,2.75568,0.10924,0.20432,0.11371,0.01563,3117,25.713,4.874,-19.405,300.986,-36.815,-1.223,2,65.3287,19.300089,72.862,-158.065,0,1.26,14.680643,335.1,Nov-35,17603,2018-09-02 17:22:59:444
-2.65E+00,8.75E-01,1.29E+01,-2.69585,8.65762,9.65068,-0.03389,6.03657,7.72846,-3.89323,2.4981,-0.64925,1.0251,-0.4594,1.56558,3163,27.214,3.81,-18.092,300.269,-37.993,0.251,2,65.3287,19.300089,72.862,-158.065,0,1.26,14.680643,335.1,Nov-35,17702,2018-09-02 17:22:59:543
-5.27E-01,1.79E+00,1.26E+01,0.42093,9.68375,8.3284,0.83619,6.46837,7.32335,-0.11658,4.10441,2.15573,-0.48811,1.91934,0.69847,2956,27.588,0.061,-18.529,289.06,-41.269,-6.514,2,62.6699,19.300089,72.862,-158.065,0,1.26,14.680643,335.1,Nov-35,17803,2018-09-02 17:22:59:644
-3.12E+00,4.36E-01,1.12E+01,-2.84673,7.50388,8.46043,0.24799,6.26133,7.54352,-3.11908,2.12571,1.94818,0.40298,1.43997,1.67371,2490,32.713,-0.627,-12.529,281.56,-39.678,-1.883,2,62.6699,19.300089,72.862,-158.065,0,1.26,14.680643,335.1,Nov-35,17903,2018-09-02 17:22:59:744
-2.13E+00,-1.81E+00,9.12E+00,-1.36998,5.48325,7.6808,0.6673,7.21573,6.60745,-2.17458,-0.7921,2.03914,2.05681,0.88443,1.77864,2564,33.838,-8.002,-8.279,266.572,-47.375,-5.767,2,62.6699,19.300089,72.862,-158.065,0,1.26,14.680643,335.1,Nov-35,18003,2018-09-02 17:22:59:844
-5.59E-02,-7.95E-01,7.99E+00,0.71605,6.01973,5.26878,0.83173,7.9566,5.67196,-0.13227,-1.0248,0.70818,1.87997,1.44102,0.75012,2490,34.213,-16.127,-1.03,249.618,-54.228,-8.342,2,58.2601,19.300095,72.86199,-158.065,0,2.196,14.680643,307.8,Oct-35,18102,2018-09-02 17:22:59:943
5.13E-01,-9.40E-01,8.41E+00,1.12517,7.00902,4.6335,0.51973,8.7627,4.37211,0.67094,-0.64942,0.81236,1.27544,1.2301,0.06303,2490,34.964,-18.752,7.095,239.437,-62.305,-7.473,2,58.2601,19.300095,72.86199,-158.065,0,2.196,14.680643,307.8,Oct-35,18203,2018-09-02 17:23:00:044
1.50E+00,1.28E+00,8.19E+00,1.47955,8.03188,2.06386,-0.35565,8.99668,3.88635,1.8833,0.34903,-0.9054,-0.18877,1.20773,-0.56866,1977,37.901,-19.064,13.908,246.853,-66.833,0.685,2,58.2601,19.300095,72.86199,-158.065,0,2.196,14.680643,307.8,Oct-35,18303,2018-09-02 17:23:00:144
1.65E+00,7.06E-01,9.16E+00,0.92653,8.57382,3.58121,-0.92543,8.83485,4.15444,1.6761,0.73387,0.21955,-0.16054,0.91266,0.16797,1977,37.901,-16.502,15.659,250.329,-64.47,11.924,2,58.2601,19.300095,72.86199,-158.065,0,2.196,14.680643,307.8,Oct-35,18403,2018-09-02 17:23:00:244
3.33E+00,8.89E-01,9.08E+00,2.6319,8.55388,3.76639,-0.78463,8.70837,4.44061,3.31836,0.93495,-0.11869,-1.13313,-0.19894,0.15358,2001,37.151,-16.127,16.908,247.879,-64.1,11.522,2,59.8951,19.300095,72.86199,-158.065,0,2.196,14.680643,307.8,Oct-35,18503,2018-09-02 17:23:00:344
1.85E+00,-8.27E-01,6.74E+00,1.29268,5.3297,4.41303,-0.57255,8.36614,5.08431,1.70869,-1.86554,0.0867,-0.14349,-0.87859,0.28142,2001,36.026,-16.876,14.783,244.983,-58.697,7.429,2,59.8951,19.300095,72.86199,-158.065,0,2.196,14.680643,307.8,Oct-35,18603,2018-09-02 17:23:00:444
4.01E+00,-7.56E-01,6.34E+00,4.29671,4.87827,3.81351,0.71772,7.87937,5.79404,3.67222,-1.97751,-1.22784,-2.05032,-1.5188,0.13867,2169,37.151,-17.627,8.783,237.53,-56.672,-4.126,2,59.8951,19.300095,72.86199,-158.065,0,2.196,14.680643,307.8,Oct-35,18703,2018-09-02 17:23:00:544
1.82E+00,-5.49E-01,1.11E+01,3.19475,7.08145,8.09094,1.31328,6.51451,7.21158,2.04355,1.37095,1.7694,-1.18959,-1.41441,-0.25175,2227,35.338,-14.314,1.096,246.609,-42.622,-9.454,2,56.4927,19.300095,72.86199,-158.065,0,2.196,14.680643,307.8,Oct-35,18803,2018-09-02 17:23:00:644
1.58E+00,-2.20E-01,9.10E+00,3.43227,5.3938,6.67354,2.28257,5.82133,7.55463,1.42983,0.2869,0.04606,-1.47188,-1.86768,-0.88345,2227,35.275,-12.439,-4.404,249.993,-37.71,-15.038,2,56.4927,19.300095,72.86199,-158.065,0,2.196,14.680643,307.8,Oct-35,18903,2018-09-02 17:23:00:744
-4.70E+00,-8.75E-01,1.16E+01,-2.29504,4.9348,11.27341,1.61638,4.43494,8.59587,-3.71727,1.03255,3.70999,-0.64684,-0.83438,-1.12047,3044,36.401,-1.003,-9.967,255.694,-29.493,-12.6,2,56.4927,19.300095,72.86199,-158.065,0,2.196,14.680643,307.8,Oct-35,19003,2018-09-02 17:23:00:844
-1.10E+00,-5.55E-01,1.17E+01,1.86871,4.96294,10.45393,2.66445,4.50131,8.29514,0.13497,1.20745,0.24032,-1.08786,-1.81335,-1.26749,2901,37.151,-1.376,-15.529,268.942,-27.894,-16.095,2,52.1307,19.300095,72.861984,-161.29,0,0.9,14.680643,307.8,15 / 35,19103,2018-09-02 17:23:00:944
-1.73E+00,5.01E-01,1.53E+01,3.85878,6.53976,13.44823,3.74445,3.76053,8.24669,-0.19811,3.24216,5.33184,-1.78773,-2.26875,-1.3788,2528,29.776,10.435,-23.654,276.882,-23.353,-23.112,2,52.1307,19.300095,72.861984,-161.29,0,0.9,14.680643,307.8,15 / 35,19203,2018-09-02 17:23:01:044
-2.63E-01,2.95E+00,1.18E+01,4.44017,6.92271,8.98058,4.70192,3.30312,7.94681,0.24496,3.97556,1.89017,-1.2812,-1.35954,-1.5354,1687,20.901,17.436,-27.467,296.863,-20.652,-27.811,2,52.1307,19.300095,72.861984,-161.29,0,0.9,14.680643,307.8,15 / 35,19302,2018-09-02 17:23:01:143
-2.42E+00,1.89E+00,8.01E+00,1.38611,4.5367,7.14127,4.63965,3.45118,7.92044,-2.82433,1.63551,0.55622,-0.09236,-0.43491,-0.9969,1255,15.776,23.311,-27.904,311.026,-20.204,-30.379,2,61.1898,19.300095,72.861984,-161.29,0,0.9,14.680643,307.8,15 / 35,19403,2018-09-02 17:23:01:244
-2.00E+00,2.02E+00,7.44E+00,1.43404,4.67824,6.27972,4.67354,3.70303,7.78563,-2.45656,1.26822,-0.07658,0.35185,-0.12172,-0.61607,1195,10.963,23.311,-31.779,319.267,-22.185,-30.975,2,61.1898,19.300095,72.861984,-161.29,0,0.9,14.680643,307.8,15 / 35,19503,2018-09-02 17:23:01:344
-2.64E+00,1.32E+00,7.43E+00,0.46893,4.51677,6.58221,4.06434,4.40204,7.76361,-3.0523,0.57861,-0.29445,0.67941,0.84927,0.07475,1430,11.713,22.56,-29.218,320.857,-26.672,-27.633,2,61.1898,19.300095,72.861984,-161.29,0,0.9,14.680643,307.8,15 / 35,19603,2018-09-02 17:23:01:444
-3.09E+00,1.78E+00,7.15E+00,-0.56235,5.10938,6.12418,3.58716,4.8831,7.7109,-3.88637,0.74443,-0.80073,1.15399,0.92065,1.44522,1761,16.151,19.247,-30.467,314.468,-29.864,-24.948,2,61.1898,19.300095,72.861984,-161.29,0,0.9,14.680643,307.8,15 / 35,19703,2018-09-02 17:23:01:544
-3.71E-01,3.15E+00,8.65E+00,2.16982,7.24962,5.25168,3.67408,5.18578,7.46855,-1.16306,2.5132,-1.47698,0.94574,0.79495,1.6391,1675,24.963,11.497,-29.218,296.1,-31.925,-26.194,2,68.6199,19.300095,72.861984,-161.29,0,0.9,14.680643,307.8,15 / 35,19802,2018-09-02 17:23:01:643
-1.79E-01,3.09E+00,1.07E+01,3.19022,8.3064,6.75597,3.67098,5.15151,7.49375,-0.06359,3.64739,0.42465,0.35611,1.13956,1.31099,1675,30.151,5.247,-28.342,284.093,-32.006,-26.651,2,68.6199,19.300095,72.861984,-161.29,0,0.9,14.680643,307.8,15 / 35,19903,2018-09-02 17:23:01:744
2.61E+00,3.08E-01,8.13E+00,5.26656,4.50421,4.99966,3.48806,5.06505,7.63866,1.77597,-0.6519,-2.67131,-0.0407,1.37978,0.85985,1592,36.775,-0.627,-21.904,274.322,-31.437,-25.446,2,68.6199,19.300095,72.861984,-161.29,0,0.9,14.680643,307.8,15 / 35,20003,2018-09-02 17:23:01:844
2.64E-02,-2.67E+00,1.10E+01,3.50244,2.37079,10.45546,2.61408,3.80741,8.65105,1.16825,-1.02897,2.73067,-0.99518,1.01706,1.12936,1732,43.025,0.436,-15.967,272.225,-25.833,-18.383,2,68.3245,19.300098,72.86198,-158.065,0,2.736,14.680643,327.9,14 / 35,20103,2018-09-02 17:23:01:944
3.46E+00,-4.41E-01,1.22E+01,6.69914,4.33749,9.90739,2.73318,3.85345,8.59366,4.24316,0.87485,2.1853,0.32309,0.00133,-0.17719,1995,43.776,-1.752,-12.091,266.907,-22.815,-17.263,2,68.3245,19.300098,72.86198,-158.065,0,2.736,14.680643,327.9,14 / 35,20203,2018-09-02 17:23:02:044
8.30E-01,-2.47E+00,9.94E+00,3.76303,1.99704,9.34935,2.67403,4.37423,8.35979,1.40809,-1.96958,1.46701,0.57661,-0.75021,-1.0182,2173,44.151,1.561,-13.405,269.032,-25.225,-17.203,2,68.3245,19.300098,72.86198,-158.065,0,2.736,14.680643,327.9,14 / 35,20303,2018-09-02 17:23:02:144
7.47E-01,-6.09E-01,1.10E+01,3.71599,4.73801,9.24181,2.56052,4.83591,8.13807,1.40686,0.35404,1.90694,0.18141,-0.616,-1.18013,2225,42.714,4.874,-16.405,276.241,-28.671,-17.604,2,66.7787,19.300098,72.86198,-158.065,0,2.736,14.680643,327.9,14 / 35,20403,2018-09-02 17:23:02:244
2.25E-01,-4.87E-01,1.11E+01,2.81,5.5769,9.19511,2.0322,5.44159,7.90124,0.96678,0.64135,2.02864,0.47169,0.08282,-1.51462,2392,40.088,8.186,-18.529,283.88,-32.632,-15.65,2,66.7787,19.300098,72.86198,-158.065,0,2.736,14.680643,327.9,14 / 35,20503,2018-09-02 17:23:02:344
-3.00E-01,2.68E+00,8.77E+00,0.65355,7.5081,5.2422,1.11199,6.17818,7.53419,0.04689,2.06314,-1.31644,0.35931,0.12863,-1.38519,2551,40.839,10.435,-18.529,291.414,-37.908,-10.363,2,66.7787,19.300098,72.86198,-158.065,0,2.736,14.680643,327.9,14 / 35,20603,2018-09-02 17:23:02:444
-1.96E+00,2.99E+00,8.13E+00,-1.6763,7.51231,4.44109,0.30065,6.31038,7.50061,-1.94936,1.781,-2.37124,-0.02472,-0.35074,-0.91222,2551,39.026,13.748,-20.216,297.069,-39.875,-3.705,2,65.8276,19.300098,72.86198,-158.065,0,2.736,14.680643,327.9,14 / 35,20703,2018-09-02 17:23:02:544
-2.14E-01,6.54E-01,7.24E+00,-0.0249,5.16484,5.11319,0.12188,6.18615,7.60835,-0.13542,-0.44417,-1.78533,-0.44124,-0.54729,-1.49171,2443,34.589,17.436,-24.467,302.632,-40.144,-2.118,2,65.8276,19.300098,72.86198,-158.065,0,2.736,14.680643,327.9,14 / 35,20803,2018-09-02 17:23:02:644
5.23E-01,5.08E-01,7.07E+00,0.53854,4.85683,5.15468,-0.0023,6.21404,7.58657,0.54062,-0.76568,-1.7097,0.18993,0.30812,-0.24536,2244,30.901,19.623,-27.467,316.861,-39.171,-0.174,2,65.8276,19.300098,72.86198,-158.065,0,2.736,14.680643,327.9,14 / 35,20903,2018-09-02 17:23:02:744
-7.40E-01,-5.31E+00,1.92E+01,-0.88412,7.91237,18.27245,0.12293,6.26739,7.54156,-1.47004,2.07343,12.58346,1.81978,-1.07619,0.68248,1736,31.963,19.623,-27.467,314.906,-38.867,0.452,2,67.598,19.300098,72.86198,-158.065,0,2.736,14.680643,327.9,14 / 35,21003,2018-09-02 17:23:02:844
9.49E-02,-7.10E-01,1.12E+01,0.87946,7.56169,8.19937,0.64668,7.07307,6.76194,0.88334,2.25773,2.07415,0.54573,-0.34009,-0.50528,1887,27.588,12.248,-29.218,310.179,-46.158,-5.463,2,67.598,19.300106,72.86198,-161.29,0,2.952,14.680643,319.9,15 / 35,21103,2018-09-02 17:23:02:944
-1.28E+00,-2.08E-01,7.93E+00,-1.33203,5.76401,5.43169,-0.06257,7.30381,6.54377,-0.90937,-0.87379,-0.15446,0.31616,-0.03223,-0.82646,1887,25.713,11.873,-29.591,319.901,-48.14,0.548,2,67.598,19.300106,72.86198,-161.29,0,2.952,14.680643,319.9,15 / 35,21203,2018-09-02 17:23:03:044
3.40E-01,-4.49E-01,8.65E+00,0.19063,6.35794,5.89552,-0.15894,7.53052,6.27984,-1.971,-0.90633,-0.89647,0.73268,-1.37765,-0.21553,1923,22.026,11.497,-30.029,323.169,-50.166,1.45,2,67.598,19.300106,72.86198,-161.29,0,2.952,14.680643,319.9,15 / 35,21303,2018-09-02 17:23:03:144
1.39E+00,3.17E+00,6.47E+00,1.42651,7.1196,1.03629,0.17436,8.06051,5.58285,2.01683,-0.31926,-3.7934,-0.24843,-0.60321,-0.85841,2357,17.589,10.811,-31.779,329.386,-55.28,-1.789,2,59.8868,19.300106,72.86198,-161.29,0,2.952,14.680643,319.9,15 / 35,21403,2018-09-02 17:23:03:244
-5.09E+00,-2.02E+00,1.04E+01,-5.31903,7.24135,7.63615,-0.1707,7.91953,5.7812,-3.23054,0.99344,0.01917,0.746,-0.31453,0.57436,2032,17.589,13.748,-30.467,332.529,-53.859,1.691,2,59.8868,19.300106,72.86198,-161.29,0,2.952,14.680643,319.9,15 / 35,21502,2018-09-02 17:23:03:343
-2.23E+00,2.94E+00,9.90E+00,-2.55171,9.61964,3.53706,-0.52954,7.74353,5.99397,-1.87075,2.67552,-2.16091,-0.57973,0.9819,0.28833,2008,17.963,14.124,-30.467,335.427,-52.15,5.049,2,59.8868,19.300106,72.86198,-161.29,0,2.952,14.680643,319.9,15 / 35,21603,2018-09-02 17:23:03:444
2.10E-01,3.42E+00,8.93E+00,0.04189,9.15207,2.771,-0.14646,7.72376,6.04091,0.27708,2.01356,-2.55499,-0.36401,-0.35767,0.43002,2008,20.526,15.936,-29.591,330.967,-52.224,3.484,2,60.2302,19.300106,72.86198,-161.29,0,2.952,14.680643,319.9,15 / 35,21703,2018-09-02 17:23:03:544
-3.58E+00,-3.83E+00,1.20E+01,-3.29597,6.74194,10.75169,0.16721,7.50893,6.30542,-3.52399,0.91024,4.06901,0.82483,-1.64931,0.97862,2262,17.213,18.561,-28.78,332.466,-49.969,-1.519,2,60.2302,19.300106,72.86198,-161.29,0,2.952,14.680643,319.9,15 / 35,21803,2018-09-02 17:23:03:644
-3.26E+00,9.79E-01,1.04E+01,-1.29698,8.98279,6.14946,1.89615,7.83885,5.57919,-3.03398,1.8019,1.03856,-0.47905,2.17766,0.63509,2798,11.339,11.497,-30.467,323.047,-53.745,-19.318,2,60.2302,19.300106,72.86198,-161.29,0,2.952,14.680643,319.9,15 / 35,21902,2018-09-02 17:23:03:743
4.30E-01,-4.26E+00,1.31E+01,2.71628,6.74527,11.7029,0.85794,7.1157,6.69337,0.34399,0.56031,5.99248,0.07541,3.21576,0.91525,2929,23.151,16.685,-27.904,321.753,-47.355,-11.018,2,65.266,19.300106,72.86198,-161.29,0,2.952,14.680643,319.9,15 / 35,22003,2018-09-02 17:23:03:844
9.21E+00,-6.70E-01,8.58E+00,9.7097,6.16206,5.1563,0.76426,7.82058,5.86727,9.0004,-1.09615,-0.28906,1.79155,0.25806,0.95679,3407,27.901,9.686,-23.216,306.412,-50.22,-5.119,2,65.266,19.300108,72.86197,-161.29,0,2.448,14.680643,302.3,15 / 35,22103,2018-09-02 17:23:03:944
3.08E+00,-3.34E-01,6.55E+00,3.37651,5.10541,3.87361,0.34177,7.9058,5.7924,3.06096,-2.19404,-1.47453,-0.42686,0.00612,-0.77054,2957,31.963,8.56,-24.904,304.87,-54.058,-4.275,2,65.266,19.300108,72.86197,-161.29,0,2.448,14.680643,302.3,15 / 35,22203,2018-09-02 17:23:04:044
8.89E-01,-6.83E-01,9.56E+00,1.20218,7.01727,6.48457,0.39975,7.56632,6.22587,0.83369,0.04276,0.74566,-0.37306,-1.14597,-0.26187,2957,26.463,12.248,-23.654,312.916,-51.125,-2.758,2,62.0711,19.300108,72.86197,-161.29,0,2.448,14.680643,302.3,15 / 35,22303,2018-09-02 17:23:04:144
4.45E-01,1.98E+00,9.61E+00,1.02878,8.65273,4.53133,0.79611,7.5398,6.21997,0.43515,1.7071,-1.11088,-0.13124,-1.21947,-0.65762,2957,21.275,12.997,-27.467,317.907,-50.25,-7.294,2,62.0711,19.300108,72.86197,-161.29,0,2.448,14.680643,302.3,15 / 35,22403,2018-09-02 17:23:04:244
9.54E-02,1.36E+00,9.99E+00,0.81238,8.54025,5.29106,1.08111,7.56956,6.14031,-0.30555,1.49387,-0.24478,-0.00874,-1.75476,-0.90796,3163,15.401,13.373,-27.029,320.786,-50.157,-7.708,2,62.0711,19.300108,72.86197,-161.29,0,2.448,14.680643,302.3,15 / 35,22503,2018-09-02 17:23:04:344
-9.94E-01,8.29E-01,9.26E+00,0.07841,7.66968,5.3548,1.25319,7.53739,6.14717,-1.08002,0.70224,-0.32755,-0.41673,-1.70044,-1.34631,2994,5.775,16.685,-30.467,331.954,-50.432,-11.538,2,62.0711,19.300108,72.86197,-161.29,0,2.448,14.680643,302.3,15 / 35,22603,2018-09-02 17:23:04:444
-2.05E+00,6.45E-01,8.73E+00,-0.95114,7.13202,5.39679,1.33256,7.56744,6.09332,-2.18305,0.13613,-0.23631,0.00618,-1.46341,-0.91168,2862,-2.35,16.685,-29.218,346.378,-50.31,-12.024,2,61.5322,19.300108,72.86197,-161.29,0,2.448,14.680643,302.3,15 / 35,22703,2018-09-02 17:23:04:544
-2.27E+00,-2.18E+00,1.27E+01,-0.02316,8.56555,9.94949,1.71566,7.60539,5.94853,-1.61129,1.52548,4.44312,0.10045,-1.60776,-0.32259,2736,-8.224,15.936,-26.654,357.434,-51.171,-13.029,2,61.5322,19.300108,72.86197,-161.29,0,2.448,14.680643,302.3,15 / 35,22803,2018-09-02 17:23:04:644
-2.43E+00,-4.87E-01,7.75E+00,-0.77406,5.75676,5.69861,1.81027,7.66724,5.8401,0.26223,-0.05486,0.9524,-0.25269,-0.83385,-0.1058,2511,-12.662,15.936,-26.216,5.704,-51.429,-17.222,2,61.5322,19.300108,72.86197,-161.29,0,2.448,14.680643,302.3,15 / 35,22902,2018-09-02 17:23:04:743
4.10E-01,6.33E-01,8.04E+00,2.85921,6.41837,3.98087,3.35406,7.31397,5.60594,-0.27639,-0.48947,-1.19936,-0.70169,-0.58138,0.80074,2276,-15.974,16.31,-23.216,3.49,-48.229,-30.892,2,62.1752,19.300108,72.86197,-161.29,0,2.448,14.680643,302.3,15 / 35,23003,2018-09-02 17:23:04:844
-8.57E-01,2.04E+00,9.96E+00,2.34262,8.46257,5.18842,3.78681,6.90763,5.84081,-0.22904,2.43372,1.84583,-0.04869,0.44075,0.09659,1868,-17.787,19.623,-21.529,1.575,-44.78,-32.957,2,62.1752,19.30011,72.86196,-164.516,0,2.52,14.680643,349.6,14 / 35,23103,2018-09-02 17:23:04:944
-1.94E+00,1.64E+00,9.59E+00,1.27274,7.91626,5.84726,3.609,6.89895,5.96238,-2.21059,1.55359,0.19074,0.35558,-0.00932,0.07208,1566,-16.35,18.874,-21.904,4.032,-44.708,-31.186,2,62.1752,19.30011,72.86196,-164.516,0,2.52,14.680643,349.6,14 / 35,23203,2018-09-02 17:23:05:044
-2.04E+00,8.94E-01,1.00E+01,1.61618,7.79625,6.4908,3.63545,7.10597,5.69729,-1.89777,1.15413,1.16165,0.23308,-0.20853,-0.04243,1377,-18.161,18.561,-24.904,5.024,-45.647,-31.695,2,58.5795,19.30011,72.86196,-164.516,0,2.52,14.680643,349.6,14 / 35,23303,2018-09-02 17:23:05:144
-2.24E+00,7.21E-01,1.05E+01,1.68498,8.19307,6.75519,3.5763,7.24422,5.55894,-1.66583,1.4713,1.53292,0.46158,0.00293,-0.20435,1377,-18.161,17.81,-24.53,2.606,-47.253,-32.805,2,58.5795,19.30011,72.86196,-164.516,0,2.52,14.680643,349.6,14 / 35,23403,2018-09-02 17:23:05:244
-1.38E+00,1.67E+00,8.57E+00,1.09375,7.73084,4.14384,3.25031,7.78028,5.0073,-2.03446,0.48298,-0.59805,0.15211,-0.16272,-0.67946,1615,-19.287,15.186,-22.78,5.509,-51.246,-33.524,2,58.5795,19.30011,72.86196,-164.516,0,2.52,14.680643,349.6,14 / 35,23503,2018-09-02 17:23:05:344
-9.06E-01,1.08E+00,9.59E+00,1.51547,8.40932,4.56631,2.73541,7.98297,4.99602,-1.03526,0.96531,-0.0924,0.03813,-0.04341,-0.50049,1615,-21.162,12.624,-23.216,12.44,-54.233,-29.213,2,58.5795,19.30011,72.86196,-164.516,0,2.52,14.680643,349.6,14 / 35,23603,2018-09-02 17:23:05:444
-1.15E+00,2.49E+00,1.20E+01,0.92223,11.23239,4.98509,1.94863,7.85264,5.5416,-0.89663,3.90273,-0.18744,-1.22154,0.07697,-0.40248,2108,-20.412,12.624,-23.216,19.206,-54.574,-23.578,2,57.9965,19.30011,72.86196,-164.516,0,2.52,14.680643,349.6,14 / 35,23702,2018-09-02 17:23:05:543
2.19E+00,1.77E+00,5.07E+00,2.55637,5.14392,0.82994,1.49955,8.27291,5.04784,2.53851,-2.53822,-2.34412,1.17636,1.08577,-0.25336,3540,-21.162,10.435,-25.78,24.467,-53.846,-17.515,2,57.9965,19.30011,72.86196,-164.516,0,2.52,14.680643,349.6,14 / 35,23803,2018-09-02 17:23:05:644
2.27E+00,2.65E+00,6.30E+00,2.46149,6.75948,0.29465,1.60204,8.26326,5.03213,1.36847,-0.98769,-3.94609,-1.22794,-1.05168,-0.04776,3540,-19.661,9.686,-27.029,19.53,-58.906,-16.642,2,57.9965,19.30011,72.86196,-164.516,0,2.52,14.680643,349.6,14 / 35,23903,2018-09-02 17:23:05:744
-8.74E-01,4.70E-01,8.28E+00,0.09285,6.79317,4.8297,1.19215,7.66984,5.99356,-1.01291,-0.3148,-0.73595,-0.27826,-0.34648,-0.24962,2844,-25.537,16.31,-38.593,21.892,-51.783,-11.527,2,63.798,19.300116,72.86196,-161.29,0,2.7,14.680643,296.6,14 / 35,24003,2018-09-02 17:23:05:844
-2.03E+00,-7.40E-01,9.37E+00,-0.67357,6.81218,6.75746,1.30811,7.5997,6.05837,-1.85952,-0.35286,0.74591,0.02374,-0.20055,0.26277,2844,-26.662,13.748,-37.717,24.018,-50.951,-11.736,2,63.798,19.300116,72.86196,-161.29,0,2.7,14.680643,296.6,14 / 35,24104,2018-09-02 17:23:05:945
-2.37E+00,-1.26E+00,1.04E+01,-0.78493,7.28877,7.86115,1.46088,7.64784,5.96211,-2.23124,0.36192,2.09423,0.52548,-0.5638,0.44121,3490,-25.224,12.997,-38.155,24.018,-50.951,-11.736,2,63.798,19.300116,72.86196,-161.29,0,2.7,14.680643,296.6,14 / 35,24203,2018-09-02 17:23:06:044
-2.37E+00,-1.26E+00,1.04E+01,-0.78493,7.28877,7.86115,1.46088,7.64784,5.96211,-2.23124,0.36192,2.09423,0.52548,-0.5638,0.44121,3490,-25.224,12.997,-38.155,24.018,-50.951,-11.736,2,60.5867,19.300116,72.86196,-161.29,0,2.7,14.680643,296.6,14 / 35,24303,2018-09-02 17:23:06:144
1.55E+00,-9.89E-01,1.07E+01,3.28363,7.73125,6.88969,1.46088,7.64784,5.96211,-2.23124,0.36192,2.09423,-0.40555,-0.52545,0.14879,4402,-36.6,18.185,-36.029,24.326,-51.248,-13.768,2,60.5867,19.300116,72.86196,-161.29,0,2.7,14.680643,296.6,14 / 35,24403,2018-09-02 17:23:06:244
2.38E+00,-3.04E-01,9.17E+00,4.39453,6.9738,4.68524,2.27532,7.82092,5.46137,2.28004,-0.2943,-0.39009,1.10179,-0.32144,-0.18837,4402,-32.912,17.436,-33.029,24.906,-51.342,-21.44,2,60.5867,19.300116,72.86196,-161.29,0,2.7,14.680643,296.6,14 / 35,24503,2018-09-02 17:23:06:344
2.50E+00,-9.40E-01,9.87E+00,5.04489,7.35289,5.00209,2.38298,7.85691,5.36291,4.77295,0.56708,0.95187,0.02269,0.36778,-1.10609,4376,-36.662,14.873,-33.029,23.005,-53.324,-24.607,2,62.8897,19.300116,72.86196,-161.29,0,2.7,14.680643,296.6,14 / 35,24603,2018-09-02 17:23:06:444
1.48E+00,8.72E-01,7.40E+00,2.46107,6.62202,2.78394,1.66887,8.27588,4.9895,0.87889,-1.10916,-1.97116,0.8179,-0.5148,-0.42433,4441,-35.912,11.124,-31.779,30.899,-56.037,-18.047,2,62.8897,19.300116,72.86196,-161.29,0,2.7,14.680643,296.6,14 / 35,24703,2018-09-02 17:23:06:544
-1.22E+00,-1.08E+00,7.73E+00,0.43663,6.04308,5.07027,1.62646,8.33602,4.90263,-0.75725,-1.84423,0.1181,-0.43698,-0.20267,-0.31567,3766,-38.849,11.124,-30.467,33.807,-58.672,-18.825,2,62.8897,19.300116,72.86196,-161.29,0,2.7,14.680643,296.6,14 / 35,24803,2018-09-02 17:23:06:644
-7.22E-01,-2.93E-02,8.64E+00,0.75557,7.40579,4.43831,1.71144,8.50357,4.57501,-0.76959,-0.30965,-0.26497,0.599,0.02103,0.42842,3766,-36.662,8.936,-30.467,32.778,-59.228,-18.888,2,62.8897,19.300116,72.86196,-161.29,0,2.7,14.680643,296.6,14 / 35,24903,2018-09-02 17:23:06:744
4.33E-02,1.58E+00,8.44E+00,0.99924,8.05786,2.78674,1.80014,8.51122,4.52647,-0.5883,0.27503,-1.40583,0.30019,0.02477,0.53229,3381,-36.662,9.311,-29.591,32.778,-59.228,-18.888,2,56.1191,19.300116,72.86195,-161.29,0,3.384,14.680643,246,14 / 35,25003,2018-09-02 17:23:06:844
4.33E-02,1.58E+00,8.44E+00,0.99924,8.05786,2.78674,1.80014,8.51122,4.52647,-0.5883,0.27503,-1.40583,0.30019,0.02477,0.53229,3381,-36.662,9.311,-29.591,32.778,-59.228,-18.888,2,56.1191,19.300116,72.86195,-161.29,0,3.384,14.680643,246,14 / 35,25103,2018-09-02 17:23:06:944
-5.44E-01,-1.24E+00,9.84E+00,2.12755,7.86852,5.68524,2.14559,8.46313,4.46568,-0.74655,0.4937,-1.34257,-0.08917,0.3486,-0.04349,1363,-34.787,12.248,-33.905,25.652,-59.655,-25.662,2,56.1191,19.300116,72.86195,-161.29,0,3.384,14.680643,246,14 / 35,25203,2018-09-02 17:23:07:044
-1.71E-01,-3.95E-01,9.21E+00,2.3226,7.90022,4.14786,2.43661,8.61299,4.00622,-0.17326,-0.16025,0.43527,0.39394,0.09613,0.39806,1363,-35.162,12.624,-33.905,13.492,-61.436,-31.308,2,48.448,19.300116,72.86195,-161.29,0,3.384,14.680643,246,14 / 35,25302,2018-09-02 17:23:07:143
2.50E-01,1.65E-01,9.75E+00,2.74191,8.74315,3.34016,2.68768,8.72642,3.57719,0.20447,0.65672,0.56633,0.46584,0.26978,0.47635,1347,-35.536,12.624,-26.216,17.596,-62.766,-36.071,2,48.448,19.300116,72.86195,-161.29,0,3.384,14.680643,246,14 / 35,25403,2018-09-02 17:23:07:244
-1.65E-01,9.55E-01,9.57E+00,2.0549,8.96526,2.80067,2.76704,8.74827,3.46145,-0.50869,0.86019,-0.40627,-0.01833,0.64368,0.37408,1070,-32.974,12.997,-23.216,15.489,-63.14,-38.987,2,48.448,19.300116,72.86195,-161.29,0,3.384,14.680643,246,14 / 35,25503,2018-09-02 17:23:07:344
1.09E+00,6.02E-01,8.66E+00,3.04268,7.97847,1.88274,2.93759,8.68247,3.48649,0.09006,-0.03664,-1.49072,-0.27826,0.59894,0.33681,990,-28.912,14.81,-24.904,8.087,-62.886,-40.586,2,49.6989,19.300116,72.86195,-161.29,0,3.384,14.680643,246,14 / 35,25603,2018-09-02 17:23:07:444
9.89E-01,-1.58E+00,1.07E+01,4.93744,8.51041,4.63829,3.11887,8.33547,4.11862,2.04702,0.7855,0.82135,-0.8519,-0.151,0.02309,990,-29.974,18.498,-24.467,8.993,-60.167,-38.398,2,49.6989,19.300116,72.86195,-161.29,0,3.384,14.680643,246,14 / 35,25703,2018-09-02 17:23:07:544
4.80E-01,-3.23E-01,9.45E+00,3.49007,7.70682,4.24794,3.05337,8.18296,4.45943,0.68095,0.13995,0.08149,-0.67346,-0.84662,-0.47758,994,-30.35,19.623,-22.78,16.004,-56.556,-34.399,2,49.6989,19.300116,72.86195,-161.29,0,3.384,14.680643,246,14 / 35,25802,2018-09-02 17:23:07:643
-2.20E-01,-1.47E+00,9.13E+00,3.2897,6.62775,5.55277,3.0296,7.97271,4.84023,0.47856,-0.77007,1.06155,-0.78532,-1.31268,-0.76521,1018,-34.412,20.749,-15.092,28.804,-54.924,-32.596,2,58.7236,19.300116,72.86195,-161.29,0,3.384,14.680643,246,14 / 35,25903,2018-09-02 17:23:07:744
-1.27E+00,-1.15E+00,9.44E+00,2.36449,6.99498,6.13092,3.05285,7.96302,4.84157,-0.30366,-0.48774,1.65592,-0.32353,-1.57047,-0.87227,1107,-39.6,19.247,-8.655,41.53,-54.292,-32.233,2,58.7236,19.300116,72.861946,-158.065,0,2.592,14.680643,241.6,14 / 35,26003,2018-09-02 17:23:07:844
-2.06E+00,-3.96E-01,9.24E+00,1.51599,7.39133,5.7265,3.19784,8.08543,4.53543,-1.42916,-0.29349,1.792,-0.20155,-1.34782,-0.51009,1192,-42.537,17.81,0.783,50.029,-55.536,-35.187,2,58.7236,19.300116,72.861946,-158.065,0,2.592,14.680643,241.6,14 / 35,26103,2018-09-02 17:23:07:944
-4.50E-02,1.67E+00,9.28E+00,2.39964,8.67122,2.81131,3.70838,8.18707,3.92303,-1.04366,1.06937,-0.8313,-0.10408,-1.51189,0.14879,1251,-44.786,15.561,5.908,51.786,-56.693,-41.181,2,58.7236,19.300116,72.861946,-158.065,0,2.592,14.680643,241.6,14 / 35,26202,2018-09-02 17:23:08:043
8.44E-01,1.77E+00,9.81E+00,3.60413,9.05547,2.26947,4.06978,8.03444,3.88009,0.07472,1.59323,-1.42048,-0.59091,-0.35555,0.25319,1198,-43.661,17.436,11.407,51.777,-55.013,-46.367,2,60.559,19.300116,72.861946,-158.065,0,2.592,14.680643,241.6,14 / 35,26303,2018-09-02 17:23:08:144
-2.88E-01,2.37E-01,1.05E+01,4.20071,8.25975,4.90143,4.06321,7.33237,5.08891,0.90296,1.5923,0.28676,-1.06975,1.28604,0.04865,1161,-42.912,18.498,11.034,55.707,-50.724,-43.159,2,60.559,19.300116,72.861946,-158.065,0,2.592,14.680643,241.6,14 / 35,26403,2018-09-02 17:23:08:244
-3.17E-01,1.45E-01,9.69E+00,3.25528,6.91431,5.97572,3.62033,6.88974,5.96616,0.07667,0.72904,-0.0393,-0.04337,0.54515,0.50246,1161,-41.786,19.623,8.846,60.999,-44.633,-31.25,2,60.559,19.300116,72.861946,-158.065,0,2.592,14.680643,241.6,14 / 35,26503,2018-09-02 17:23:08:344
9.36E-01,-4.73E-01,8.79E+00,4.36101,5.80959,5.05261,3.78869,6.86119,5.89409,0.72826,-0.4213,-0.40227,0.29752,0.39601,0.26064,1310,-41.412,20.374,7.596,57.119,-44.399,-32.733,2,58.0414,19.300116,72.861946,-158.065,0,2.592,14.680643,241.6,14 / 35,26603,2018-09-02 17:23:08:444
1.11E+00,-5.77E-01,9.18E+00,4.69159,6.09099,5.16658,3.85214,7.1345,5.51637,1.12066,-0.57085,0.09264,0.72736,0.0386,0.06517,1059,-40.724,21.498,6.72,52.09,-45.071,-33.115,2,58.0414,19.300116,72.861946,-158.065,0,2.592,14.680643,241.6,14 / 35,26703,2018-09-02 17:23:08:544
1.69E+00,-2.22E-02,8.52E+00,4.65106,6.44357,3.49947,3.76966,7.43628,5.1635,0.87187,-0.9513,-1.12792,0.3412,0.26978,-0.52713,1059,-39.973,20.749,3.72,49.963,-49.314,-36.132,2,58.0414,19.300116,72.861946,-158.065,0,2.592,14.680643,241.6,14 / 35,26803,2018-09-02 17:23:08:644
2.63E+00,-2.78E+00,1.16E+01,6.77231,7.6022,6.82057,2.86254,7.81836,5.18165,4.86838,0.83445,0.13261,-0.64417,0.15686,-1.71756,888,-43.286,15.936,4.596,60.41,-52.868,-28.918,2,62.8637,19.300116,72.861946,-158.065,0,2.592,14.680643,241.6,14 / 35,26903,2018-09-02 17:23:08:744
-6.21E-01,2.73E-01,9.91E+00,1.33386,8.3004,5.28821,1.48893,8.11689,5.29808,-0.05921,0.70608,0.33122,-0.47586,-0.20001,-2.05791,888,-44.037,7.811,5.47,71.536,-55.288,-20.692,2,62.8637,19.300116,72.861946,-158.065,0,2.592,14.680643,241.6,14 / 36,27002,2018-09-02 17:23:08:843
-2.58E+00,-1.35E+00,1.19E+01,-0.4705,9.02089,8.25276,1.67375,8.08599,5.29015,-1.93946,1.30384,3.37316,0.07062,-2.37048,-0.07864,1210,-41.786,2.686,12.283,88.363,-55.443,-14.929,2,62.8637,19.300114,72.86194,-154.839,0,0,14.680643,,14 / 36,27103,2018-09-02 17:23:08:944
-4.62E-01,-1.16E+00,8.34E+00,2.15747,6.30441,5.17387,2.5292,8.1761,4.78799,-0.47837,-1.39071,0.51854,0.18567,-0.29428,0.12163,2781,-41.412,2.998,21.283,87.047,-56.402,-27.364,2,69.4321,19.300114,72.86194,-154.839,0,0,14.680643,,14 / 36,27203,2018-09-02 17:23:09:044
6.84E-01,-1.33E+00,8.54E+00,3.48167,6.72551,4.22015,2.62715,8.48818,4.14961,0.76723,-0.82587,-1.25005,0.21283,-0.16486,-0.05095,2690,-39.973,4.498,20.033,82.45,-59.946,-32.338,2,69.4321,19.300114,72.86194,-154.839,0,0,14.680643,,14 / 36,27303,2018-09-02 17:23:09:144
-8.69E-01,-2.05E+00,7.84E+00,2.5123,5.88472,5.0417,2.72151,8.60605,3.83401,0.24187,-2.34097,0.4432,-0.46733,-0.91479,-0.58891,2690,-38.1,2.31,25.97,85.455,-61.234,-35.366,2,69.4321,19.300114,72.86194,-154.839,0,0,14.680643,,14 / 36,27403,2018-09-02 17:23:09:244
-1.77E+00,-1.58E-01,7.83E+00,0.6508,6.74748,4.3055,2.56436,8.52288,4.11765,-1.23117,-1.55787,1.16116,-0.70383,-1.0421,-0.65921,2576,-34.412,-4.002,29.846,98.21,-60.635,-32.581,2,63.4126,19.300114,72.86194,-154.839,0,0,14.680643,,14 / 36,27502,2018-09-02 17:23:09:343
-1.80E+00,1.04E+00,9.26E+00,0.30888,8.34076,4.51163,2.47908,8.17423,4.81732,-2.00186,0.7216,0.02143,-0.81035,-1.28764,-0.47865,2587,-32.599,-7.689,32.846,112.589,-57.165,-27.339,2,63.4126,19.300114,72.86194,-154.839,0,0,14.680643,,14 / 36,27603,2018-09-02 17:23:09:444
-1.63E+00,3.07E+00,9.62E+00,-0.08185,9.59393,3.53101,2.52192,7.95528,5.15013,-1.21343,1.52097,-0.08759,-0.86575,-0.25061,-0.3423,2273,-26.662,-12.439,35.345,119.997,-54.215,-26.09,2,63.4126,19.300114,72.86194,-154.839,0,0,14.680643,,14 / 36,27703,2018-09-02 17:23:09:544
-1.24E+00,1.10E+00,1.18E+01,1.73189,9.82079,6.51178,2.67868,7.58598,5.60785,-1.11138,2.65395,0.53891,-0.81514,-0.11638,0.15251,2065,-25.537,-15.065,34.471,122.806,-50.674,-25.532,2,63.4126,19.300114,72.86194,-154.839,0,0,14.680643,,14 / 36,27803,2018-09-02 17:23:09:644
-6.67E-01,-1.39E-02,1.17E+01,2.79822,8.52007,7.47815,2.87048,7.14376,6.07433,0.10753,1.82376,1.78429,0.0083,0.38962,0.39859,2289,-24.849,-15.439,34.471,123.839,-47.027,-25.306,2,63.1109,19.300114,72.86194,-154.839,0,0,14.680643,,14 / 36,27902,2018-09-02 17:23:09:743
-5.94E-01,1.03E-01,8.39E+00,1.89359,6.17688,5.38864,2.90632,7.37336,5.77557,-0.83475,-0.74492,-0.03322,0.95479,0.48495,0.47849,2600,-28.537,-14.314,34.471,121.897,-46.693,-25.336,2,63.1109,19.300114,72.86194,-154.839,0,0,14.680643,,14 / 36,28004,2018-09-02 17:23:09:845
-9.40E-01,3.79E-01,8.39E+00,1.52794,6.76157,4.84117,2.91539,7.62027,5.4408,-0.83644,-0.98636,-1.56373,0.50578,0.59042,0.22708,2600,-29.974,-12.064,33.595,116.276,-50.991,-28.184,2,63.1109,19.30011,72.86193,-151.613,0,4.212,14.680643,222.3,15 / 36,28103,2018-09-02 17:23:09:944
-6.55E-01,-8.40E-02,1.07E+01,2.57867,8.60977,5.81891,2.85705,7.94607,4.98674,-0.40849,1.00441,0.94704,0.90952,0.83969,0.35918,2415,-31.85,-9.502,32.721,111.209,-54.123,-29.81,2,58.2096,19.30011,72.86193,-151.613,0,4.212,14.680643,222.3,15 / 36,28203,2018-09-02 17:23:10:044
-8.77E-01,-1.26E+00,9.82E+00,2.41628,7.72255,5.76878,2.61715,8.36789,4.3931,-0.04738,-0.04863,1.80729,1.3532,1.28816,0.37143,2411,-34.036,-6.564,29.784,103.615,-58.571,-30.784,2,58.2096,19.30011,72.86193,-151.613,0,4.212,14.680643,222.3,15 / 36,28303,2018-09-02 17:23:10:144
6.39E-01,-6.79E-01,7.46E+00,2.73509,6.24812,3.17221,2.46581,8.63211,3.94676,0.6954,-1.96228,-0.34328,0.78328,1.30414,0.40605,2302,-35.536,-1.376,26.408,93.994,-61.67,-31.996,2,58.2096,19.30011,72.86193,-151.613,0,4.212,14.680643,222.3,15 / 36,28403,2018-09-02 17:23:10:244
-3.10E+00,-2.49E+00,1.19E+01,1.05194,9.51872,8.05226,1.94184,8.71728,4.05077,-0.53675,0.93119,1.41891,-0.32939,0.99149,0.04865,2318,-38.1,-1.003,19.096,89.126,-63.603,-29.918,2,56.3498,19.30011,72.86193,-151.613,0,4.212,14.680643,222.3,15 / 36,28502,2018-09-02 17:23:10:343
1.01E+00,-8.91E-01,1.22E+01,3.679,10.37048,5.35494,1.95548,8.69361,4.09483,1.82488,2.16903,1.56988,0.23094,0.16805,0.33148,2318,-38.1,-1.003,17.845,90.47,-62.437,-25.527,2,56.3498,19.30011,72.86193,-151.613,0,4.212,14.680643,222.3,15 / 36,28603,2018-09-02 17:23:10:444
8.53E-01,-1.48E+00,7.76E+00,2.66174,6.06696,4.37784,1.8162,8.56977,4.40805,0.94865,-2.0163,0.22003,-0.19836,-1.26581,-0.33804,2848,-39.6,-5.44,19.971,97.325,-60.998,-21.719,2,56.3498,19.30011,72.86193,-151.613,0,4.212,14.680643,222.3,15 / 36,28703,2018-09-02 17:23:10:544
2.07E+00,-4.12E+00,8.09E+00,4.87856,4.92046,6.22397,1.93778,8.35184,4.76048,3.20641,-2.83712,1.23954,-1.02394,-1.28339,-0.71887,2848,-37.036,-6.94,22.595,99.119,-59.81,-22.94,2,59.1455,19.30011,72.86193,-151.613,0,4.212,14.680643,222.3,15 / 36,28802,2018-09-02 17:23:10:643
-6.55E-01,-2.84E+00,8.88E+00,2.38937,6.0546,6.71149,2.52474,8.38524,4.41405,-0.20678,-2.04806,1.75484,0.31084,-3.59874,0.06357,1805,-33.287,-10.626,32.408,110.5,-58.189,-24.869,2,59.1455,19.30011,72.86193,-151.613,0,4.212,14.680643,222.3,15 / 36,28903,2018-09-02 17:23:10:744
-5.38E+00,-1.61E+00,1.20E+01,2.62628,9.15999,9.17722,4.11247,8.21939,3.42048,-1.26458,1.24167,4.99134,-1.70251,-3.87463,-0.34763,1013,-20.787,-12.502,45.659,110.468,-56.945,-50.249,2,59.1455,19.30011,72.86193,-151.613,0,4.212,14.680643,222.3,15 / 36,29003,2018-09-02 17:23:10:844
-2.71E+00,8.89E-01,9.11E+00,2.02998,8.00598,4.784,4.51118,8.0584,3.29876,-1.96431,0.87007,1.49422,-1.99387,-2.86797,-1.20676,818,-8.224,-23.189,48.221,120.305,-55.441,-54.398,2,59.1455,19.30011,72.86192,-148.387,0,0,14.680643,,15 / 36,29103,2018-09-02 17:23:10:944
-2.14E+00,3.87E+00,8.57E+00,0.02544,9.19103,2.9142,4.45013,7.81361,3.91333,-4.16403,1.83509,-0.76991,-1.23112,-2.23306,-0.12233,818,3.963,-32.065,46.095,145.895,-53.53,-47.722,2,75.2055,19.30011,72.86192,-148.387,0,0,14.680643,,15 / 36,29203,2018-09-02 17:23:11:044
-3.22E+00,2.46E+00,1.23E+01,2.88155,10.80452,6.54678,5.16575,7.21148,4.18091,-1.99152,4.00163,2.60276,-0.87108,-1.19017,-0.10368,880,9.464,-40.128,39.658,153.688,-48.091,-50.487,2,75.2055,19.30011,72.86192,-148.387,0,0,14.680643,,15 / 36,29303,2018-09-02 17:23:11:144
-2.33E+00,1.97E+00,9.71E+00,2.57056,8.46025,5.04024,5.1934,7.23962,4.09717,-2.33604,1.62044,1.16933,0.44666,-0.314,-0.17932,947,12.839,-41.628,39.221,157.497,-47.153,-51.317,2,75.2055,19.30011,72.86192,-148.387,0,0,14.680643,,15 / 36,29403,2018-09-02 17:23:11:244
1.50E+00,2.01E+00,9.05E+00,4.36302,8.22266,1.23613,5.03543,7.5851,3.64433,-0.39443,1.05627,-2.20702,-0.38158,0.16591,-0.91222,1037,13.152,-40.128,40.909,153.331,-49.944,-54.915,2,75.2143,19.30011,72.86192,-148.387,0,0,14.680643,,15 / 36,29503,2018-09-02 17:23:11:344
-4.06E+00,1.74E-01,1.05E+01,1.59439,8.28116,7.52455,4.10535,7.60613,4.63285,-2.12708,1.01327,3.25893,0.13135,0.67297,-0.14575,1094,15.025,-41.252,36.658,164.826,-50.794,-43.857,2,75.2143,19.30011,72.86192,-148.387,0,0,14.680643,,15 / 36,29603,2018-09-02 17:23:11:444
1.93E+00,2.51E-01,9.87E+00,5.40282,7.85097,3.2343,4.12336,7.97183,3.95199,1.50175,0.30891,-0.50463,1.92046,0.77364,0.55092,1094,11.339,-38.315,43.033,163.498,-51.186,-41.225,2,75.2143,19.30011,72.86192,-148.387,0,0,14.680643,,15 / 36,29703,2018-09-02 17:23:11:544
3.09E+00,-6.77E-02,8.53E+00,5.52177,7.15268,0.80386,3.82463,8.34595,3.44787,1.90462,-0.74054,-2.45697,0.3934,0.32144,-0.33058,1630,6.526,-33.878,46.471,150.531,-57.465,-48.033,2,59.5523,19.30011,72.86192,-148.387,0,0,14.680643,,15 / 36,29803,2018-09-02 17:23:11:644
2.07E+00,-1.42E+00,9.28E+00,5.80969,7.22522,2.55215,3.71031,8.40535,3.42843,2.37377,-0.79412,-1.10556,0.21603,-0.02211,-0.64005,1630,6.902,-32.376,47.72,146.741,-58.993,-47.261,2,59.5523,19.30011,72.86192,-148.387,0,0,14.680643,,15 / 36,29903,2018-09-02 17:23:11:744
2.52E+00,-1.37E+00,8.21E+00,5.05693,6.80306,1.93987,2.81349,8.83326,3.19816,2.50451,-1.53549,-0.99748,-0.02951,-0.40508,-0.87494,1417,7.275,-32.376,48.596,152.101,-64.256,-41.339,2,59.5523,19.30011,72.86192,-148.387,0,0,14.680643,,15 / 36,30003,2018-09-02 17:23:11:844
4.72E-01,-8.66E-01,8.77E+00,3.06926,7.57724,3.31372,2.48471,8.88635,3.32106,0.89466,-0.97768,-0.80523,-0.31288,-0.57338,-0.57666,1468,14.276,-33.878,47.345,163.187,-64.979,-36.803,2,58.7039,19.30011,72.86192,-145.161,0,2.052,14.680643,257.7,15 / 36,30103,2018-09-02 17:23:11:944
-9.64E-02,-3.35E-01,1.11E+01,2.67955,9.97151,4.04868,2.28731,8.94286,3.31117,0.46736,1.48203,1.0759,-0.0732,-0.20587,-0.50635,1414,17.589,-34.251,46.909,168.508,-65.772,-34.636,2,58.7039,19.30011,72.86192,-145.161,0,2.052,14.680643,257.7,15 / 36,30203,2018-09-02 17:23:12:044
-3.43E+00,1.06E+00,1.08E+01,-1.08765,10.21646,4.91153,2.28782,8.8501,3.55134,-3.25491,1.83273,1.54733,0.27356,-0.3598,0.4705,1170,19.838,-35.315,44.72,173.249,-64.562,-30.484,2,58.7039,19.30011,72.86192,-145.161,0,2.052,14.680643,257.7,15 / 36,30303,2018-09-02 17:23:12:144
-8.88E-01,1.54E+00,9.40E+00,0.95918,9.14465,2.63512,2.74407,8.85576,3.19624,-1.8935,0.89515,0.80906,0.72096,-0.31239,0.71338,1170,18.713,-35.689,45.221,166.302,-64.48,-38.454,2,58.7039,19.30011,72.86192,-145.161,0,2.052,14.680643,257.7,15 / 36,30402,2018-09-02 17:23:12:243
-1.39E+00,1.57E+00,9.45E+00,1.06595,9.17749,2.87048,3.19104,8.81622,2.87435,-1.63434,1.02977,0.78641,0.39713,0.29321,0.3938,1058,14.651,-34.627,45.596,155.472,-64.016,-47.326,2,57.929,19.30011,72.86192,-145.161,0,2.052,14.680643,257.7,15 / 36,30503,2018-09-02 17:23:12:344
-1.45E+00,6.06E-01,8.75E+00,1.78339,8.071,3.26871,3.50848,8.72145,2.79236,-1.55552,0.18761,0.11598,0.17076,0.83649,0.50671,977,10.588,-32.376,48.158,147.54,-63.01,-51.488,2,57.929,19.30011,72.86192,-145.161,0,2.052,14.680643,257.7,15 / 36,30603,2018-09-02 17:23:12:444
-1.95E+00,1.37E+00,8.12E+00,1.00839,7.77698,3.18549,3.78629,8.59485,2.82187,-2.55823,-0.38716,-0.30226,0.62723,1.44902,0.96851,1054,3.589,-29.065,47.284,139.545,-61.215,-53.303,2,57.929,19.30011,72.86192,-145.161,0,2.052,14.680643,257.7,15 / 36,30703,2018-09-02 17:23:12:544
-4.97E-01,4.25E-01,1.10E+01,4.49315,9.67206,2.66357,4.50048,8.45163,2.118,-0.51686,1.59204,0.33145,1.4006,0.5526,0.9962,1022,-3.412,-24.252,50.783,122.883,-59.522,-64.798,2,49.3026,19.30011,72.86192,-145.161,0,2.052,14.680643,257.7,15 / 36,30803,2018-09-02 17:23:12:644
7.84E-01,3.56E-01,9.20E+00,4.35727,8.14136,0.34723,4.63232,8.55446,1.23825,-0.04419,0.01323,-0.82931,0.88129,1.45221,-0.3407,1022,-10.1,-14.314,52.47,100.946,-59.942,-75.106,2,49.3026,19.30011,72.86192,-145.161,0,2.052,14.680643,257.7,15 / 36,30903,2018-09-02 17:23:12:744
-2.36E-01,-1.33E+00,9.10E+00,5.11026,7.41692,1.8652,4.34837,8.66862,1.45503,0.28205,-0.94204,-0.91878,-0.33737,0.87485,0.12003,973,-14.474,-13.565,52.032,101.909,-62.078,-72.435,2,49.3026,19.300108,72.861916,-145.161,0,3.024,14.680643,210.3,15 / 36,31003,2018-09-02 17:23:12:844
-2.42E-01,-1.65E+00,7.73E+00,4.54117,5.98215,2.46341,4.14575,8.57354,2.34043,0.60872,-2.15028,0.24339,-0.76242,1.3345,-0.11113,996,-17.85,-14.314,47.72,101.977,-61.307,-64.203,2,49.1435,19.300108,72.861916,-145.161,0,3.024,14.680643,210.3,15 / 36,31103,2018-09-02 17:23:12:944
-2.02E+00,-1.54E+00,9.26E+00,3.73608,7.01563,5.38484,4.24401,8.21773,3.26003,-0.28509,-0.77064,2.29598,-0.41354,0.24155,0.84068,1054,-18.912,-17.252,42.596,111.836,-57.839,-52.692,2,49.1435,19.300108,72.861916,-145.161,0,3.024,14.680643,210.3,15 / 36,31203,2018-09-02 17:23:13:044
-5.08E-01,-1.15E+00,1.10E+01,5.87822,8.02296,4.9026,4.94904,7.65123,3.62437,1.18296,0.76409,1.46408,-0.90196,-0.52118,0.32616,1193,-19.287,-16.876,44.72,111.948,-52.355,-53.979,2,49.1435,19.300108,72.861916,-145.161,0,3.024,14.680643,210.3,15 / 36,31303,2018-09-02 17:23:13:144
1.17E+00,-1.46E-01,1.12E+01,6.91303,8.11551,3.53981,5.436,7.14765,3.94099,1.74623,1.32184,-0.20601,-0.97653,-0.5574,-0.14256,1136,-17.474,-19.127,43.033,115.325,-47.336,-54.235,2,49.1435,19.300108,72.861916,-145.161,0,3.024,14.680643,210.3,15 / 36,31403,2018-09-02 17:23:13:244
-2.20E-01,1.16E+00,9.46E+00,4.41097,7.63126,3.63087,5.26682,7.1049,4.23691,-0.23665,1.01276,-0.23488,-0.34644,-0.17072,-0.60808,1136,-17.474,-23.877,41.721,116.988,-46.19,-52.752,2,53.6459,19.300108,72.861916,-145.161,0,3.024,14.680643,210.3,15 / 36,31503,2018-09-02 17:23:13:344
1.08E+00,9.81E-01,9.43E+00,4.93016,7.6676,2.81973,4.68115,7.49847,4.24619,0.1295,0.65759,-0.95983,0.24213,-0.03169,-0.99583,1241,-14.099,-23.877,42.596,123.924,-48.037,-49.248,2,53.6459,19.300108,72.861916,-145.161,0,3.024,14.680643,210.3,15 / 36,31602,2018-09-02 17:23:13:443
1.01E+00,4.25E-01,8.54E+00,3.8277,7.22702,2.67925,3.61904,8.09648,4.18569,0.491,-0.47076,-1.29293,-0.00981,0.5771,-1.07573,1241,-11.537,-26.126,41.721,130.593,-54.889,-42.498,2,53.6459,19.300108,72.861916,-145.161,0,3.024,14.680643,210.3,15 / 36,31703,2018-09-02 17:23:13:544
-7.58E-01,-6.61E-01,8.83E+00,2.52979,7.08226,4.72928,3.12358,8.26409,4.25659,-0.33177,-0.80274,0.14346,0.75505,0.03116,-0.36414,1153,-10.411,-25.377,40.033,138.332,-57.427,-36.272,2,56.8328,19.300108,72.861916,-145.161,0,3.024,14.680643,210.3,15 / 36,31803,2018-09-02 17:23:13:644
1.55E+00,3.63E-01,8.16E+00,3.38673,7.40923,1.6765,2.87298,8.69999,3.49666,0.64775,-0.96448,-1.77293,0.02641,0.01944,-0.23683,1065,-14.85,-25.752,42.596,130.339,-62.517,-39.408,2,56.8328,19.300108,72.861916,-145.161,0,3.024,14.680643,210.3,15 / 36,31903,2018-09-02 17:23:13:744
-1.83E-01,-7.57E-01,1.13E+01,3.48746,9.72107,4.66153,2.77079,8.75422,3.44336,0.8554,1.40517,1.39058,0.58195,0.11159,-0.05894,1065,-11.537,-24.252,40.909,135.48,-62.925,-38.602,2,56.8328,19.300108,72.861916,-145.161,0,3.024,14.680643,210.3,16 / 36,32002,2018-09-02 17:23:13:843
-1.77E+00,-1.18E-01,1.29E+01,3.24735,11.42775,5.26958,3.42623,8.75387,2.79305,-0.02288,3.07245,2.6037,0.85732,-0.59735,0.53548,641,-13.037,-22.064,43.909,123.487,-63.091,-48.24,2,60.0911,19.3001,72.86191,-145.161,0,2.556,14.680643,186.8,16 / 36,32103,2018-09-02 17:23:13:944
-1.34E+00,9.03E-01,1.07E+01,2.42566,9.99281,3.43727,3.34204,8.82328,2.67413,-0.78128,1.52622,0.87125,-0.33472,0.38055,-0.75722,641,-12.286,-22.064,44.408,118.378,-63.432,-53.82,2,60.0911,19.3001,72.86191,-145.161,0,2.556,14.680643,186.8,16 / 36,32203,2018-09-02 17:23:14:044
-2.75E+00,2.10E+00,7.89E+00,-0.98032,8.07263,2.85927,2.9154,9.01052,2.54587,-3.77499,-0.56479,0.41881,0.95479,0.00984,0.31444,487,-11.537,-22.064,43.033,125.401,-66.328,-46.752,2,60.0911,19.3001,72.86191,-145.161,0,2.556,14.680643,186.8,16 / 36,32302,2018-09-02 17:23:14:143
5.08E-01,1.25E+00,9.12E+00,2.33029,8.91241,0.37016,3.46468,9.07245,1.36276,-1.12285,0.1969,-0.76611,1.26372,0.45673,0.47955,448,-13.037,-15.439,46.471,101.323,-67.688,-68.529,2,63.4162,19.3001,72.86191,-145.161,0,2.556,14.680643,186.8,16 / 36,32403,2018-09-02 17:23:14:244
1.75E-01,1.66E+00,8.20E+00,1.52539,8.2287,0.06226,3.60583,9.10202,0.56704,-2.34696,-0.2572,-0.18962,1.07677,0.70973,0.19139,423,-16.35,-11.377,46.471,85.297,-68.148,-81.063,2,63.4162,19.3001,72.86191,-145.161,0,2.556,14.680643,186.8,16 / 36,32503,2018-09-02 17:23:14:344
6.36E-01,1.04E+00,8.00E+00,1.93602,7.84706,-0.47203,3.49098,9.15936,0.29928,-1.3889,-0.90226,-0.58087,0.53241,1.35262,-0.15961,423,-21.536,-9.502,45.659,74.501,-69.066,-85.1,2,63.4162,19.3001,72.86191,-145.161,0,2.556,14.680643,186.8,16 / 36,32603,2018-09-02 17:23:14:444
2.59E+00,4.49E-01,9.48E+00,3.13776,9.0544,-2.22766,3.25007,9.23257,0.6059,0.03915,0.2521,-2.80532,-0.51474,1.61839,-0.468,423,-25.224,-7.689,41.783,70.545,-69.834,-83.084,2,63.4162,19.3001,72.86191,-145.161,0,2.556,14.680643,186.8,16 / 36,32703,2018-09-02 17:23:14:544
2.28E+00,1.09E+00,9.22E+00,2.82578,9.09764,-0.8181,2.23983,9.31414,2.09769,0.71144,0.14371,-2.68391,-0.72354,1.42186,-0.70715,388,-27.786,-11.752,33.658,90.464,-71.736,-55.198,2,62.4066,19.3001,72.86191,-145.161,0,2.556,14.680643,186.8,16 / 36,32803,2018-09-02 17:23:14:644
7.64E-01,-4.20E-01,9.60E+00,2.47182,8.87802,2.83806,1.49694,9.18764,3.08494,1.04282,0.10736,-0.10687,-0.66016,0.91638,-0.4371,481,-29.599,-15.439,28.033,109.685,-69.959,-29.335,2,62.4066,19.3001,72.86191,-145.161,0,2.556,14.680643,186.8,16 / 36,32902,2018-09-02 17:23:14:743
-8.90E-01,-2.55E+00,1.12E+01,0.92882,9.23972,6.74123,0.94415,8.95364,3.88734,0.02592,0.67727,3.02373,-0.4407,-0.09775,-0.1058,733,-28.537,-18.002,25.096,122.692,-66.746,-15.361,2,62.4066,19.300098,72.86191,-145.161,0,1.332,14.680643,330.4,16 / 36,33004,2018-09-02 17:23:14:845
1.36E+00,-1.75E+00,9.79E+00,2.66306,8.09396,5.29861,0.97821,8.8601,4.08805,2.0842,-0.20035,3.2451,-0.46468,-0.60002,-0.70769,1174,-25.537,-19.502,23.784,128.086,-64.619,-13.457,2,62.2687,19.300098,72.86191,-145.161,0,1.332,14.680643,330.4,16 / 36,33103,2018-09-02 17:23:14:944
-8.89E-01,-1.40E+00,8.44E+00,-0.05595,6.87271,5.17207,0.6978,8.70597,4.45976,-0.7133,-1.0669,0.55775,-0.59038,-0.97232,-0.68372,1482,-22.6,-22.44,25.908,134.304,-62.874,-9.28,2,62.2687,19.300098,72.86191,-145.161,0,1.332,14.680643,330.4,16 / 36,33203,2018-09-02 17:23:15:044
-3.78E-01,-4.96E-01,7.78E+00,0.17697,6.58176,4.19975,0.60639,8.58486,4.70138,-0.49392,-1.90634,0.10446,-0.06627,-0.8381,-0.52713,1482,-20.787,-25.002,28.908,141.438,-61.188,-7.576,2,62.2687,19.300098,72.86191,-145.161,0,1.332,14.680643,330.4,16 / 36,33303,2018-09-02 17:23:15:144
1.46E-01,1.18E+00,8.36E+00,0.48558,7.88097,2.98294,0.59053,8.6241,4.63105,-0.57292,-0.67867,-0.71775,-0.03377,-0.76939,-0.29756,2131,-18.536,-26.126,30.157,147.637,-61.009,-6.479,2,60.1168,19.300098,72.86191,-145.161,0,1.332,14.680643,330.4,16 / 36,33402,2018-09-02 17:23:15:243
3.94E-01,1.38E+00,9.42E+00,0.77138,8.87082,3.40216,0.53243,8.51855,4.82921,0.19189,0.68898,-1.26821,-0.37999,-0.42159,-0.36253,1963,-17.099,-27.252,31.908,152.614,-60.302,-6.292,2,60.1168,19.300098,72.86191,-145.161,0,1.332,14.680643,330.4,16 / 36,33503,2018-09-02 17:23:15:344
1.12E+00,2.50E+00,1.02E+01,1.41446,10.05612,2.75594,0.50527,8.50656,4.85319,0.92907,1.87923,-2.1652,-0.24683,-0.47005,-0.53246,1852,-13.786,-28.314,31.471,156.507,-60.161,-5.944,2,60.1168,19.300098,72.86191,-145.161,0,1.332,14.680643,330.4,16 / 36,33603,2018-09-02 17:23:15:444
4.14E+00,2.40E+00,9.82E+00,4.2981,9.68822,2.64746,0.27507,8.47682,4.92324,4.03513,1.58453,-2.05907,-0.10196,-0.85834,-0.80675,1774,-10.1,-28.314,33.221,161.858,-59.626,-3.368,2,56.8841,19.300098,72.86191,-145.161,0,1.332,14.680643,330.4,16 / 36,33703,2018-09-02 17:23:15:544
2.07E-01,-2.05E+00,1.01E+01,0.34181,7.53575,6.97855,0.08843,8.36361,5.11983,0.34932,-0.40423,2.14207,0.00191,-0.69908,-0.362,1774,-7.1,-30.19,33.221,170.081,-58.695,-1.106,2,56.8841,19.300098,72.86191,-145.161,0,1.332,14.680643,330.4,16 / 36,33803,2018-09-02 17:23:15:644
-1.31E+00,-3.14E+00,1.11E+01,0.08568,8.12682,8.34213,0.97561,8.49648,4.79879,-0.84893,-0.01258,3.74503,-0.38052,-1.75316,0.08701,1498,-4.161,-28.314,34.908,167.219,-60.337,-9.653,2,56.8841,19.300098,72.86191,-145.161,0,1.332,14.680643,330.4,16 / 36,33903,2018-09-02 17:23:15:744
-2.55E+00,-2.25E+00,1.16E+01,-0.45819,8.5892,8.49612,1.30209,8.27724,5.09533,-1.648,0.58574,3.52818,-0.47267,-0.74223,-0.18144,1498,-2.35,-29.065,34.471,166.44,-57.57,-14.335,2,56.8841,19.300093,72.86191,-141.935,0,1.944,14.680643,155.1,16 / 36,34003,2018-09-02 17:23:15:844
-2.18E+00,-4.38E-01,9.56E+00,-0.79272,7.6109,6.15047,1.28271,8.06183,5.43434,-1.98184,0.02095,0.37774,-0.36401,-0.32465,-0.34444,1370,-0.85,-32.002,33.595,170.477,-55.293,-13.281,2,61.4791,19.300093,72.86191,-141.935,0,1.944,14.680643,155.1,16 / 36,34102,2018-09-02 17:23:15:943
-6.79E-01,8.28E-01,8.32E+00,0.25566,7.39735,3.95587,1.26929,8.17647,5.26352,-0.89382,-0.50158,-0.96961,0.35239,-0.1819,-0.15215,1427,1.338,-30.939,33.221,171.272,-56.488,-13.558,2,61.4791,19.300093,72.86191,-141.935,0,1.944,14.680643,155.1,16 / 36,34203,2018-09-02 17:23:16:044
-8.68E-01,6.63E-01,8.40E+00,0.07524,7.44103,4.03885,1.1999,8.28722,5.10417,-1.13003,-0.59675,-1.83846,-0.00874,0.09134,-0.03604,1495,-0.099,-29.814,34.096,170.939,-57.55,-13.469,2,61.4791,19.300093,72.86191,-141.935,0,1.944,14.680643,155.1,16 / 36,34303,2018-09-02 17:23:16:144
-7.00E-01,9.79E-01,8.93E+00,0.2505,8.14682,3.84311,1.24609,8.38924,4.92323,-0.92423,0.05341,-0.55337,0.5388,0.1803,0.29953,1495,0.652,-28.69,35.345,170.232,-58.811,-14.203,2,65.5789,19.300093,72.86191,-141.935,0,1.944,14.680643,155.1,16 / 36,34403,2018-09-02 17:23:16:244
-4.53E-01,9.70E-01,1.08E+01,0.78114,9.87585,4.52304,1.42134,8.57771,4.53576,-0.58141,1.65292,0.17488,0.70338,0.37897,0.61272,1713,-1.224,-27.565,36.595,165.127,-60.064,-15.468,2,65.5789,19.300093,72.86191,-141.935,0,1.944,14.680643,155.1,16 / 36,34503,2018-09-02 17:23:16:344
-5.80E-01,2.50E+00,1.01E+01,0.21994,10.06204,2.67311,1.38232,8.61986,4.46738,-0.08863,2.15133,-2.98372,-0.58398,1.0341,0.06943,1792,-4.536,-24.626,37.471,159.348,-61.52,-17.193,2,65.5789,19.300093,72.86191,-141.935,0,1.944,14.680643,155.1,16 / 36,34602,2018-09-02 17:23:16:443
-8.34E-01,1.20E+00,8.53E+00,-0.04007,7.94887,3.41034,1.1828,8.4564,4.82292,-1.17545,-0.1685,-1.21922,0.35664,1.25514,0.84387,1718,-8.6,-24.626,35.345,157.191,-59.426,-13.481,2,62.3833,19.300093,72.86191,-141.935,0,1.944,14.680643,155.1,16 / 36,34703,2018-09-02 17:23:16:544
-9.85E-01,-2.75E-01,8.67E+00,0.44759,7.43083,4.55898,1.60902,8.5705,4.48643,-1.09439,-0.78254,0.25949,0.33746,1.22052,1.06279,1895,-14.099,-21.315,36.159,146.076,-60.766,-18.019,2,62.3833,19.300093,72.86191,-141.935,0,1.944,14.680643,155.1,16 / 36,34803,2018-09-02 17:23:16:644
-3.70E-01,-6.41E+00,1.31E+01,3.7751,8.25566,11.38518,1.83369,8.64958,4.24178,0.73649,0.28192,7.12842,1.18915,0.94196,0.59993,1709,-18.161,-17.627,32.721,138.487,-60.682,-20.112,2,62.3833,19.300093,72.86191,-141.935,0,1.944,14.680643,155.1,16 / 36,34903,2018-09-02 17:23:16:744
-9.11E-01,-2.79E-01,8.02E+00,0.59076,7.15251,3.71451,1.3529,8.87401,3.94866,-0.70985,-1.3785,-0.08153,-0.34058,1.72865,-0.17932,1794,-23.349,-14.69,32.346,130.289,-64.959,-23.051,2,59.0702,19.300089,72.86191,-141.935,0,2.088,14.680643,149.7,16 / 36,35004,2018-09-02 17:23:16:845
3.47E-01,-1.66E+00,9.65E+00,1.88969,7.98125,5.36255,1.16409,8.8403,4.08221,-1.29815,-1.58834,0.27244,-0.62021,1.07191,0.19885,1794,-25.537,-14.314,27.596,129.63,-64.351,-15.916,2,59.0702,19.300089,72.86191,-141.935,0,2.088,14.680643,149.7,16 / 36,35103,2018-09-02 17:23:16:944
1.09E+00,-9.66E-01,9.57E+00,1.68465,7.76321,5.53053,0.47766,8.50212,4.86377,1.13649,-0.34979,1.07556,0.60059,0.92917,0.25266,1684,-27.786,-14.69,23.721,132.785,-59.579,-6.113,2,59.0702,19.300089,72.86191,-141.935,0,2.088,14.680643,149.7,16 / 36,35203,2018-09-02 17:23:17:044
2.28E+00,-9.17E-01,8.69E+00,2.65469,7.17262,4.79274,0.36519,8.5966,4.70484,2.29757,-1.12573,0.0692,0.45891,0.5249,0.39699,1840,-29.599,-13.939,20.409,125.188,-61.236,-4.438,2,63.0996,19.300089,72.86191,-141.935,0,2.088,14.680643,149.7,16 / 36,35303,2018-09-02 17:23:17:144
3.08E+00,6.53E-01,8.03E+00,3.37854,7.5159,2.53687,0.46144,8.83811,4.22436,1.58034,-0.6498,-1.06459,-0.04976,0.31291,-0.05148,1767,-29.224,-12.439,19.908,123.192,-64.321,-6.234,2,63.0996,19.300089,72.86191,-141.935,0,2.088,14.680643,149.7,16 / 36,35403,2018-09-02 17:23:17:244
9.02E-01,1.51E+00,9.96E+00,1.34752,9.66954,2.64304,0.66833,8.8941,4.07661,0.66996,1.14177,-1.25468,0.00404,-0.8152,-0.11859,1518,-29.599,-10.626,21.22,119.965,-65.087,-9.31,2,63.0996,19.300089,72.86191,-141.935,0,2.088,14.680643,149.7,16 / 36,35502,2018-09-02 17:23:17:343
1.85E+00,-7.61E-01,1.16E+01,2.81264,10.17867,5.14786,0.75027,8.91804,4.0095,1.57945,1.74665,1.99784,0.66025,-0.83971,-0.35081,1518,-28.537,-9.502,22.533,118.656,-65.081,-10.299,2,63.0996,19.300089,72.86191,-141.935,0,2.088,14.680643,149.7,16 / 36,35603,2018-09-02 17:23:17:444
-1.29E+00,4.10E-02,1.03E+01,-0.79944,9.5443,3.88178,0.36733,9.13446,3.54923,-1.15275,0.7584,0.46798,0.09192,-1.28925,-0.58252,1234,-27.786,-9.877,25.97,127.607,-68.33,-7.324,2,61.9871,19.300089,72.86191,-141.935,0,2.088,14.680643,149.7,16 / 36,35703,2018-09-02 17:23:17:544
-1.33E+00,-1.87E+00,1.09E+01,-0.2718,9.48821,5.83313,0.64908,9.14266,3.48725,-1.53316,0.74811,3.56834,0.2352,-2.30923,0.15305,1013,-21.536,-11.752,32.784,138.098,-68.795,-10.544,2,61.9871,19.300089,72.86191,-141.935,0,2.088,14.680643,149.7,16 / 36,35803,2018-09-02 17:23:17:644
-3.23E+00,-2.39E+00,9.79E+00,-1.33246,8.18924,6.57014,1.09563,9.02564,3.67529,-1.50754,-0.11141,2.03334,-0.83752,-0.53503,-0.24855,1095,-18.912,-12.814,33.658,127.922,-68.065,-17.293,2,61.9871,19.300089,72.86191,-141.935,0,2.088,14.680643,149.7,16 / 36,35903,2018-09-02 17:23:17:744
-2.30E+00,1.35E+00,8.10E+00,-1.79631,7.98337,2.39162,0.88435,9.03459,3.71005,-2.43734,-0.60846,-1.63876,0.09245,0.70546,-0.52925,1311,-20.412,-13.19,31.534,137.628,-67.113,-13.407,2,59.7096,19.300081,72.861916,-141.935,0,2.628,14.680643,149.5,16 / 36,36003,2018-09-02 17:23:17:844
-2.10E+00,8.69E-01,7.87E+00,-1.86211,7.62683,2.34782,0.38309,9.09409,3.64983,-2.77356,-1.21073,-1.76367,0.19685,1.01865,0.29419,1311,-23.724,-13.565,31.096,139.295,-68.024,-5.992,2,59.7096,19.300081,72.861916,-141.935,0,2.628,14.680643,149.5,16 / 36,36103,2018-09-02 17:23:17:944
-2.34E+00,1.00E+00,9.59E+00,-2.23999,9.28201,2.6893,0.07466,9.13026,3.57816,-2.31175,0.50649,-0.74983,0.21815,1.22638,0.37836,1399,-25.911,-9.877,25.97,135.338,-68.383,-2.176,2,59.7096,19.300081,72.861916,-141.935,0,2.628,14.680643,149.5,16 / 36,36203,2018-09-02 17:23:18:044
-1.69E+00,1.37E+00,9.74E+00,-1.6769,9.5847,2.20792,0.02116,9.15936,3.50373,-1.58943,0.61894,-1.7886,-0.31393,1.26367,0.60258,1436,-29.599,-8.377,21.22,126.513,-69.066,-0.346,2,61.4511,19.300081,72.861916,-141.935,0,2.628,14.680643,149.5,16 / 36,36302,2018-09-02 17:23:18:143
7.52E-01,2.27E-01,9.43E+00,0.94427,8.81261,3.32173,0.2974,9.04607,3.775,0.6584,0.11709,-0.30698,-0.33791,0.80667,0.88275,1513,-32.224,-5.814,14.409,112.411,-67.689,-3.295,2,61.4511,19.300081,72.861916,-141.935,0,2.628,14.680643,149.5,16 / 36,36403,2018-09-02 17:23:18:244
1.29E+00,-2.00E+00,1.04E+01,2.6825,8.8985,5.26437,0.91742,9.08912,3.56604,1.89817,0.16133,3.2877,0.65811,0.86313,0.77037,1508,-33.287,-0.314,10.533,93.715,-67.946,-14.427,2,61.4511,19.300081,72.861916,-141.935,0,2.628,14.680643,149.5,16 / 36,36503,2018-09-02 17:23:18:344
-7.89E-01,-2.94E+00,1.05E+01,2.02724,8.92358,6.02184,1.60019,9.26983,2.77129,0.48571,-0.00637,3.35215,1.09061,-0.26712,0.89182,1205,-33.287,1.561,9.283,79.004,-70.36,-25.741,2,61.4511,19.300081,72.861916,-141.935,0,2.628,14.680643,149.5,16 / 36,36603,2018-09-02 17:23:18:444
-6.09E-01,-2.41E+00,9.78E+00,2.69614,8.43359,4.84218,1.87944,9.25492,2.64284,2.07807,0.23404,1.07162,-0.57759,0.77577,0.06357,927,-33.287,1.936,5.408,67.944,-70.689,-35.418,2,59.1089,19.300081,72.861916,-141.935,0,2.628,14.680643,149.5,16 / 36,36703,2018-09-02 17:23:18:544
4.35E-01,-2.64E+00,1.02E+01,3.57884,8.58481,5.05418,2.01993,9.09127,3.07231,1.63012,-0.18597,2.09018,0.07968,0.05406,0.15837,863,-32.599,4.498,4.533,67.007,-68.734,-31.273,2,59.1089,19.300081,72.861916,-141.935,0,2.628,14.680643,149.5,16 / 36,36803,2018-09-02 17:23:18:644
5.19E-01,-1.14E+00,9.20E+00,2.81964,8.0661,3.63324,1.94677,9.06407,3.19736,0.97661,-0.63714,0.48796,-0.10515,0.06525,-0.16972,954,-34.036,3.061,0.72,60.538,-67.56,-31.336,2,59.1089,19.300081,72.861916,-141.935,0,2.628,14.680643,149.5,16 / 36,36903,2018-09-02 17:23:18:744
1.33E+00,-1.06E+00,8.45E+00,3.33347,7.44196,2.785,1.9581,9.09868,3.09034,1.31741,-1.34639,0.16802,0.02269,-0.21332,-0.18517,1068,-34.036,3.374,4.596,65.839,-68.096,-32.359,2,62.8121,19.300081,72.861916,-141.935,0,2.628,14.680643,149.5,16 / 36,37002,2018-09-02 17:23:18:843
2.81E+00,-1.57E+00,8.72E+00,4.8331,7.5715,2.40549,1.75113,9.17654,2.98245,3.07796,-1.22905,-0.46784,-0.34216,-0.82053,-0.64909,1117,-32.224,1.561,4.158,65.277,-68.847,-32.168,2,62.8121,19.30008,72.86192,-141.935,0,3.744,14.680643,72.7,16 / 36,37103,2018-09-02 17:23:18:944
2.26E+00,-8.83E-01,7.33E+00,3.38434,6.47299,2.51045,1.30629,9.09902,3.4164,2.19967,-2.341,-0.86509,-0.68199,-1.7276,-0.84297,1117,-32.974,-2.127,7.158,82.947,-68.101,-20.925,2,62.8121,19.30008,72.86192,-141.935,0,3.744,14.680643,72.7,16 / 36,37203,2018-09-02 17:23:19:044
4.95E-01,6.06E-01,9.17E+00,1.52179,8.69632,2.59781,1.37006,9.00215,3.64068,0.20602,0.0509,-0.8986,-0.63405,-1.79897,-0.70076,1131,-31.85,-4.002,13.971,95.041,-67.363,-20.895,2,58.8597,19.30008,72.86192,-141.935,0,3.744,14.680643,72.7,16 / 36,37302,2018-09-02 17:23:19:143
-9.87E-01,1.38E-01,1.05E+01,0.47916,9.6481,4.29015,1.35663,8.9134,3.85763,-1.09504,0.44774,0.1497,-0.32832,-1.91776,-0.67039,1131,-31.099,-8.064,18.658,102.741,-65.715,-19.596,2,58.8597,19.30008,72.86192,-141.935,0,3.744,14.680643,72.7,16 / 36,37403,2018-09-02 17:23:19:244
-1.15E+00,-6.16E-01,1.61E+01,1.64973,14.49852,6.93965,1.59513,9.04171,3.44578,0.11136,5.77849,3.61647,0.40884,-2.02693,-0.52765,1023,-30.724,-12.064,25.908,111.327,-66.29,-22.649,2,58.8597,19.30008,72.86192,-141.935,0,3.744,14.680643,72.7,16 / 36,37503,2018-09-02 17:23:19:344
-1.57E+00,-2.75E+00,9.31E+00,0.04475,7.77852,6.02277,0.74869,9.21263,3.27679,-0.55535,-1.00324,3.1084,0.17181,-0.17871,-1.17853,651,-24.849,-15.752,27.22,125.809,-69.675,-15.563,2,58.086,19.30008,72.86192,-141.935,0,3.744,14.680643,72.7,16 / 36,37603,2018-09-02 17:23:19:444
2.14E-01,-2.01E+00,8.16E+00,0.9071,7.24937,4.14825,0.45735,9.40251,2.74844,1.16133,-1.52614,0.83576,0.25224,-0.26233,-0.42113,690,-22.224,-17.627,29.346,137.698,-73.494,-9.448,2,58.086,19.30008,72.86192,-141.935,0,3.744,14.680643,72.7,16 / 36,37703,2018-09-02 17:23:19:544
3.54E-01,9.65E-01,7.06E+00,0.52158,7.08063,0.67561,0.65208,9.52763,2.22924,-0.10541,-2.08041,-1.46785,0.18195,-0.39549,0.31976,690,-23.724,-16.127,30.22,131.681,-75.949,-13.198,2,58.086,19.30008,72.86192,-141.935,0,3.744,14.680643,72.7,16 / 36,37802,2018-09-02 17:23:19:643
1.14E-01,6.02E-02,8.71E+00,0.83705,8.43549,2.00305,0.89325,9.46997,2.38584,-0.02067,-0.65783,-0.28789,-0.12752,0.01144,0.2191,736,-22.6,-15.752,32.346,126.113,-75.191,-19.659,2,62.2154,19.30008,72.86192,-141.935,0,3.744,14.680643,72.7,16 / 36,37903,2018-09-02 17:23:19:744
-4.09E-01,1.23E+00,7.90E+00,0.00798,7.93031,1.07837,1.06268,9.39313,2.60963,-1.0107,-1.0739,-1.4232,-0.54723,0.23195,0.13921,814,-25.911,-16.502,32.346,124.558,-73.965,-22.73,2,62.2154,19.30008,72.86192,-141.935,0,3.744,14.680643,72.7,16 / 36,38003,2018-09-02 17:23:19:844
-1.29E+00,5.17E-01,8.68E+00,-0.38023,8.41617,2.51295,1.3144,9.29411,2.8394,-1.63867,-0.48227,-0.20557,0.12921,0.84874,0.78528,921,-26.662,-15.439,30.595,123.188,-72.012,-21.951,2,62.2154,19.300072,72.86193,-141.935,0,4.32,14.680643,137.2,16 / 36,38103,2018-09-02 17:23:19:944
8.58E-01,2.06E-01,1.01E+01,2.39648,9.62555,2.06178,1.83748,9.29582,2.52621,0.63653,0.72194,-0.35783,0.72842,0.99628,0.79488,1025,-28.912,-12.439,26.784,104.335,-71.289,-33.539,2,62.2154,19.300072,72.86193,-141.935,0,4.32,14.680643,137.2,16 / 36,38203,2018-09-02 17:23:20:044
1.90E+00,4.94E-01,9.96E+00,3.27905,9.50592,1.38611,1.94791,9.12599,3.01536,1.41288,0.76287,-1.50272,-1.00529,0.79016,0.25105,947,-32.599,-12.064,22.47,95.05,-69.602,-34.735,2,57.854,19.300072,72.86193,-141.935,0,4.32,14.680643,137.2,16 / 36,38303,2018-09-02 17:23:20:144
1.02E+00,-8.35E-01,1.14E+01,3.36206,10.05624,4.36644,1.61047,8.94164,3.69105,1.60118,1.30595,0.97226,0.04027,1.67966,0.00658,889,-34.036,-12.064,17.346,101.519,-65.888,-26.941,2,57.854,19.300072,72.86193,-141.935,0,4.32,14.680643,137.2,16 / 36,38403,2018-09-02 17:23:20:244
-1.17E+00,-1.28E+00,1.06E+01,0.73804,9.13033,5.64883,1.34595,8.92024,3.84554,0.55677,0.66753,-0.55452,-0.18398,1.62318,0.32509,889,-35.536,-12.814,12.659,99.775,-65.452,-19.29,2,57.854,19.300072,72.86193,-141.935,0,4.32,14.680643,137.2,16 / 36,38503,2018-09-02 17:23:20:344
1.58E+00,-4.16E+00,1.06E+01,4.14235,7.59636,7.57703,1.33104,8.48285,4.73708,2.85968,-0.57818,3.01211,-0.8242,0.9787,0.13335,1038,-35.912,-11.002,7.909,93.303,-63.246,-18.13,2,60.7293,19.300072,72.86193,-141.935,0,4.32,14.680643,137.2,16 / 36,38603,2018-09-02 17:23:20:444
1.02E+00,-1.82E+00,9.78E+00,2.74162,7.4984,6.02592,1.34333,8.44609,4.79891,1.25203,-0.61843,1.56464,-0.12433,-1.00162,-0.2166,1161,-36.974,-10.626,5.408,91.776,-59.458,-15.638,2,60.7293,19.300072,72.86193,-141.935,0,4.32,14.680643,137.2,16 / 36,38703,2018-09-02 17:23:20:544
2.14E+00,-3.13E+00,9.47E+00,3.53944,6.1897,7.29398,0.99171,8.1894,5.30288,3.15755,-1.55058,1.17014,-0.27773,-0.94569,-1.14764,1234,-34.787,-12.439,8.408,102.26,-56.625,-10.593,2,60.7293,19.300072,72.86193,-141.935,0,4.32,14.680643,137.2,16 / 36,38803,2018-09-02 17:23:20:644
6.45E-01,-1.53E+00,8.22E+00,1.55409,6.11362,5.52605,1.01415,8.4238,4.91747,0.57683,-2.00374,0.78747,0.61604,-1.78087,-0.52606,1483,-33.662,-18.376,15.659,110.795,-57.557,-9.259,2,57.0328,19.300072,72.86193,-141.935,0,4.32,14.680643,137.2,16 / 36,38903,2018-09-02 17:23:20:744
9.34E-01,1.64E-01,8.27E+00,2.04958,7.35121,3.31442,1.42919,8.62884,4.4352,0.75782,-0.85601,-1.39363,0.69913,-2.05251,-0.14896,1483,-31.85,-17.627,22.034,116.243,-61.63,-17.861,2,57.0328,19.300068,72.86194,-141.935,0,3.996,14.680643,90.7,16 / 36,39006,2018-09-02 17:23:20:847
8.86E-01,1.02E+00,1.02E+01,2.45796,9.42955,3.33868,2.12974,8.52282,4.35846,0.41035,1.23543,-0.85169,-0.28998,-1.52679,-0.19476,998,-29.599,-19.127,29.721,119.574,-61.079,-24.026,2,57.0328,19.300068,72.86194,-141.935,0,3.996,14.680643,90.7,16 / 36,39103,2018-09-02 17:23:20:944
8.66E-01,3.36E+00,9.13E+00,1.55893,9.57713,1.15884,2.25276,8.44852,4.44049,0.89267,0.37905,-0.85567,-0.86522,-1.03891,-0.94684,998,-26.286,-22.064,31.908,124.226,-59.486,-26.9,2,65.2875,19.300068,72.86194,-141.935,0,3.996,14.680643,90.7,16 / 36,39203,2018-09-02 17:23:21:044
-1.33E+00,1.76E+00,8.10E+00,-0.24777,7.89442,2.84425,1.74669,8.51436,4.54149,0.05819,-0.26412,-3.6678,-0.24097,0.46098,-0.50528,860,-23.724,-23.877,31.409,133.531,-59.975,-22.779,2,65.2875,19.300068,72.86194,-141.935,0,3.996,14.680643,90.7,16 / 36,39303,2018-09-02 17:23:21:144
-3.92E+00,-1.06E+00,1.09E+01,-0.93178,8.86757,7.51616,2.03742,8.43864,4.56165,-3.21475,0.73621,1.8933,-0.50037,-1.26741,0.52962,1031,-21.849,-23.502,36.159,133.324,-59.373,-24.067,2,65.2875,19.300068,72.86194,-141.935,0,3.996,14.680643,90.7,16 / 36,39403,2018-09-02 17:23:21:244
-2.11E+00,-3.36E+00,1.17E+01,2.96719,7.88086,9.07097,2.965,7.852,5.07202,0.10393,0.29827,4.17298,-0.25215,0.8839,0.49074,1031,-22.974,-22.815,34.033,127.336,-56.265,-30.911,2,65.2875,19.300068,72.86194,-141.935,0,3.996,14.680643,90.7,16 / 36,39503,2018-09-02 17:23:21:344
2.06E+00,1.26E+00,8.50E+00,3.98721,7.69331,1.75444,3.85202,8.16265,3.83452,0.10025,-0.15475,-1.51982,2.02858,0.35233,1.1006,785,-26.662,-15.752,36.533,114.753,-55.059,-37.99,2,68.5731,19.300068,72.86194,-141.935,0,3.996,14.680643,90.7,16 / 36,39603,2018-09-02 17:23:21:444
1.31E+00,1.70E+00,7.80E+00,2.74214,7.57742,0.67685,3.68696,8.53158,3.12872,-0.81909,-0.72552,-2.03396,1.19554,0.56219,0.15678,530,-29.974,-10.626,35.283,97.752,-59.439,-48.415,2,68.5731,19.300068,72.86194,-141.935,0,3.996,14.680643,90.7,16 / 36,39703,2018-09-02 17:23:21:544
2.19E+00,-5.68E-01,9.32E+00,5.22748,7.96585,1.12367,3.68167,8.69033,2.66343,1.67866,-0.41089,-1.44365,0.39499,0.17177,-0.21713,415,-32.224,-8.377,34.845,89.144,-62.008,-53.677,2,68.5731,19.300068,72.86194,-141.935,0,3.996,14.680643,90.7,16 / 36,39803,2018-09-02 17:23:21:644
-1.37E+00,3.46E-02,8.55E+00,2.03462,7.65474,3.50075,3.35945,8.76196,2.84827,-1.2013,-0.78504,0.75721,-0.01407,0.0775,-0.00514,438,-32.224,-9.126,34.409,92.033,-63.316,-50.015,2,64.7304,19.300068,72.86194,-141.935,0,3.996,14.680643,90.7,16 / 36,39903,2018-09-02 17:23:21:744
2.45E+00,1.04E+00,9.44E+00,4.18221,8.87132,-0.12288,3.71032,8.72182,2.51672,0.61148,0.47765,-2.54491,0.08447,0.46365,0.31497,509,-31.85,-6.94,34.845,86.489,-62.795,-55.851,2,64.7304,19.300056,72.861946,-145.161,0,4.68,14.680643,176.8,16 / 36,40004,2018-09-02 17:23:21:845
1.44E+00,2.66E+00,1.08E+01,2.97836,10.81389,0.30301,3.68027,8.68075,2.69638,-0.62145,2.41551,-2.18487,0.13614,0.86899,0.08701,577,-34.036,-5.064,33.971,85.456,-62.513,-55.365,2,64.7304,19.300056,72.861946,-145.161,0,4.68,14.680643,176.8,16 / 36,40103,2018-09-02 17:23:21:944
-1.51E-01,1.41E+00,1.10E+01,2.67581,10.46864,2.50105,3.14375,8.83999,2.8534,-0.35767,1.9387,-0.25227,0.70499,1.64076,-0.19637,598,-38.474,-6.564,27.095,86.341,-63.424,-49.293,2,61.793,19.300056,72.861946,-145.161,0,4.68,14.680643,176.8,16 / 36,40203,2018-09-02 17:23:22:044
-2.55E+00,2.59E-01,1.07E+01,1.13097,9.87599,4.63399,2.82507,8.98642,2.72648,-0.20197,1.08553,-0.91816,0.03334,1.93639,-0.48984,598,-39.224,-6.564,21.971,81.358,-66.4,-46.017,2,61.793,19.300056,72.861946,-145.161,0,4.68,14.680643,176.8,16 / 36,40303,2018-09-02 17:23:22:144
-3.85E+00,-3.60E+00,1.11E+01,2.21985,8.94524,8.18471,2.49865,9.07223,2.76075,-0.54788,0.25564,5.68067,1.36917,-0.24901,1.06598,644,-40.662,-6.94,16.47,73.968,-67.685,-42.147,2,61.793,19.300056,72.861946,-145.161,0,4.68,14.680643,176.8,16 / 36,40403,2018-09-02 17:23:22:244
-3.86E-01,-2.47E+00,7.98E+00,3.98788,6.46593,3.50444,2.94101,9.08625,2.22731,2.30023,-2.08112,1.05195,0.16649,-0.15527,0.46304,1045,-41.786,-3.627,18.221,63.904,-67.902,-52.862,2,61.793,19.300056,72.861946,-145.161,0,4.68,14.680643,176.8,16 / 36,40502,2018-09-02 17:23:22:343
2.01E+00,-1.66E+00,8.47E+00,5.4527,6.9053,1.05411,3.60918,8.83221,2.26633,2.05763,-1.63764,-1.23472,-1.24338,-0.19681,-0.22086,1128,-40.349,-0.627,18.596,60.691,-64.242,-57.874,2,63.2661,19.300056,72.861946,-145.161,0,4.68,14.680643,176.8,16 / 36,40603,2018-09-02 17:23:22:444
2.36E-01,-9.18E-01,9.09E+00,4.12053,7.66948,2.78569,3.6459,8.69895,2.6844,0.59693,-0.73766,0.19134,-0.18611,-0.85675,-0.1857,1303,-38.849,-1.752,23.283,66.482,-62.832,-53.222,2,63.2661,19.300056,72.861946,-145.161,0,4.68,14.680643,176.8,16 / 36,40703,2018-09-02 17:23:22:544
7.56E-01,-3.91E-01,8.75E+00,3.96034,7.58725,1.98856,3.59202,8.71309,2.71106,0.77407,-0.79276,-1.02247,-0.69104,-0.75981,-0.59157,1303,-38.474,-2.502,25.034,70.422,-62.638,-53.512,2,63.2661,19.300056,72.861946,-145.161,0,4.68,14.680643,176.8,16 / 36,40803,2018-09-02 17:23:22:644
1.89E+00,2.54E-01,9.41E+00,4.22856,8.52863,1.26622,3.18318,8.77592,3.0035,1.15719,0.06099,-1.63177,-0.68625,-0.69749,-0.78705,1326,-38.474,-5.814,22.034,77.299,-63.377,-48.026,2,64.8617,19.300056,72.861946,-145.161,0,4.68,14.680643,176.8,16 / 36,40903,2018-09-02 17:23:22:744
1.20E+00,1.79E+00,9.96E+00,2.56268,9.76622,1.35796,2.45524,8.8801,3.35947,0.22322,1.37279,-2.21663,-0.52113,-0.55847,-1.06882,1153,-35.162,-13.19,28.845,99.965,-64.653,-37.739,2,64.8617,19.300043,72.86196,-145.161,0,4.428,19.574194,145.4,16 / 36,41002,2018-09-02 17:23:22:843
1.59E+00,2.47E+00,9.38E+00,2.12781,9.5537,0.88744,1.63975,8.9133,3.74629,1.71281,0.85381,-2.99455,-1.1326,-0.60747,-1.72235,1293,-29.974,-17.252,31.409,118.828,-65.354,-23.639,2,64.8617,19.300043,72.86196,-145.161,0,4.428,19.574194,145.4,16 / 36,41103,2018-09-02 17:23:22:944
-1.68E+00,-7.67E-01,1.02E+01,-0.82103,8.73514,5.55345,0.57876,8.78408,4.3215,-1.38176,0.22461,1.36652,0.71245,-1.08844,-0.63737,1293,-23.349,-23.502,31.471,139.845,-62.776,-9.024,2,64.1878,19.300043,72.86196,-145.161,0,4.428,19.574194,145.4,16 / 36,41203,2018-09-02 17:23:23:044
-2.04E-01,-3.35E-01,7.71E+00,0.33643,6.90134,3.45277,0.30904,8.77049,4.37647,0.03722,-1.59001,-0.7844,-1.88254,0.39867,-1.18759,2046,-18.912,-24.252,35.658,148.38,-65.836,-8.944,2,64.1878,19.300043,72.86196,-145.161,0,4.428,19.574194,145.4,16 / 36,41303,2018-09-02 17:23:23:144
-1.26E+00,-3.31E+00,1.10E+01,-1.93105,7.15938,8.86481,-0.54803,7.8083,5.90767,-1.25695,-0.38778,3.01778,-1.34512,0.75021,0.00497,2414,-14.85,-30.565,29.283,162.366,-55.282,4.284,2,64.1878,19.300043,72.86196,-145.161,0,4.428,19.574194,145.4,16 / 36,41403,2018-09-02 17:23:23:244
-5.99E-01,-2.83E+00,1.12E+01,-1.24573,7.56119,8.6133,-0.54803,7.8083,5.90767,-1.25695,-0.38778,3.01778,-1.3073,0.8269,0.09019,2414,-14.85,-30.565,29.283,162.366,-55.282,4.284,2,61.8397,19.300043,72.86196,-145.161,0,4.428,19.574194,145.4,16 / 36,41503,2018-09-02 17:23:23:344
-5.99E-01,-2.83E+00,1.12E+01,-1.24573,7.56119,8.6133,-0.54803,7.8083,5.90767,-1.25695,-0.38778,3.01778,-1.3073,0.8269,0.09019,2414,-14.85,-30.565,29.283,162.366,-55.282,4.284,2,61.8397,19.300043,72.86196,-145.161,0,4.428,19.574194,145.4,16 / 36,41603,2018-09-02 17:23:23:444
6.74E-01,7.24E-01,1.14E+01,-1.20238,7.58978,8.5126,-1.67925,6.02419,7.55378,0.38358,1.71619,1.2842,-0.6692,0.657,0.13121,7436,-17.099,-30.876,28.908,166.857,-37.901,12.533,2,61.8397,19.300043,72.86196,-145.161,0,4.428,19.574194,145.4,16 / 36,41703,2018-09-02 17:23:23:544
-1.02E+00,1.88E+00,7.59E+00,-2.16531,5.82845,4.85396,-1.8151,5.52176,7.89848,-0.67974,0.82066,-2.24763,-0.9547,0.04341,0.29633,8267,-18.161,-29.814,19.408,160.484,-34.268,12.942,2,61.8397,19.300043,72.86196,-145.161,0,4.428,19.574194,145.4,16 / 36,41803,2018-09-02 17:23:23:644
-1.91E+00,1.41E+00,9.22E+00,-3.70569,5.83151,6.54671,-2.43927,4.68881,8.26047,-0.48102,1.31591,-1.94977,-0.95683,1.2104,0.24626,8516,-20.412,-30.502,13.033,151.58,-30.006,14.807,2,60.4192,19.300043,72.86196,-145.161,0,4.428,19.574194,145.4,16 / 36,41903,2018-09-02 17:23:23:744
7.88E-02,1.81E+00,8.93E+00,-1.92056,5.56311,6.95529,-2.40122,4.30673,8.47683,0.39649,1.40734,-1.22441,-0.30222,0.20107,0.58342,8516,-23.349,-28.314,9.659,148.997,-26.191,16.062,2,60.4192,19.30003,72.86196,-148.387,0,4.356,14.680643,148.6,16 / 36,42003,2018-09-02 17:23:23:844
2.50E+00,-1.21E-01,1.17E+01,-0.45146,4.99606,10.85759,-2.09804,4.69595,8.34965,1.57705,0.45574,2.78464,1.37238,-0.3044,0.92963,8352,-25.224,-25.377,10.095,146.154,-25.878,15.681,2,60.4192,19.30003,72.86196,-148.387,0,4.356,14.680643,148.6,16 / 36,42103,2018-09-02 17:23:23:944
2.77E+00,4.26E-01,1.00E+01,1.22806,5.92107,8.45169,-1.39032,5.5905,7.93623,2.57358,0.51069,0.77116,0.37688,0.28842,0.91418,8092,-25.537,-22.752,15.158,143.532,-33.802,10.657,2,60.1264,19.30003,72.86196,-148.387,0,4.356,14.680643,148.6,16 / 36,42203,2018-09-02 17:23:24:044
3.63E+00,-1.72E+00,1.15E+01,1.81795,4.68478,11.06096,-1.38289,5.06103,8.28517,3.1573,-0.2169,3.03665,-1.23166,0.18668,0.23134,7267.0005,-30.724,-20.564,11.783,133.207,-32.347,9.586,2,60.1264,19.30003,72.86196,-148.387,0,4.356,14.680643,148.6,16 / 36,42303,2018-09-02 17:23:24:144
2.80E+00,1.09E+00,8.53E+00,1.73732,5.24434,7.1608,-1.24813,4.93161,8.38402,2.94803,0.46058,-0.97188,-0.12859,-0.14674,-0.2166,7476,-29.224,-19.44,10.909,131.73,-30.315,8.657,2,60.1264,19.30003,72.86196,-148.387,0,4.356,14.680643,148.6,16 / 36,42402,2018-09-02 17:23:24:243
1.92E+00,-1.07E+00,8.89E+00,0.68338,3.39092,8.48122,-1.18362,4.85052,8.44049,1.83029,-1.30915,0.30254,0.46902,-0.36087,0.04492,7620.9995,-27.786,-20.189,10.909,133.509,-29.138,8.421,2,57.0753,19.30003,72.86196,-148.387,0,4.356,14.680643,148.6,16 / 36,42503,2018-09-02 17:23:24:344
1.84E+00,8.59E-01,7.24E+00,1.11658,4.44452,5.95825,-0.68462,5.21333,8.27785,1.7782,-0.5937,-2.04154,0.20006,-0.67725,0.15305,7552,-28.912,-19.064,13.47,135.228,-30.81,7.044,2,57.0753,19.30003,72.86196,-148.387,0,4.356,14.680643,148.6,16 / 36,42603,2018-09-02 17:23:24:444
4.49E+00,2.14E+00,8.28E+00,4.18059,6.24326,6.0645,-0.42959,5.26144,8.26457,2.8603,-0.30955,-1.94488,-0.11261,-1.10016,-0.34816,7552,-27.786,-19.815,16.846,131.735,-32.447,2.976,2,57.0753,19.30003,72.86196,-148.387,0,4.356,14.680643,148.6,16 / 36,42703,2018-09-02 17:23:24:544
1.08E+00,4.42E+00,1.16E+01,1.7083,10.03546,7.17784,0.79855,5.46759,8.10174,1.12589,4.68377,-0.57928,0.66718,-1.07672,-0.7471,6504.9995,-26.286,-21.315,20.284,130.653,-33.091,-4.959,2,54.6554,19.30003,72.86196,-148.387,0,4.356,14.680643,148.6,16 / 36,42803,2018-09-02 17:23:24:644
2.71E-01,2.81E+00,1.10E+01,0.96175,9.15694,6.71083,0.77645,6.20248,7.55624,0.33906,3.2459,-0.55311,1.3484,-0.4626,-1.07254,5360,-24.849,-20.94,19.034,134.778,-39.233,-5.867,2,54.6554,19.30003,72.86196,-148.387,0,4.356,14.680643,148.6,16 / 36,42903,2018-09-02 17:23:24:744
-1.53E+00,1.92E+00,9.77E+00,-0.97644,8.27789,5.65881,0.6853,6.94709,6.88757,-0.98286,0.71174,-0.84391,1.05865,-0.11691,-0.08876,4001,-18.912,-21.689,28.409,147.427,-45.105,-5.682,2,54.6554,19.300022,72.86196,-148.387,0,4.176,19.574194,229.4,16 / 36,43003,2018-09-02 17:23:24:844
7.78E-01,-7.83E-01,1.12E+01,2.17778,7.89629,7.68913,1.2502,7.44269,6.26209,0.95888,0.63992,1.58381,-0.06413,-0.14568,-0.57985,2648,-15.599,-19.44,31.409,145.968,-48.8,-10.228,2,60.0206,19.300022,72.86196,-148.387,0,4.176,19.574194,229.4,16 / 36,43103,2018-09-02 17:23:24:944
-2.70E-01,1.62E-01,8.78E+00,0.57004,6.6577,5.69873,0.95488,7.31868,6.45721,-0.49632,-0.34894,-0.27211,-0.35762,0.04288,-0.47758,2648,-16.35,-22.064,29.721,150.02,-48.271,-8.412,2,60.0206,19.300022,72.86196,-148.387,0,4.176,19.574194,229.4,16 / 36,43203,2018-09-02 17:23:25:044
-2.70E-01,1.62E-01,8.78E+00,0.57004,6.6577,5.69873,0.95488,7.31868,6.45721,-0.49632,-0.34894,-0.27211,-0.35762,0.04288,-0.47758,2648,-16.35,-22.064,29.721,150.02,-48.271,-8.412,2,60.0206,19.300022,72.86196,-148.387,0,4.176,19.574194,229.4,16 / 36,43303,2018-09-02 17:23:25:144
-2.70E-01,1.62E-01,8.78E+00,0.57004,6.6577,5.69873,0.95488,7.31868,6.45721,-0.49632,-0.34894,-0.27211,-0.35762,0.04288,-0.47758,2648,-16.35,-22.064,29.721,150.02,-48.271,-8.412,2,60.0206,19.300022,72.86196,-148.387,0,4.176,19.574194,229.4,16 / 36,43403,2018-09-02 17:23:25:244
-1.91E+00,1.66E+00,8.76E+00,-1.06241,7.4463,5.15752,1.03874,6.73191,7.05499,-1.94033,0.84895,-1.35146,-0.67081,0.33902,-0.00993,2476,-15.599,-21.315,30.034,150.181,-45.892,-9.575,2,64.6429,19.300022,72.86196,-148.387,0,4.176,19.574194,229.4,16 / 36,43502,2018-09-02 17:23:25:343
-1.09E+00,2.43E+00,8.94E+00,-0.55405,7.86423,4.98431,0.7107,6.70194,7.12385,-0.93777,1.34066,-1.89881,0.1862,0.82477,0.58289,2887,-15.974,-21.689,27.47,155.407,-42.881,-6.197,2,64.6429,19.300022,72.86196,-148.387,0,4.176,19.574194,229.4,16 / 36,43603,2018-09-02 17:23:25:444
-1.30E-01,3.83E+00,8.54E+00,0.11002,8.73677,3.36761,0.45369,6.93951,6.91432,-0.3911,1.95589,-3.40549,0.2661,0.84821,0.56531,2887,-18.912,-21.315,26.596,148.531,-44.781,-4.074,2,64.6429,19.300022,72.86196,-148.387,0,4.176,19.574194,229.4,16 / 36,43703,2018-09-02 17:23:25:544
8.97E-02,3.92E+00,9.90E+00,0.36922,9.91602,3.87474,0.48089,7.16994,6.67316,-0.5162,2.51717,-3.79353,0.39394,0.17177,0.6468,3105,-22.224,-19.064,26.221,146.575,-46.981,-4.122,2,66.0014,19.300022,72.86196,-148.387,0,4.176,19.574194,229.4,16 / 36,43803,2018-09-02 17:23:25:644
-2.26E-01,2.39E+00,1.09E+01,0.54218,10.0687,4.76134,0.96092,7.74705,5.93551,-0.56125,2.60208,-1.13686,1.29941,0.16751,0.61751,3052,-23.724,-17.627,21.158,132.034,-52.184,-9.196,2,66.0014,19.300022,72.86196,-148.387,0,4.176,19.574194,229.4,16 / 36,43903,2018-09-02 17:23:25:744
1.18E+00,2.04E+00,9.51E+00,1.82678,9.15225,2.99428,1.0517,8.32314,5.07835,0.69749,1.03733,-3.32403,-0.04337,0.7534,0.39912,2702,-25.911,-13.565,29.659,131.453,-58.073,-11.7,2,66.0014,19.300013,72.86196,-148.387,0,4.068,19.574194,187.9,15 / 36,44003,2018-09-02 17:23:25:844
3.64E+00,-1.13E+00,9.65E+00,4.88886,7.6862,4.97186,1.10578,8.43058,4.88599,3.80925,-0.54483,0.20152,0.08501,0.59894,0.1898,2865,-30.724,-9.502,13.47,106.787,-58.923,-13.084,2,64.277,19.300013,72.86196,-148.387,0,4.068,19.574194,187.9,15 / 36,44103,2018-09-02 17:23:25:944
2.82E+00,-2.59E-01,8.64E+00,3.77817,7.29016,3.90906,1.16671,8.45981,4.82087,2.78621,-1.14488,0.79351,0.65279,-0.1313,0.19673,2865,-30.35,-12.064,10.471,103.485,-59.193,-12.788,2,64.277,19.300013,72.86196,-148.387,0,4.068,19.574194,187.9,15 / 36,44202,2018-09-02 17:23:26:043
2.35E+00,-3.26E-01,8.96E+00,3.49464,7.53963,4.10158,1.25444,8.39206,4.9163,2.27155,-0.64273,-0.69187,-0.45668,-0.22345,-0.17133,3096,-31.85,-10.626,15.596,108.886,-59.325,-14.631,2,64.277,19.300013,72.86196,-148.387,0,4.068,19.574194,187.9,15 / 36,44303,2018-09-02 17:23:26:144
2.21E+00,1.19E+00,9.11E+00,3.22639,8.3019,3.15179,1.58629,8.20811,5.12651,1.4335,0.23512,-2.32622,-0.20528,-0.50201,0.40126,3027,-29.224,-12.439,14.284,109.772,-57.18,-16.381,2,64.277,19.300013,72.86196,-148.387,0,4.068,19.574194,187.9,15 / 36,44403,2018-09-02 17:23:26:244
2.61E+00,2.04E+00,8.67E+00,3.57716,8.35674,1.87422,2.26191,8.16313,4.94141,1.40646,0.40662,-2.92236,-0.24203,-0.72252,-0.05042,2557,-31.85,-9.502,16.47,105.941,-56.509,-22.101,2,57.3045,19.300013,72.86196,-148.387,0,4.068,19.574194,187.9,15 / 36,44503,2018-09-02 17:23:26:344
1.67E+00,1.82E+00,8.84E+00,2.99216,8.30817,2.50525,2.31268,8.05308,5.09606,0.74463,0.48194,-2.44726,-0.49344,-0.66499,-0.56441,2557,-27.412,-13.19,14.783,106.816,-55.398,-24.712,2,57.3045,19.300013,72.86196,-148.387,0,4.068,19.574194,187.9,15 / 36,44603,2018-09-02 17:23:26:444
3.33E-01,2.35E+00,9.05E+00,1.55278,8.71376,3.02333,2.03361,7.92947,5.39984,-0.4219,1.01407,-2.22003,-0.56108,-0.62718,-0.79984,2226,-22.224,-18.002,17.72,122.521,-54.24,-21.566,2,57.3045,19.300013,72.86196,-148.387,0,4.068,19.574194,187.9,15 / 36,44703,2018-09-02 17:23:26:544
-3.41E-01,3.74E+00,8.01E+00,0.19412,8.67456,1.73215,1.67409,7.89203,5.57527,-1.42864,1.02448,-3.67219,-0.46628,-0.4919,-0.65921,2441,-17.474,-21.315,18.596,136.681,-53.836,-17.663,2,56.2252,19.300013,72.86196,-148.387,0,4.068,19.574194,187.9,15 / 36,44803,2018-09-02 17:23:26:644
