ACCELEROMETER X (m/s²),ACCELEROMETER Y (m/s²),ACCELEROMETER Z (m/s²),GRAVITY X (m/s²),GRAVITY Y (m/s²),GRAVITY Z (m/s²),LINEAR ACCELERATION X (m/s²),LINEAR ACCELERATION Y (m/s²),LINEAR ACCELERATION Z (m/s²),GYROSCOPE X (rad/s),GYROSCOPE Y (rad/s),GYROSCOPE Z (rad/s),LIGHT (lux),MAGNETIC FIELD X (μT),MAGNETIC FIELD Y (μT),MAGNETIC FIELD Z (μT),ORIENTATION Z (azimuth °),ORIENTATION X (pitch °),ORIENTATION Y (roll °),PROXIMITY (i),SOUND LEVEL (dB),LOCATION Latitude : ,LOCATION Longitude : ,LOCATION Altitude ( m),LOCATION Altitude-google ( m),LOCATION Speed ( Kmh),LOCATION Accuracy ( m),LOCATION ORIENTATION (°),Satellites in range,Time since start in ms ,YYYY-MO-DD HH-MI-SS_SSS
-0.20953,3.46577,9.12888,0.43856,3.77953,9.03843,-0.66639,-0.26178,0.33775,-0.01506,-0.10622,0.17537,3973,0.018,-35.876,5.521,179.531,-22.669,-2.778,1.97,65.3901,15.549856,73.76347,-225.806,NaN,0,14.680643,,15 / 36,9,2019-01-17 16:05:28:138
0.39197,3.37549,9.1665,0.53144,3.65648,9.08395,-0.1573,-0.20942,0.09024,-0.14555,0.10204,0.17216,4002,-1.855,-36.252,5.521,176.2,-22.23,-3.48,1.97,65.3901,15.549856,73.76347,-225.806,NaN,0,14.680643,,15 / 36,109,2019-01-17 16:05:28:238
-0.02031,3.38072,9.59187,0.45133,3.53014,9.1381,-0.46887,-0.12775,0.50985,-0.06938,0.14572,0.08162,4026,1.144,-35.876,4.332,181.31,-21.099,-2.828,1.97,65.3901,15.549856,73.76347,-225.806,NaN,0,14.680643,,15 / 36,209,2019-01-17 16:05:28:338
0.19147,3.41928,8.71718,0.45656,3.58042,9.11825,-0.27618,-0.12234,-0.26854,0.01263,0.04558,0.03316,4171,-1.106,-35.501,5.145,177.984,-21.283,-2.811,1.97,65.3901,15.549856,73.76347,-225.806,NaN,0,14.680643,,15 / 36,309,2019-01-17 16:05:28:438
-0.25304,3.27634,8.86005,0.39144,3.55662,9.13059,-0.40729,-0.19373,-0.06255,0.00145,0.00723,-0.02757,4187,-1.482,-35.876,5.583,177.985,-21.265,-2.455,1.97,65.3901,15.549856,73.76347,-225.806,NaN,0,14.680643,,15 / 36,409,2019-01-17 16:05:28:538
0.08282,3.21175,8.7802,0.31944,3.49266,9.15804,-0.17243,-0.23172,-0.25972,-0.12691,0.08926,0.05553,4249,-1.106,-36.252,5.145,178.086,-21,-2.103,1.97,65.3901,15.549856,73.76347,-225.806,NaN,0,14.680643,,15 / 36,509,2019-01-17 16:05:28:638
-0.26549,3.05496,10.2989,0.12119,3.24382,9.25383,-0.32522,-0.10772,1.23355,-0.06087,0.18886,0.1727,4249,-3.294,-36.252,3.458,175.242,-19.752,-1.332,1.97,65.3901,15.549856,73.76347,-225.806,NaN,0,14.680643,,15 / 36,609,2019-01-17 16:05:28:738
-0.22557,2.66531,10.85468,0.04939,3.20674,9.2674,-0.0283,-0.5238,0.95058,-0.08003,0.42801,0.145,4366,-2.168,-37.314,4.332,176.81,-19.087,-0.305,1.97,65.3901,15.549856,73.76347,-225.806,NaN,0,14.680643,,15 / 36,709,2019-01-17 16:05:28:838
0.10522,2.91913,9.52675,-0.04126,3.14138,9.2898,-0.25721,-0.05651,0.40573,-0.22278,0.13133,0.11731,4629,-1.855,-37.001,4.77,176.895,-19.058,0.16,1.97,65.3901,15.549856,73.76347,-225.806,NaN,0,14.680643,,15 / 36,809,2019-01-17 16:05:28:938
-0.22411,2.92717,8.94588,-0.1261,3.06802,9.31353,-0.09847,-0.12955,-0.33337,0.1394,-0.03004,-0.0787,4689,-2.168,-37.001,4.332,176.941,-18.231,0.776,1.97,65.3901,15.549856,73.76347,-225.806,NaN,0,14.680643,,15 / 36,910,2019-01-17 16:05:29:039
0.38095,3.20752,8.95927,-0.14643,3.02717,9.32658,0.38177,0.20515,-0.30202,-0.10667,0.01682,-0.11652,4777,-2.168,-36.626,2.646,176.906,-17.98,0.899,1.97,65.3901,15.549856,73.76347,-225.806,NaN,0,14.680643,,15 / 36,1009,2019-01-17 16:05:29:138
0.13541,3.35811,8.56558,-0.16139,2.99984,9.33516,0.28758,0.37259,-0.65128,-0.13223,-0.00714,-0.25607,4829,-1.855,-35.876,3.02,178.619,-17.808,1.016,1.97,65.3901,15.549856,73.76347,-225.806,NaN,0,14.680643,,15 / 36,1109,2019-01-17 16:05:29:238
0.06026,3.10909,9.27751,-0.14034,2.93017,9.35761,0.27607,0.193,-0.08335,0.06165,-0.09024,-0.26779,4878,0.394,-36.252,4.77,180.12,-17.385,0.859,1.97,65.3901,15.549856,73.76347,-225.806,NaN,0,14.680643,,15 / 36,1209,2019-01-17 16:05:29:338
-0.43059,2.72411,9.50871,-0.14793,2.96981,9.34498,-0.27255,-0.26777,0.28119,0.12556,-0.1158,-0.11226,4850,-0.356,-36.626,3.458,180.075,-17.628,0.907,1.97,65.3901,15.549856,73.76347,-225.806,NaN,0,14.680643,,15 / 36,1309,2019-01-17 16:05:29:438
-0.90694,3.0538,9.22945,-0.13332,2.96214,9.34764,-0.60569,0.09452,-0.01847,-0.02783,-0.04123,-0.00839,4850,1.144,-37.689,2.646,181.609,-17.581,0.817,1.97,65.3901,15.549856,73.76347,-225.806,NaN,0,14.680643,,15 / 36,1410,2019-01-17 16:05:29:539
-0.13861,2.77489,10.03915,-0.03013,2.89653,9.36908,-0.10861,-0.10943,0.70958,0.09148,0.05464,0.12531,4786,0.769,-35.876,4.332,181.656,-17.253,0.408,1.97,65.3901,15.549856,73.76347,-225.806,NaN,0,14.680643,,15 / 36,1509,2019-01-17 16:05:29:638
-0.12936,2.87338,9.68687,-0.05863,2.85835,9.38066,-0.17608,0.0787,0.31443,-0.12531,0.07861,0.31384,4787,-1.106,-37.314,3.082,178.45,-16.946,0.358,1.97,65.3901,15.549856,73.76347,-225.806,NaN,0,14.680643,,15 / 36,1610,2019-01-17 16:05:29:739
0.07813,2.80481,9.54958,-0.02942,2.90175,9.36746,0.16344,-0.13181,0.13583,0.1165,0.20537,0.33728,4848,-1.482,-36.252,2.208,178.408,-16.946,0.358,1.97,65.3901,15.549856,73.76347,-225.806,NaN,0,14.680643,,15 / 36,1710,2019-01-17 16:05:29:839
-0.32571,2.58933,9.38199,-0.16369,2.86698,9.37678,-0.42913,-0.4383,0.21149,-0.0305,0.06104,0.24887,4916,-3.294,-35.876,-4.543,174.653,-16.999,1,1.97,65.3901,15.549856,73.76347,-225.806,NaN,0,14.680643,,15 / 36,1809,2019-01-17 16:05:29:938
-0.40863,2.41632,9.7265,-0.30743,2.76263,9.40445,-0.22129,-0.32142,0.63737,0.13089,0.25703,0.23289,5080,-1.855,-36.252,1.77,173.298,-16.821,1.214,1.97,65.3901,15.549856,73.76347,-225.806,NaN,0,14.680643,,15 / 36,1909,2019-01-17 16:05:30:038
-0.9223,2.16801,9.60925,-0.44852,2.56693,9.4541,-0.87959,-0.55194,0.71135,-0.50134,0.26822,0.06937,5333,-2.168,-37.689,0.52,176.979,-15.174,2.716,1.97,65.3901,15.549856,73.76347,-225.806,NaN,0,14.680643,,15 / 36,2009,2019-01-17 16:05:30:138
-0.97122,2.50777,9.77472,-0.52312,2.33812,9.50947,-0.45012,0.17867,0.30195,-0.1301,0.32042,0.11359,5620,-3.294,-36.252,1.833,175.337,-14.386,2.846,1.97,65.3901,15.549856,73.76347,-225.806,NaN,0,14.680643,,15 / 36,2110,2019-01-17 16:05:30:239
0.0607,1.35783,11.29082,-0.72465,2.09381,9.55307,0.83655,-0.36751,0.48202,-0.4662,0.23892,0.23662,5620,-3.668,-37.376,-1.105,173.693,-13.021,3.845,1.97,65.3901,15.549856,73.76347,-225.806,NaN,0,14.680643,,15 / 36,2209,2019-01-17 16:05:30:338
-0.39093,2.15358,9.81833,-0.54598,2.19868,9.54139,-0.25095,0.11085,-0.5035,-0.0582,0.17607,0.14873,5868.9995,-4.044,-36.626,-0.293,173.687,-12.949,3.048,1.97,65.3901,15.549856,73.76347,-225.806,NaN,1.224,14.680643,198.5,15 / 36,2309,2019-01-17 16:05:30:438
-0.41934,2.40259,8.93776,-0.52944,2.2112,9.53943,0.07042,0.19848,-0.61657,-0.14182,0.2352,0.15405,6174,-4.044,-36.626,0.52,173.683,-13.128,3.071,1.97,65.3901,15.549856,73.76347,-225.806,NaN,1.224,14.680643,198.5,15 / 36,2409,2019-01-17 16:05:30:538
-0.71712,2.63243,8.68134,-0.4072,2.23763,9.53927,0.00787,0.18355,-0.17183,0.21132,-0.44498,-0.15646,5948,-4.419,-36.252,0.145,173.502,-13.19,2.444,1.97,65.3901,15.549856,73.76347,-225.806,NaN,1.224,14.680643,198.5,15 / 36,2509,2019-01-17 16:05:30:638
-0.44826,2.29346,10.50562,-0.38018,2.20411,9.54818,-0.18465,0.15052,0.85251,0.19481,-0.15096,-0.04195,5956.9995,-4.044,-37.001,-1.543,173.475,-12.989,2.28,1.97,65.3901,15.549856,73.76347,-225.806,NaN,1.224,14.680643,198.5,15 / 36,2611,2019-01-17 16:05:30:740
-0.60754,2.72948,9.08731,-0.26472,2.46042,9.48929,0.16317,0.26324,-0.73369,0.23476,-0.12486,-0.0313,5840.9995,-5.168,-37.314,1.395,173.759,-13.53,1.983,1.97,65.3901,15.549856,73.76347,-225.806,NaN,1.224,14.680643,198.5,15 / 36,2710,2019-01-17 16:05:30:839
-0.35091,2.55727,9.1996,-0.2292,2.57289,9.46034,-0.15353,-0.23587,-0.09666,0.02489,-0.11047,-0.13303,5702,-3.294,-37.376,0.958,175.281,-15.134,1.553,1.97,65.3901,15.549856,73.76347,-225.806,NaN,1.224,14.680643,198.5,15 / 36,2809,2019-01-17 16:05:30:938
-0.70802,2.38403,10.16748,-0.21521,2.55827,9.46464,-0.54199,-0.13041,-0.0952,0.03554,-0.22499,-0.18204,5544.9995,-2.919,-35.876,0.958,173.262,-15.126,1.446,1.97,65.3901,15.549856,73.76347,-225.806,NaN,1.224,14.680643,198.5,15 / 36,2911,2019-01-17 16:05:31:040
-0.12875,1.94672,9.72963,-0.2117,2.47589,9.4866,-0.17909,-0.48698,0.16951,-0.17857,0.23787,0.07043,5508,-1.482,-37.001,0.082,178.398,-14.957,1.103,1.97,65.3901,15.549856,73.76347,-225.806,NaN,1.224,14.680643,198.5,15 / 36,3009,2019-01-17 16:05:31:138
0.04221,2.13322,9.82857,-0.21979,2.37014,9.51339,0.32111,-0.14846,0.0818,-0.17857,0.20432,-0.01585,5512,-2.544,-36.252,-0.293,175.081,-14.624,1.278,1.97,65.3901,15.549856,73.76347,-225.806,NaN,1.224,14.680643,198.5,15 / 36,3109,2019-01-17 16:05:31:238
0.2473,2.28574,9.95883,-0.31182,2.07298,9.57998,0.55825,0.21855,0.40565,-0.24942,0.40617,-0.02118,5630,-2.544,-35.501,-1.605,174.967,-12.204,1.864,1.97,65.3901,15.549856,73.76347,-225.806,NaN,1.224,14.680643,198.5,15 / 36,3209,2019-01-17 16:05:31:338
-0.19113,1.82829,10.92726,-0.25827,2.07079,9.58204,-0.11224,-0.18373,1.14263,0.26936,-0.11154,-0.15327,5836.9995,-2.168,-37.001,-1.981,176.711,-11.995,1.653,1.97,65.3901,15.549856,73.76347,-222.581,NaN,1.08,14.680643,198.4,15 / 36,3309,2019-01-17 16:05:31:438
-0.25174,2.65158,9.032,-0.2803,2.15146,9.56363,0.02787,0.50542,-0.50808,-0.04701,-0.18239,-0.10373,5864,-1.855,-36.626,-1.543,176.699,-12.673,1.679,1.97,65.3901,15.549856,73.76347,-222.581,NaN,1.08,14.680643,198.4,15 / 36,3409,2019-01-17 16:05:31:538
0.33885,2.27286,9.45441,-0.17862,2.19543,9.55608,0.6893,0.22806,-0.48917,0.02756,-0.08598,0.00546,5843.0005,-2.168,-36.252,-1.167,175.096,-12.568,1.844,1.97,65.3901,15.549856,73.76347,-222.581,NaN,1.08,14.680643,198.4,15 / 36,3509,2019-01-17 16:05:31:638
-0.4817,1.61945,9.53551,-0.02938,2.37329,9.51509,-0.77038,-0.63346,0.20812,0.18628,-0.20688,0.13222,5784,-1.482,-37.689,-0.293,174.993,-13.183,0.934,1.97,65.3901,15.549856,73.76347,-222.581,NaN,1.08,14.680643,198.4,15 / 36,3609,2019-01-17 16:05:31:738
-1.20711,1.95055,10.72466,0.08921,2.41096,9.50525,-1.31156,-0.3983,1.6281,0.16338,-0.0945,0.28296,5578,-3.668,-36.626,-0.293,173.635,-14.243,-0.287,1.97,65.3901,15.549856,73.76347,-222.581,NaN,1.08,14.680643,198.4,15 / 36,3709,2019-01-17 16:05:31:838
-0.86832,2.82951,8.49365,0.14139,2.6578,9.43857,-1.37097,0.09995,0.7512,0.34979,0.20432,0.60893,5476.9995,-5.856,-36.626,-6.606,173.623,-15.168,-1.076,1.97,65.3901,15.549856,73.76347,-222.581,NaN,1.08,14.680643,198.4,15 / 36,3809,2019-01-17 16:05:31:938
-0.52211,2.15421,10.77792,0.06561,2.56102,9.46611,-0.58757,-0.40124,1.33241,0.02596,0.0882,0.25259,5476.9995,-6.606,-36.252,0.52,168.931,-15.153,-0.451,1.97,65.3901,15.549856,73.76347,-222.581,NaN,1.08,14.680643,198.4,15 / 36,3909,2019-01-17 16:05:32:038
0.84427,2.08963,10.4053,-0.08479,2.39254,9.50994,0.92895,-0.29957,0.90861,0.15645,0.0589,0.18123,5467.0005,-6.232,-36.626,0.145,171.531,-14.927,-0.176,1.97,65.3901,15.549856,73.76347,-222.581,NaN,1.08,14.680643,198.4,15 / 36,4009,2019-01-17 16:05:32:138
0.01692,2.53479,8.61179,-0.15945,2.50337,9.48041,0.19915,0.07533,-0.85492,-0.1104,0.24319,-0.07817,5648.9995,-6.232,-36.626,-2.792,170.203,-14.79,0.964,1.97,65.3901,15.549856,73.76347,-222.581,NaN,1.08,14.680643,198.4,15 / 36,4109,2019-01-17 16:05:32:238
-0.42047,1.73161,10.81667,-0.33462,2.26217,9.5363,0.21846,-0.50068,1.33738,-0.06992,-0.13605,-0.10959,5916,-7.356,-36.252,-2.417,168.754,-13.597,2.136,1.97,65.3901,15.549856,73.76347,-222.581,NaN,1.08,14.680643,198.4,15 / 36,4209,2019-01-17 16:05:32:338
-0.72633,2.50555,9.86327,-0.2888,2.28319,9.53279,-0.45821,0.31423,0.17093,-0.08589,-0.01674,-0.01639,6103.0005,-7.356,-37.001,-2.792,168.655,-13.73,1.527,1.97,65.3901,15.549856,73.76347,-225.806,NaN,1.548,14.680643,198.5,15 / 36,4309,2019-01-17 16:05:32:438
-0.55347,2.20554,8.83374,-0.36016,2.15723,9.55966,0.1199,-0.03508,0.09784,-0.29095,0.20218,-0.11865,6172.9995,-7.732,-36.626,-1.543,168.897,-13.447,1.643,1.97,65.3901,15.549856,73.76347,-225.806,NaN,1.548,14.680643,198.5,15 / 36,4409,2019-01-17 16:05:32:538
-0.61603,2.45236,9.45229,-0.41007,2.09216,9.5721,-0.22664,0.41346,-0.19664,-0.05873,0.01682,-0.11865,6223.0005,-8.105,-36.626,-1.981,167.278,-12.448,2.367,1.97,65.3901,15.549856,73.76347,-225.806,NaN,1.548,14.680643,198.5,15 / 36,4509,2019-01-17 16:05:32:638
-0.41988,2.13443,10.30272,-0.38612,2.06283,9.57946,-0.0245,0.04929,0.70076,0.1703,-0.15256,-0.18736,6382,-6.606,-35.876,-2.417,168.521,-11.958,2.499,1.97,65.3901,15.549856,73.76347,-225.806,NaN,1.548,14.680643,198.5,15 / 36,4609,2019-01-17 16:05:32:738
-0.7462,2.39027,9.30885,-0.32735,2.1486,9.56278,-0.2275,0.28105,-0.43134,0.05792,-0.09929,-0.23157,6371.0005,-5.168,-36.626,-2.417,171.926,-12.457,2.099,1.97,65.3901,15.549856,73.76347,-225.806,NaN,1.548,14.680643,198.5,15 / 36,4709,2019-01-17 16:05:32:838
-0.42313,2.11528,9.41031,-0.2039,2.33301,9.52291,-0.15857,-0.24229,0.23149,0.31198,-0.22552,-0.24648,6148.9995,-4.794,-37.001,-2.855,168.986,-12.656,1.961,1.97,65.3901,15.549856,73.76347,-225.806,NaN,1.548,14.680643,198.5,15 / 36,4809,2019-01-17 16:05:32:938
-0.3959,1.9717,9.69783,-0.09193,2.59443,9.45679,-0.30397,-0.62262,0.24145,0.21025,-0.09875,-0.30453,5982,-6.232,-37.001,-5.792,171.979,-14.598,0.726,1.97,65.3901,15.549856,73.76347,-225.806,NaN,1.548,14.680643,198.5,15 / 36,4909,2019-01-17 16:05:33:038
-0.42766,2.46288,9.49571,-0.08944,2.64834,9.44186,-0.48557,-0.20701,-0.35903,-0.34262,0.00777,-0.09148,5695.0005,-2.919,-37.001,-1.105,175.136,-15.668,0.543,1.97,65.3901,15.549856,73.76347,-225.806,NaN,1.548,14.680643,198.5,15 / 36,5010,2019-01-17 16:05:33:139
-0.19846,2.56001,9.61546,-0.11703,2.41653,9.50353,-0.08152,0.14557,0.12015,-0.09496,0.00563,-0.10959,5492,-3.668,-37.314,-1.605,173.498,-14.823,0.559,1.97,65.3901,15.549856,73.76347,-225.806,NaN,1.548,14.680643,198.5,15 / 36,5109,2019-01-17 16:05:33:238
0.02066,2.77925,8.8409,-0.14554,2.36337,9.5165,0.13764,0.28011,0.11307,-0.00493,-0.02525,-0.06219,5602,-2.168,-38.063,-1.105,176.853,-13.945,0.876,1.97,65.3901,15.549856,73.76347,-225.806,NaN,1.548,14.680643,198.5,15 / 36,5209,2019-01-17 16:05:33:338
0.03981,2.61165,9.50967,-0.13646,2.2374,9.54703,0.15703,0.33913,-0.01899,-0.09335,-0.03111,-0.02811,5636,-2.168,-37.001,-1.981,176.729,-13.408,0.884,1.97,65.3901,15.549856,73.76347,-225.806,NaN,1.62,14.680643,198.4,15 / 36,5309,2019-01-17 16:05:33:438
0.06013,2.46603,9.28261,-0.11449,2.25429,9.54335,-0.17076,0.28173,0.01205,0.08083,-0.03325,0.00172,5698,-2.168,-37.001,-3.23,176.745,-13.078,0.777,1.97,65.3901,15.549856,73.76347,-225.806,NaN,1.62,14.680643,198.4,15 / 36,5409,2019-01-17 16:05:33:538
-0.19757,2.34062,8.64523,-0.16159,2.29366,9.53328,-0.03605,0.04795,-0.88396,-0.2558,0.18886,0.06564,5698,-1.855,-37.314,-1.543,176.723,-13.526,0.971,1.97,65.3901,15.549856,73.76347,-225.806,NaN,1.62,14.680643,198.4,15 / 36,5509,2019-01-17 16:05:33:638
-0.0368,2.41995,9.4164,-0.14434,2.31757,9.52777,0.07987,0.12386,-0.10007,0.10745,-0.00662,-0.03981,5667.0005,-1.482,-38.063,-2.417,174.985,-12.93,1.264,1.97,65.3901,15.549856,73.76347,-225.806,NaN,1.62,14.680643,198.4,15 / 36,5609,2019-01-17 16:05:33:738
-0.326,2.38153,9.97691,-0.1517,2.37574,9.51332,0.05374,0.05367,0.43455,0.11064,8.40E-04,-0.01212,5766,-1.482,-37.001,-3.23,178.297,-13.804,0.904,1.97,65.3901,15.549856,73.76347,-225.806,NaN,1.62,14.680643,198.4,15 / 36,5709,2019-01-17 16:05:33:838
-0.6817,2.23874,9.14102,-0.18116,2.46837,9.48919,-0.26461,-0.32394,0.22829,0.09734,0.01895,0.0928,5632,-1.106,-37.689,-2.792,178.336,-14.232,0.936,1.97,65.3901,15.549856,73.76347,-225.806,NaN,1.62,14.680643,198.4,15 / 36,5809,2019-01-17 16:05:33:938
0.01579,2.48405,8.15624,-0.19664,2.42537,9.49996,0.21145,0.07638,-1.33888,-0.39854,0.05676,0.1972,5628,-2.544,-38.438,-3.667,175.086,-14.319,1.186,1.97,65.3901,15.549856,73.76347,-225.806,NaN,1.62,14.680643,198.4,15 / 36,5909,2019-01-17 16:05:34:038
-1.07489,1.94031,10.74461,-0.23676,2.25689,9.54048,-0.18684,-0.23255,1.05489,0.23528,0.01788,0.41878,5634,-2.544,-37.689,-4.105,175.087,-12.702,1.631,1.97,65.3901,15.549856,73.76347,-225.806,NaN,1.62,14.680643,198.4,15 / 36,6009,2019-01-17 16:05:34:138
0.11368,1.59769,9.09842,-0.26894,2.24221,9.54309,0.51366,-0.56524,-0.78026,-0.24461,0.028,-0.04301,5878,-3.668,-37.689,-4.918,172.05,-13.94,1.018,1.97,65.3901,15.549856,73.76347,-225.806,NaN,1.62,14.680643,198.4,15 / 36,6110,2019-01-17 16:05:34:239
-1.01199,2.01962,9.61488,-0.21918,2.14674,9.56629,-0.5901,-0.10992,1.01753,-0.01611,-0.01939,0.12796,5943.0005,-4.794,-38.063,-4.918,171.892,-12.821,1.444,1.97,65.3901,15.549856,73.76347,-225.806,NaN,1.62,14.680643,198.4,15 / 36,6209,2019-01-17 16:05:34:338
-0.21642,2.38556,9.47553,-0.09587,2.24375,9.54603,-0.11988,0.19965,-0.09686,0.08615,-0.20209,-0.03236,6016.9995,-4.419,-37.689,-4.105,173.612,-13.226,0.575,1.97,65.3901,15.549856,73.76347,-229.032,NaN,1.332,14.680643,198.4,15 / 36,6309,2019-01-17 16:05:34:438
-0.30792,1.94585,9.27995,-0.03418,2.32471,9.52706,-0.27376,-0.3772,-0.24029,0.15538,-0.26973,-0.12184,6016.9995,-4.044,-38.063,-5.354,175.181,-13.442,0.543,1.97,65.3901,15.549856,73.76347,-229.032,NaN,1.332,14.680643,198.4,15 / 36,6410,2019-01-17 16:05:34:539
0.09335,1.68997,9.05507,0.06597,2.46723,9.49099,-0.08853,-0.62813,-0.28748,0.16444,-0.21806,-0.09308,5967.0005,-2.919,-37.689,-2.792,173.65,-13.939,-0.046,1.97,65.3901,15.549856,73.76347,-229.032,NaN,1.332,14.680643,198.4,15 / 36,6509,2019-01-17 16:05:34:638
-0.58878,1.96553,9.02373,0.05145,2.4105,9.50564,-0.62145,-0.46156,-0.37868,-0.14395,-0.13605,-0.06378,5788,-4.044,-38.063,-4.543,175.395,-14.571,-0.398,1.97,65.3901,15.549856,73.76347,-229.032,NaN,1.332,14.680643,198.4,15 / 36,6609,2019-01-17 16:05:34:738
0.37912,2.55217,9.74377,-0.05359,2.32549,9.52678,0.19991,-0.06677,0.78515,0.19427,0.03546,0.11891,5752.9995,-4.044,-38.438,-5.354,173.569,-13.717,0.322,1.97,65.3901,15.549856,73.76347,-229.032,NaN,1.332,14.680643,198.4,15 / 36,6709,2019-01-17 16:05:34:838
0.06244,1.56766,9.79945,-0.10501,2.2244,9.55047,0.05655,-0.51482,-0.40906,-0.50774,0.30658,-4.00E-04,5972,-4.419,-37.689,-5.354,173.739,-14.028,0.213,1.97,65.3901,15.549856,73.76347,-229.032,NaN,1.332,14.680643,198.4,15 / 36,6809,2019-01-17 16:05:34:938
0.21095,1.96112,9.46677,-0.16543,2.18543,9.55861,0.39899,-0.30016,0.15677,0.14952,-0.119,-0.20813,5980,-2.919,-37.689,-5.354,168.372,-12.542,1.109,1.97,65.3901,15.549856,73.76347,-229.032,NaN,1.332,14.680643,198.4,15 / 36,6909,2019-01-17 16:05:35:038
0.48752,2.07697,9.60053,-0.15054,2.13052,9.57124,0.4785,-0.10881,0.62994,0.09306,-0.1254,-0.01692,5996.9995,-2.919,-38.438,-4.042,175.127,-12.742,1.242,1.97,65.3901,15.549856,73.76347,-229.032,NaN,1.332,14.680643,198.4,15 / 36,7009,2019-01-17 16:05:35:138
-0.01765,1.78488,9.8752,-0.1374,2.21415,9.55244,0.13424,-0.48158,0.53967,0.20705,-0.14244,-0.14209,6008.9995,-3.668,-38.063,-5.354,173.514,-12.78,1.029,1.97,65.3901,15.549856,73.76347,-229.032,NaN,1.332,14.680643,198.4,15 / 36,7109,2019-01-17 16:05:35:238
-0.05965,2.38893,9.02798,-0.06482,2.37853,9.51361,0.00514,0.01156,-0.48101,0.06697,0.04132,-0.02544,6008.9995,-2.544,-38.438,-3.23,175.303,-13.843,0.475,1.97,65.3901,15.549856,73.76347,-229.032,NaN,1.332,14.680643,198.4,15 / 36,7209,2019-01-17 16:05:35:338
-0.6357,2.25827,9.91614,-0.00304,2.3471,9.52163,-0.17266,-0.07222,0.28575,-0.08963,-0.16374,-0.13782,5939.0005,-2.168,-38.063,-4.48,176.813,-13.847,0.018,1.97,65.3901,15.549856,73.76347,-229.032,NaN,1.08,14.680643,198.4,15 / 36,7311,2019-01-17 16:05:35:440
-0.52321,2.09845,9.72255,0.02407,2.51386,9.47894,-0.54726,-0.41436,0.24757,0.09467,0.1111,-0.08882,5758,-2.919,-38.438,-4.918,178.469,-13.794,-0.192,1.97,65.3901,15.549856,73.76347,-229.032,NaN,1.08,14.680643,198.4,15 / 36,7409,2019-01-17 16:05:35:538
-0.36928,2.3474,8.14365,0.02211,2.63137,9.447,-0.28873,-0.29605,-1.48024,-0.22545,0.06743,-0.06538,5763.0005,-2.168,-39.189,-1.981,178.417,-15.194,0.156,1.97,65.3901,15.549856,73.76347,-229.032,NaN,1.08,14.680643,198.4,15 / 36,7509,2019-01-17 16:05:35:638
-0.2099,1.94353,9.95132,-0.01348,2.46677,9.49133,-0.54686,-0.21287,0.24095,-0.06566,-0.10089,0.11198,5624,-1.482,-39.189,-3.23,178.434,-15.062,0.164,1.97,65.3901,15.549856,73.76347,-229.032,NaN,1.08,14.680643,198.4,15 / 36,7609,2019-01-17 16:05:35:738
-1.28412,2.09843,10.13493,0.0354,2.2432,9.54658,-1.34246,-0.11558,0.60835,-0.17218,-0.11526,0.21797,5656.9995,-2.168,-38.814,-4.918,176.892,-14.345,-0.029,1.97,65.3901,15.549856,73.76347,-229.032,NaN,1.08,14.680643,198.4,15 / 36,7709,2019-01-17 16:05:35:838
0.12654,1.89821,10.68147,0.0027,2.086,9.58222,0.21248,-0.13388,0.97154,0.13728,-0.03644,0.01398,5742,-2.919,-38.814,-4.48,175.398,-12.281,-0.016,1.97,65.3901,15.549856,73.76347,-229.032,NaN,1.08,14.680643,198.4,15 / 36,7809,2019-01-17 16:05:35:938
-0.80814,1.91576,10.39314,-0.01774,2.15732,9.5664,-0.76748,-0.22619,0.74243,0.18309,-0.23032,-0.06485,5898,-2.168,-39.563,-4.918,173.516,-12.592,-0.189,1.97,65.3901,15.549856,73.76347,-229.032,NaN,1.08,14.680643,198.4,15 / 36,7909,2019-01-17 16:05:36:038
-0.64508,2.2923,8.5623,0.04593,2.28056,9.53768,-0.79326,0.037,-1.00265,0.07283,0.18779,0.03209,5892,-1.106,-38.814,-5.354,176.939,-13.012,-0.228,1.97,65.3901,15.549856,73.76347,-229.032,NaN,1.08,14.680643,198.4,15 / 36,8009,2019-01-17 16:05:36:138
-0.64972,2.32597,8.68767,0.02027,2.41689,9.50414,-0.65665,-0.07353,-0.82702,0.06378,0.02748,0.02676,5768.9995,0.394,-39.563,-5.73,175.334,-13.681,-0.04,1.97,65.3901,15.549856,73.76347,-229.032,NaN,1.08,14.680643,198.4,15 / 36,8110,2019-01-17 16:05:36:239
-0.4637,2.27779,8.89459,-0.03458,2.45338,9.49474,-0.82795,-0.23511,0.0171,0.05685,-0.04283,-0.00732,5750,-3.668,-39.189,-4.48,175.199,-14.268,-0.122,1.97,65.3901,15.549856,73.76347,-229.032,NaN,1.08,14.680643,198.4,15 / 36,8209,2019-01-17 16:05:36:338
-0.60866,2.39053,9.7121,-0.10985,2.49774,9.4826,-0.44666,-0.07638,0.13359,0.06644,0.11429,0.07097,5756.9995,-2.919,-39.563,-3.667,175.377,-14.756,0.664,1.97,65.3901,15.549856,73.76347,-229.032,NaN,1.08,14.680643,198.5,15 / 36,8309,2019-01-17 16:05:36:438
-0.27029,2.03502,10.13329,-0.28053,2.59298,9.45347,-0.19689,-0.69138,1.3319,0.40945,-0.01833,-0.13249,5770,-3.294,-39.563,-4.918,175.236,-14.83,1.352,1.97,65.3901,15.549856,73.76347,-229.032,NaN,1.08,14.680643,198.5,15 / 36,8409,2019-01-17 16:05:36:538
-0.67101,2.41037,8.9771,-0.40002,2.73324,9.40956,0.01561,-0.26497,0.29212,0.04672,0.16969,-0.08722,5866,-1.855,-39.938,-4.543,176.673,-16.269,1.751,1.97,65.3901,15.549856,73.76347,-229.032,NaN,1.08,14.680643,198.5,15 / 36,8509,2019-01-17 16:05:36:638
-0.66075,2.67073,9.49474,-0.34525,2.70671,9.41939,-0.21872,-0.17114,0.04451,0.00784,-0.13712,-0.05473,5731.0005,-1.855,-38.814,-3.604,176.612,-16.048,2.243,1.97,65.3901,15.549856,73.76347,-229.032,NaN,1.08,14.680643,198.5,15 / 36,8609,2019-01-17 16:05:36:738
0.04893,2.54666,9.4113,-0.22646,2.75424,9.40921,0.21224,-0.15175,-0.1381,0.14952,-0.13712,-0.12717,5679.0005,-0.356,-40.314,-3.667,179.807,-16.04,1.754,1.97,65.3901,15.549856,73.76347,-229.032,NaN,1.08,14.680643,198.5,15 / 36,8710,2019-01-17 16:05:36:839
-0.38332,2.67247,8.87399,-0.12484,2.79512,9.39905,-0.30641,-0.14669,-0.39192,-0.07524,-0.08385,-0.09894,5606,-1.482,-39.563,-3.168,178.411,-16.56,0.761,1.97,65.3901,15.549856,73.76347,-229.032,NaN,1.08,14.680643,198.5,15 / 36,8809,2019-01-17 16:05:36:938
0.16985,2.81992,9.55765,-0.04429,2.74595,9.41425,0.31922,0.13273,0.09906,-0.03743,-0.10889,-0.05313,5606,-1.855,-39.938,-4.48,176.752,-16.314,0.366,1.97,65.3901,15.549856,73.76347,-229.032,NaN,1.08,14.680643,198.5,15 / 36,8909,2019-01-17 16:05:37:038
-0.24889,3.0155,9.2695,-0.00622,2.70388,9.42653,-0.13344,0.31594,-0.26175,-0.16525,-0.00182,-0.18044,5510,-1.106,-39.563,-4.48,176.925,-16.268,0.039,1.97,65.3901,15.549856,73.76347,-229.032,NaN,1.08,14.680643,198.5,15 / 36,9009,2019-01-17 16:05:37:138
-0.06654,2.90913,9.70886,-0.01612,2.72679,9.41991,-0.07423,0.17435,0.35535,0.07283,0.05144,-0.01532,5456.9995,-1.482,-38.814,-6.168,178.381,-15.79,0.138,1.97,65.3901,15.549856,73.76347,-229.032,NaN,1.08,14.680643,198.5,15 / 36,9109,2019-01-17 16:05:37:238
-0.05199,2.79036,9.61536,-0.0421,2.7533,9.41212,0.00526,0.10384,0.11888,0.03288,-0.00502,-0.02597,5442,-2.168,-39.563,-5.292,176.871,-16.306,0.256,1.97,65.3901,15.549856,73.76347,-229.032,NaN,1.08,14.680643,198.5,15 / 36,9210,2019-01-17 16:05:37:339
-0.49504,2.61435,8.30243,0.0609,2.93108,9.35817,-0.55099,-0.30662,-1.04635,-0.17165,0.18993,0.24567,5440.9995,-0.731,-39.563,-4.48,179.988,-16.753,0.085,1.97,65.3901,15.549856,73.76347,-225.806,NaN,1.296,14.680643,198.5,15 / 36,9309,2019-01-17 16:05:37:438
-0.08958,2.57027,9.50278,0.14817,2.81104,9.39396,-0.24227,-0.23827,0.05636,-0.10561,-0.08278,0.26805,5350,-1.106,-40.314,-4.042,178.556,-16.657,-0.904,1.97,65.3901,15.549856,73.76347,-225.806,NaN,1.296,14.680643,198.5,15 / 36,9409,2019-01-17 16:05:37:538
0.1236,2.44328,9.16173,0.2196,2.75671,9.40865,-0.02579,-0.33422,-0.23123,-0.14182,0.17714,0.13063,5382,-3.668,-39.938,-4.042,174.012,-16.326,-1.337,1.97,65.3901,15.549856,73.76347,-225.806,NaN,1.296,14.680643,198.5,15 / 36,9509,2019-01-17 16:05:37:638
-0.45555,2.30836,9.58711,0.15446,2.60697,9.45252,-0.62655,-0.26752,0.05312,-0.15034,0.07327,0.14287,5446,-2.919,-40.314,-4.48,175.524,-15.417,-0.936,1.97,65.3901,15.549856,73.76347,-225.806,NaN,1.296,14.680643,198.5,15 / 36,9611,2019-01-17 16:05:37:740
-0.02179,2.37251,9.46472,0.10777,2.44867,9.49541,-0.03128,0.04176,-0.02093,-0.20094,-0.00981,-0.01053,5446,-2.168,-39.563,-5.73,175.524,-15.417,-0.936,1.97,65.3901,15.549856,73.76347,-225.806,NaN,1.296,14.680643,198.5,15 / 36,9709,2019-01-17 16:05:37:838
0.30353,1.94829,10.21947,0.07119,2.22171,9.55141,0.22749,-0.26796,0.67013,-0.0891,-0.03697,0.26166,5572,-3.294,-40.689,-7.417,175.604,-13.094,-0.427,1.97,65.3901,15.549856,73.76347,-225.806,NaN,1.296,14.680643,198.5,15 / 36,9809,2019-01-17 16:05:37:938
1.34108,2.18173,10.47911,-0.02358,2.12993,9.57252,-0.06276,0.18004,0.74032,-0.09282,0.38487,0.52104,5702,-5.481,-39.189,-12.105,172.094,-12.841,-0.435,1.97,65.3901,15.549856,73.76347,-225.806,NaN,1.296,14.680643,198.5,15 / 36,9909,2019-01-17 16:05:38:038
-0.71367,2.74115,8.84003,-0.0201,2.34946,9.52103,-0.69358,0.39208,-0.67944,-0.07045,0.06262,-0.10959,5800.9995,-4.044,-40.689,-5.73,173.896,-13.156,0.188,1.97,65.3901,15.549856,73.76347,-225.806,NaN,1.296,14.680643,198.5,15 / 36,10009,2019-01-17 16:05:38:138
-0.24809,2.57497,9.9518,0.07738,2.3189,9.52823,-0.38641,0.26728,0.43134,0.04939,-0.08171,-0.0542,5652.9995,-3.668,-39.563,-6.606,173.95,-13.678,-0.465,1.97,65.3901,15.549856,73.76347,-225.806,NaN,1.296,14.680643,198.5,15 / 36,10109,2019-01-17 16:05:38:238
-0.18079,2.13112,9.12883,0.21587,2.45423,9.49213,-0.36455,-0.27452,-0.47763,0.01691,-0.14244,-0.1048,5623.0005,-4.794,-40.689,-6.168,173.985,-13.997,-0.615,1.97,65.3901,15.549856,73.76347,-225.806,NaN,1.296,14.680643,198.5,15 / 36,10209,2019-01-17 16:05:38:338
-0.02498,2.3378,9.56316,0.26519,2.56984,9.46023,-0.37213,-0.25028,0.2337,0.27417,-0.13498,-0.10747,5454,-2.544,-40.314,-4.48,175.602,-15.192,-1.606,1.97,65.3901,15.549856,73.76347,-225.806,NaN,0,14.680643,,15 / 36,10309,2019-01-17 16:05:38:438
0.13687,2.61456,9.17566,0.23914,2.64279,9.44081,-0.0754,-0.01798,-0.263,-0.05713,0.15265,-0.07285,5384.9995,-3.668,-41.376,-5.73,175.822,-15.748,-1.679,1.97,65.3901,15.549856,73.76347,-225.806,NaN,0,14.680643,,15 / 36,10409,2019-01-17 16:05:38:538
0.17671,2.39885,10.55957,0.2157,2.55002,9.46685,0.21241,0.03374,0.52886,0.0659,0.03281,0.0699,5384.9995,-4.044,-40.314,-6.168,174.177,-15.384,-1.205,1.97,65.3901,15.549856,73.76347,-225.806,NaN,0,14.680643,,15 / 36,10509,2019-01-17 16:05:38:638
-0.57018,2.16536,9.78827,0.11732,2.46989,9.4898,-0.6875,-0.30452,0.29852,-0.19562,0.13133,-0.13835,5269,-2.544,-40.689,-6.606,175.648,-14.922,-0.987,1.97,65.3901,15.549856,73.76347,-225.806,NaN,0,14.680643,,15 / 36,10609,2019-01-17 16:05:38:738
-0.0107,2.44872,10.26959,0.21458,2.45883,9.49097,-0.26168,0.05424,0.689,0.10052,-0.03271,0.28615,5346,-2.544,-41,-5.73,175.685,-14.455,-1.124,1.97,65.3901,15.549856,73.76347,-225.806,NaN,0,14.680643,,15 / 36,10709,2019-01-17 16:05:38:838
1.39221,2.46028,9.39389,0.27699,2.54689,9.4661,1.10507,-0.10645,-0.03436,0.07176,0.06369,0.04381,5414,-3.294,-41.751,-5.73,175.857,-15.053,-1.676,1.97,65.3901,15.549856,73.76347,-225.806,NaN,0,14.680643,,15 / 36,10810,2019-01-17 16:05:38:939
0.00151,2.97719,8.05191,0.28361,2.61094,9.44844,-0.22457,0.32168,-1.52937,-0.13809,0.20325,0.19986,5347,-3.294,-41.376,-5.354,172.437,-15.082,-1.327,1.97,65.3901,15.549856,73.76347,-225.806,NaN,0,14.680643,,15 / 36,10909,2019-01-17 16:05:39:038
-0.12483,3.35365,8.79724,0.16008,2.51782,9.47657,-0.27343,0.80701,-0.48798,-0.26379,0.36197,0.33675,5355,-5.168,-40.689,-5.292,172.691,-14.877,-0.968,1.97,65.3901,15.549856,73.76347,-225.806,NaN,0,14.680643,,15 / 36,11009,2019-01-17 16:05:39:138
0.45094,2.16063,10.73052,0.11208,2.41833,9.50313,0.40892,-0.2654,1.30955,0.11543,0.28101,0.33995,5356,-6.232,-41,-6.606,172.411,-14.318,-0.559,1.97,65.3901,15.549856,73.76347,-225.806,NaN,0,14.680643,,15 / 36,11109,2019-01-17 16:05:39:238
-0.29836,2.28296,9.6368,0.02881,2.51614,9.47832,-0.36088,-0.26696,0.21594,0.02489,0.16702,0.27817,5604.9995,-6.232,-41,-5.73,171.074,-14.867,-0.174,1.97,65.3901,15.549856,73.76347,-225.806,NaN,0,14.680643,,15 / 36,11209,2019-01-17 16:05:39:338
-0.57942,1.86629,10.19635,-0.1161,2.42679,9.50093,-0.59762,-0.56268,0.85185,-0.06299,0.34172,0.13861,5640.9995,-8.105,-41.751,-7.042,168.284,-14.327,0.7,1.97,65.3901,15.549856,73.76347,-225.806,NaN,1.332,14.680643,198.5,15 / 36,11310,2019-01-17 16:05:39:439
-0.47112,2.00659,9.58745,-0.14471,2.41882,9.50257,-0.43947,-0.37807,-0.47616,-0.19348,0.19365,0.21425,5776.9995,-6.606,-41.751,-7.042,169.682,-14.472,0.735,1.97,65.3901,15.549856,73.76347,-225.806,NaN,1.332,14.680643,198.5,15 / 36,11409,2019-01-17 16:05:39:538
-0.23846,1.96312,9.71874,-0.23213,2.35531,9.51678,-0.19347,-0.19714,0.06846,0.0675,0.10843,0.09174,5896.9995,-8.481,-41,-8.292,167.65,-13.753,1.256,1.97,65.3901,15.549856,73.76347,-225.806,NaN,1.332,14.680643,198.5,15 / 36,11509,2019-01-17 16:05:39:638
-0.09135,2.72964,9.44344,-0.2188,2.40518,9.50461,-0.26652,0.35313,-0.3875,-0.17218,0.12868,0.22224,6028,-8.105,-41.751,-7.417,168.197,-14.197,1.319,1.97,65.3901,15.549856,73.76347,-225.806,NaN,1.332,14.680643,198.5,15 / 36,11609,2019-01-17 16:05:39:738
0.01082,2.7287,8.88594,-0.20951,2.42471,9.49986,0.24402,0.22162,-0.37027,0.10052,-0.01088,0.03049,6011.0005,-8.105,-41,-6.606,167.919,-14.128,1.276,1.97,65.3901,15.549856,73.76347,-225.806,NaN,1.332,14.680643,198.5,15 / 36,11709,2019-01-17 16:05:39:838
-0.15172,2.70381,9.57164,-0.24216,2.3014,9.52971,-0.57243,0.42689,0.36504,-0.11305,-0.07106,0.04327,6018,-9.544,-41.376,-7.417,166.134,-14.315,1.263,1.97,65.3901,15.549856,73.76347,-225.806,NaN,1.332,14.680643,198.5,15 / 36,11809,2019-01-17 16:05:39:938
-1.12901,2.76782,9.49211,-0.23554,2.28728,9.53327,-0.89234,0.56455,-0.04708,0.07816,-0.04497,0.11464,6034,-9.169,-42.126,-6.979,166.864,-13.374,1.414,1.97,65.3901,15.549856,73.76347,-225.806,NaN,1.332,14.680643,198.5,15 / 36,11909,2019-01-17 16:05:40:038
-0.12526,2.62788,9.0798,-0.11918,2.37587,9.51375,-0.00773,0.24301,-0.65821,-0.00174,-0.03751,0.02942,6026,-8.794,-39.938,-8.231,165.146,-13.745,1.113,1.97,65.3901,15.549856,73.76347,-225.806,NaN,1.332,14.680643,198.5,15 / 36,12009,2019-01-17 16:05:40:138
-0.02695,2.3161,9.56816,-0.08408,2.53634,9.47261,0.06051,-0.22834,0.0945,0.16177,0.04185,-0.16286,5956.9995,-9.544,-41.376,-6.168,165.236,-14.698,0.549,1.97,65.3901,15.549856,73.76347,-225.806,NaN,1.332,14.680643,198.5,15 / 36,12109,2019-01-17 16:05:40:238
-1.51163,2.4622,11.13498,-0.30121,2.55143,9.46414,-0.74959,0.01464,1.29905,0.07976,0.07062,-0.21506,5956.9995,-8.105,-41.376,-7.042,166.753,-15.268,0.94,1.97,65.3901,15.549856,73.76347,-225.806,NaN,1.332,14.680643,198.5,15 / 36,12209,2019-01-17 16:05:40:338
-0.90157,2.81366,9.23283,-0.20869,2.73544,9.41511,-0.6925,0.07328,-0.19927,-0.104,0.03174,-0.02118,5803.0005,-8.481,-41.063,-4.48,167.744,-15.08,1.823,1.97,65.3901,15.549856,73.76347,-229.032,NaN,0,14.680643,,15 / 36,12311,2019-01-17 16:05:40:440
-0.36505,2.31281,9.45836,-0.12036,2.70408,9.4257,-0.10515,-0.14159,-0.52284,-0.00546,-0.24736,-0.02171,5854,-8.481,-43.251,-5.354,168.598,-16.006,0.732,1.97,65.3901,15.549856,73.76347,-229.032,NaN,0,14.680643,,15 / 36,12409,2019-01-17 16:05:40:538
0.1109,2.43275,8.73991,-0.09299,2.65065,9.44118,0.07284,-0.06532,-0.53353,-0.23875,0.03439,-0.13889,5688.9995,-8.794,-42.502,-5.73,168.178,-15.689,0.594,1.97,65.3901,15.549856,73.76347,-229.032,NaN,0,14.680643,,15 / 36,12509,2019-01-17 16:05:40:638
-0.01389,2.54671,9.89339,-0.16091,2.51589,9.47707,0.06534,0.28397,-0.11579,-0.02571,-0.05295,-0.10054,5612,-7.356,-42.126,-7.417,169.597,-14.942,1.028,1.97,65.3901,15.549856,73.76347,-229.032,NaN,0,14.680643,,15 / 36,12609,2019-01-17 16:05:40:738
-0.20695,2.43976,10.21884,-0.10316,2.49274,9.48399,0.04071,-0.13639,0.61731,0.10213,-0.13391,-0.05048,5704,-7.732,-42.126,-7.042,168.109,-14.728,0.953,1.97,65.3901,15.549856,73.76347,-229.032,NaN,0,14.680643,,15 / 36,12709,2019-01-17 16:05:40:838
0.38646,2.86928,8.96144,0.00249,2.70924,9.42499,8.90E-04,0.18907,-1.14583,0.19907,-0.15256,-0.21985,5730,-8.105,-43.251,-6.168,168.616,-15.51,0.2,1.97,65.3901,15.549856,73.76347,-229.032,NaN,0,14.680643,,15 / 36,12809,2019-01-17 16:05:40:938
-0.49103,2.60367,9.05023,0.02557,2.64464,9.44328,-0.53936,-0.01999,-0.38858,-0.09601,-0.04816,-0.04195,5543.0005,-9.544,-42.502,-13.354,168.616,-15.51,0.2,1.97,65.3901,15.549856,73.76347,-229.032,NaN,0,14.680643,,15 / 36,12909,2019-01-17 16:05:41:038
-0.46082,3.3188,8.73044,0.01459,2.63061,9.44722,-0.271,0.58082,-0.64944,0.15166,0.0573,-0.10905,5543.0005,-5.856,-43.626,-6.606,171.589,-15.56,-0.088,1.97,65.3901,15.549856,73.76347,-229.032,NaN,0,14.680643,,15 / 36,13009,2019-01-17 16:05:41:138
-1.16687,2.24107,11.36177,-0.11759,2.31521,9.52871,-0.92608,-0.08813,2.49994,-0.41026,0.15105,-0.17244,5575.0005,-7.356,-42.126,-7.855,169.673,-14.23,0.449,1.97,65.3901,15.549856,73.76347,-229.032,NaN,0,14.680643,,15 / 36,13109,2019-01-17 16:05:41:238
0.09525,2.91972,10.12659,-0.08971,2.25304,9.54391,0.24492,0.68609,0.29066,0.26936,-0.21967,0.16684,5704.9995,-6.232,-42.876,-9.543,171.244,-13.282,0.539,1.97,65.3901,15.549856,73.76347,-229.032,NaN,0,14.680643,,15 / 36,13209,2019-01-17 16:05:41:338
-0.19858,2.29619,8.45783,0.15904,2.53312,9.47251,-0.17127,-0.30668,-1.12126,0.09148,-0.24789,0.11305,5672,-6.606,-43.251,-7.417,170.095,-13.992,-0.082,1.97,65.3901,15.549856,73.76347,-225.806,NaN,0,14.680643,,15 / 36,13310,2019-01-17 16:05:41:439
0.73892,2.62285,9.3772,0.22606,2.69745,9.42566,0.48328,-0.18933,0.08771,0.28215,-0.07585,0.03795,5526,-8.105,-43.251,-6.606,170.167,-14.97,-0.962,1.97,65.3901,15.549856,73.76347,-225.806,NaN,0,14.680643,,15 / 36,13409,2019-01-17 16:05:41:538
0.13931,2.41943,9.45007,0.139,2.78133,9.40294,0.04863,-0.33411,0.01745,-0.09814,0.11589,-0.06538,5399.0005,-7.732,-41.751,-7.48,169.026,-16.613,-1.25,1.97,65.3901,15.549856,73.76347,-225.806,NaN,0,14.680643,,15 / 36,13509,2019-01-17 16:05:41:638
-0.14047,2.89516,9.00745,0.05269,2.82503,9.39078,-0.27257,0.04271,-0.33412,0.04993,-0.20795,-0.15753,5432.9995,-6.606,-43.251,-6.979,169.918,-16.743,-0.321,1.97,65.3901,15.549856,73.76347,-225.806,NaN,0,14.680643,,15 / 36,13610,2019-01-17 16:05:41:739
-0.60817,2.28044,9.92397,-3.80E-04,2.69239,9.42982,-0.53533,-0.49616,0.74255,0.03502,-0.0945,-0.09468,5422,-8.105,-43.626,-6.543,167.14,-16.677,-0.485,1.97,65.3901,15.549856,73.76347,-225.806,NaN,0,14.680643,,15 / 36,13709,2019-01-17 16:05:41:838
-0.53165,2.94519,9.21745,-0.00678,2.77344,9.40629,-0.503,0.15548,-0.02752,0.06111,-0.01567,-0.00572,5422,-6.981,-42.876,-7.855,168.494,-16.286,0.019,1.97,65.3901,15.549856,73.76347,-225.806,NaN,0,14.680643,,15 / 36,13809,2019-01-17 16:05:41:938
-0.42894,3.38277,9.27368,0.04339,2.77163,9.40673,-0.41968,0.63404,-0.34211,-6.70E-04,-0.01939,0.15779,5499.0005,-7.356,-43.251,-6.606,169.936,-16.417,-0.264,1.97,65.3901,15.549856,73.76347,-225.806,NaN,0,14.680643,,15 / 36,13909,2019-01-17 16:05:42:038
0.01573,3.0631,9.65137,0.09153,2.72908,9.41882,-0.10969,0.29483,0.41319,0.14847,-0.08864,0.18867,5476,-7.732,-43.626,-7.855,168.75,-16.243,-0.321,1.97,65.3901,15.549856,73.76347,-225.806,NaN,0,14.680643,,15 / 36,14009,2019-01-17 16:05:42:138
8.50E-04,2.74735,9.26195,0.13605,2.79015,9.40037,0.11152,0.38089,-0.63043,0.07869,0.00191,0.06351,5474,-9.918,-43.626,-7.417,166.151,-16.53,-0.829,1.97,65.3901,15.549856,73.76347,-225.806,NaN,0,14.680643,,15 / 36,14109,2019-01-17 16:05:42:238
0.39384,2.6162,9.09161,0.12408,2.8851,9.37183,0.31755,-0.36141,-0.1987,0.07602,0.12814,-0.04034,5458,-10.294,-43.626,-6.979,166.075,-17.109,-0.759,1.97,65.3901,15.549856,73.76347,-225.806,NaN,0,14.680643,,15 / 36,14210,2019-01-17 16:05:42:339
-0.12126,2.71019,9.39635,0.00232,3.09039,9.30698,-0.20093,-0.37941,0.04321,0.2438,0.17928,-0.22997,5448,-10.294,-44.751,-6.979,167.416,-17.282,-0.757,1.97,65.3901,15.549856,73.76347,-229.032,NaN,0,14.680643,,15 / 36,14309,2019-01-17 16:05:42:438
0.50127,3.29105,9.13818,-0.12462,3.12978,9.29297,0.33217,0.05758,0.20664,-0.12051,0.02588,-0.25819,5406,-8.105,-44.376,-6.168,168.537,-18.893,0.502,1.97,65.3901,15.549856,73.76347,-229.032,NaN,0,14.680643,,15 / 36,14409,2019-01-17 16:05:42:538
0.0799,2.42671,10.06667,-0.1641,3.12891,9.29265,0.31713,-0.73653,0.80688,0.11917,-0.0146,-0.35567,5334,-8.105,-44.376,-7.417,168.384,-18.606,1.012,1.97,65.3901,15.549856,73.76347,-229.032,NaN,0,14.680643,,15 / 36,14509,2019-01-17 16:05:42:638
-0.47331,3.13042,8.72934,-0.28894,3.15054,9.28229,-0.14125,-0.0284,-0.65733,-0.12691,-0.01567,-0.36739,5297,-5.168,-45.064,-6.168,172.949,-18.917,1.42,1.97,65.3901,15.549856,73.76347,-229.032,NaN,0,14.680643,,15 / 36,14609,2019-01-17 16:05:42:738
-0.5731,3.14081,8.83215,-0.2852,3.09787,9.30012,-0.28717,0.03495,-0.49195,-0.11465,-0.18239,-0.25233,5297,-5.481,-44.688,-5.73,172.746,-18.546,1.881,1.97,65.3901,15.549856,73.76347,-229.032,NaN,0,14.680643,,15 / 36,14709,2019-01-17 16:05:42:838
-0.40161,3.36606,9.29565,-0.17098,2.99498,9.33655,-0.29689,0.26898,0.34507,0.08134,-0.26334,-0.09682,5298,-3.668,-45.813,-6.168,174.411,-17.782,1.049,1.97,65.3901,15.549856,73.76347,-229.032,NaN,0,14.680643,,15 / 36,14809,2019-01-17 16:05:42:938
-0.39145,3.09212,9.3685,-0.06889,3.00541,9.33451,-0.34621,0.15206,-0.15568,0.05472,-0.06627,-0.04781,5263,-4.419,-45.064,-6.979,171.32,-17.732,0.641,1.97,65.3901,15.549856,73.76347,-229.032,NaN,0,14.680643,,15 / 36,14909,2019-01-17 16:05:43:038
-0.12096,3.42934,9.36214,-0.03393,3.00512,9.3348,0.16961,0.45955,-0.06803,-0.00174,-0.04176,-0.10214,5082,-4.044,-44.376,-6.606,174.216,-17.845,0.208,1.97,65.3901,15.549856,73.76347,-229.032,NaN,0,14.680643,,15 / 36,15009,2019-01-17 16:05:43:138
0.10017,3.37941,8.86557,-0.03856,3.0107,9.33298,0.10404,0.3728,-0.57618,-0.06619,0.00244,-0.06857,5054,-4.044,-44.688,-8.292,174.296,-17.908,0.226,1.97,65.3901,15.549856,73.76347,-229.032,NaN,0,14.680643,,15 / 36,15109,2019-01-17 16:05:43:238
0.72934,3.31157,8.81297,-0.02683,3.07951,9.31055,0.64916,0.31009,-0.48715,0.05898,0.03386,-0.20599,5039,-3.294,-46.564,-7.417,175.745,-18.141,0.161,1.97,65.3901,15.549856,73.76347,-229.032,NaN,0,14.680643,,15 / 36,15209,2019-01-17 16:05:43:338
-0.804,3.09106,9.10904,-0.08049,3.09158,9.30624,-0.56248,0.02165,-0.19965,-0.05766,0.00351,-0.17883,5025,-1.855,-44.688,-7.855,177.053,-18.376,0.496,1.97,65.3901,15.549856,73.76347,-229.032,NaN,0,14.680643,,15 / 36,15311,2019-01-17 16:05:43:440
-0.35767,2.8143,10.21045,-0.08617,3.06975,9.31341,-0.20171,-0.10375,0.55873,0.18202,-0.01993,0.01291,5015,-0.356,-46.188,-6.979,177.114,-18.195,0.555,1.97,65.3901,15.549856,73.76347,-229.032,NaN,0,14.680643,,15 / 36,15409,2019-01-17 16:05:43:538
-0.16507,3.12373,9.67119,-0.04615,3.15781,9.28421,-0.55816,-0.11154,0.36137,0.05046,-0.05881,0.10826,5015,-1.855,-46.564,-7.042,178.539,-18.531,0.454,1.97,65.3901,15.549856,73.76347,-229.032,NaN,0,14.680643,,15 / 36,15509,2019-01-17 16:05:43:638
0.57611,3.62532,9.03772,0.14536,3.27572,9.24224,0.43021,0.3375,-0.23865,0.11703,-0.07373,0.07523,4963,-1.855,-46.188,-7.417,179.999,-18.94,0.008,1.97,65.3901,15.549856,73.76347,-229.032,NaN,0,14.680643,,15 / 36,15609,2019-01-17 16:05:43:738
0.37808,2.9707,9.34538,0.25182,3.26499,9.24374,-0.17389,-0.01436,-0.12332,-0.00174,-0.1254,-0.00999,4873,-0.356,-47.313,-7.417,177.385,-19.463,-1.028,1.97,65.3901,15.549856,73.76347,-229.032,NaN,0,14.680643,,15 / 36,15710,2019-01-17 16:05:43:839
0.2023,2.88306,9.11388,0.32724,3.27173,9.239,-0.0073,-0.36451,-0.16118,0.00198,-0.10941,0.00705,4770,-1.482,-47.688,-6.168,178.957,-19.489,-2.029,1.97,65.3901,15.549856,73.76347,-229.032,NaN,0,14.680643,,15 / 36,15809,2019-01-17 16:05:43:938
-0.24176,3.10934,9.26802,0.32033,3.29234,9.23192,-0.58423,-0.2108,0.22496,-0.12584,-0.04018,-0.28589,4711,-0.356,-46.939,-6.979,177.785,-19.827,-2.26,1.97,65.3901,15.549856,73.76347,-229.032,NaN,0,14.680643,,15 / 36,15910,2019-01-17 16:05:44:039
-0.061,3.35161,9.76517,0.3246,3.20394,9.26282,0.05153,0.09577,0.68162,-0.0321,-0.04816,-0.18097,4626,-0.356,-46.939,-6.979,180.333,-19.069,-2.007,1.97,65.3901,15.549856,73.76347,-229.032,NaN,0,14.680643,,15 / 36,16009,2019-01-17 16:05:44:138
0.02083,3.01602,8.974,0.27754,3.33607,9.21759,-0.19983,-0.15905,-0.59786,0.08401,-0.06201,-0.60228,4627,2.956,-46.188,-6.168,184.444,-19.607,-2.064,1.97,65.3901,15.549856,73.76347,-229.032,NaN,0,14.680643,,15 / 36,16109,2019-01-17 16:05:44:238
-0.03503,3.10532,8.89955,0.12619,3.44018,9.18257,-0.21787,-0.323,-0.28055,0.12343,-0.40182,-0.89735,4535,6.268,-45.813,-5.73,188.437,-20.536,-0.787,1.97,65.3901,15.549856,73.76347,-229.032,NaN,0,14.680643,,15 / 36,16209,2019-01-17 16:05:44:338
-0.1113,2.70798,10.36148,0.05642,3.42942,9.18729,-0.1246,-0.70817,0.58871,-0.04488,-0.18504,-0.91014,4453,10.707,-44.002,-5.354,195.604,-20.469,-0.352,1.97,65.3901,15.549856,73.76347,-225.806,NaN,1.404,14.680643,198.5,15 / 36,16309,2019-01-17 16:05:44:438
0.31,2.84718,9.37796,0.15457,3.54273,9.14306,0.09539,-0.76125,0.53005,0.15005,-0.43805,-1.12053,4332,14.769,-42.502,-5.73,198.363,-20.943,-0.799,1.97,65.3901,15.549856,73.76347,-225.806,NaN,1.404,14.680643,198.5,15 / 36,16409,2019-01-17 16:05:44:538
0.94574,3.25397,9.51599,0.23841,3.55537,9.13635,0.64773,-0.44864,0.23722,-0.05341,-0.57387,-1.23026,4172,16.206,-41.751,-6.606,200.402,-21.405,-1.099,1.97,65.3901,15.549856,73.76347,-225.806,NaN,1.404,14.680643,198.5,15 / 36,16509,2019-01-17 16:05:44:638
-0.90727,2.70226,11.66385,0.33347,3.23811,9.25061,-1.45089,-0.58161,2.39899,0.22037,-0.57654,-1.26646,4084,21.394,-37.689,-8.292,206.625,-21.257,-1.495,1.97,65.3901,15.549856,73.76347,-225.806,NaN,1.404,14.680643,198.5,15 / 36,16609,2019-01-17 16:05:44:738
0.23444,2.32597,10.52745,0.37764,3.18499,9.26734,-0.14538,-0.87734,1.2068,-0.1333,-0.47,-1.46994,4152,27.644,-30.002,-12.042,228.88,-18.952,-2.333,1.97,65.3901,15.549856,73.76347,-225.806,NaN,1.404,14.680643,198.5,15 / 36,16709,2019-01-17 16:05:44:838
0.80179,2.6091,9.66367,0.40476,3.3035,9.22461,0.3988,-0.70976,0.44486,0.16656,-0.4407,-1.61427,4151,31.331,-27.063,-13.354,229.841,-18.952,-2.333,1.97,65.3901,15.549856,73.76347,-225.806,NaN,1.404,14.680643,198.5,15 / 36,16809,2019-01-17 16:05:44:938
0.71019,2.50613,9.32265,0.25333,3.41616,9.18891,0.42876,-0.96388,0.36317,-0.08856,-0.37839,-1.89391,4100,33.144,-19.688,-13.354,246.429,-20.497,-1.993,1.97,65.3901,15.549856,73.76347,-225.806,NaN,1.404,14.680643,198.5,15 / 36,16909,2019-01-17 16:05:45:038
0.5029,2.39078,8.74171,0.15989,3.53519,9.14589,0.3494,-1.16202,-0.44602,-6.70E-04,-0.5744,-1.98499,4073,35.019,-11.563,-17.543,255.466,-20.914,-1.075,1.97,65.3901,15.549856,73.76347,-225.806,NaN,1.404,14.680643,198.5,15 / 36,17009,2019-01-17 16:05:45:138
-0.1449,2.19536,9.46423,0.06348,3.45926,9.17605,-0.20865,-1.27864,0.24908,-0.1642,-0.70862,-2.02068,4073,34.644,-3.127,-17.105,265.402,-20.809,-0.441,1.97,65.3901,15.549856,73.76347,-225.806,NaN,1.404,14.680643,198.5,15 / 36,17109,2019-01-17 16:05:45:238
0.40184,2.48413,10.31079,0.021,3.23297,9.2584,0.20003,-0.69646,1.04974,-0.0811,-0.77361,-1.86942,4118,33.144,4.623,-20.105,278.425,-20.114,-0.262,1.97,65.3901,15.549856,73.76347,-225.806,NaN,1.404,14.680643,198.5,15 / 36,17210,2019-01-17 16:05:45:339
-1.51233,1.73813,12.0211,0.13391,3.13471,9.29118,-1.82573,-1.53316,2.85704,0.25606,-0.84285,-1.7453,4076,28.394,11.249,-22.604,291.644,-18.519,-0.649,1.97,65.3901,15.549856,73.76347,-222.581,NaN,0.936,14.680643,198.5,15 / 36,17309,2019-01-17 16:05:45:438
-1.29501,3.00955,8.18637,0.42474,3.49711,9.15206,-1.52277,-0.70492,-0.20053,0.21132,-0.61807,-1.32666,3996,26.518,14.561,-24.73,306.695,-19.5,-1.66,1.97,65.3901,15.549856,73.76347,-222.581,NaN,0.936,14.680643,198.5,15 / 36,17409,2019-01-17 16:05:45:538
-1.20204,2.23993,12.07256,0.15303,3.29667,9.23466,-0.59743,-1.10261,2.59338,0.1442,-0.76775,-0.77911,4424,23.956,18.25,-25.542,316.164,-20.183,-1.417,1.97,65.3901,15.549856,73.76347,-222.581,NaN,0.936,14.680643,198.5,15 / 36,17509,2019-01-17 16:05:45:638
-1.11449,3.60284,7.32872,0.41522,3.39317,9.19154,-1.32341,0.11874,-1.74748,-0.35594,-0.00128,-0.71945,4865,20.268,17.874,-27.229,320.71,-20.243,-2.587,1.97,65.3901,15.549856,73.76347,-222.581,NaN,0.936,14.680643,198.5,15 / 36,17609,2019-01-17 16:05:45:738
-0.37807,3.31,8.31552,0.43111,3.39888,9.1887,-0.87945,-0.08433,-0.74195,-0.1759,-0.15256,-0.57565,5309,16.582,21.187,-28.105,327.233,-20.074,-2.359,1.97,65.3901,15.549856,73.76347,-222.581,NaN,0.936,14.680643,198.5,15 / 36,17709,2019-01-17 16:05:45:838
-0.44629,2.96094,9.22223,0.42131,3.15684,9.27509,-0.93275,-0.18242,0.06465,-0.34529,-0.18983,-0.54741,5704,15.082,21.936,-28.105,331.448,-19.734,-2.652,1.97,65.3901,15.549856,73.76347,-222.581,NaN,0.936,14.680643,198.5,15 / 36,17810,2019-01-17 16:05:45:939
-0.4727,2.86066,9.60362,0.3337,2.88134,9.36787,-0.76225,-0.03076,0.25906,-0.30214,-0.11368,-0.4606,6023.0005,12.894,24.5,-31.48,337.33,-17.725,-2.271,1.97,65.3901,15.549856,73.76347,-222.581,NaN,0.936,14.680643,198.5,15 / 36,17909,2019-01-17 16:05:46:038
-0.29524,2.4792,9.99954,0.30408,2.71786,9.4176,-0.45661,-0.22159,0.64265,-0.19455,-0.19516,-0.5309,6146,14.394,25.999,-25.98,335.174,-16.535,-1.976,1.97,65.3901,15.549856,73.76347,-222.581,NaN,0.936,14.680643,198.5,15 / 36,18009,2019-01-17 16:05:46:138
-1.00203,2.54419,9.62965,0.33565,2.60009,9.44972,-1.30898,-0.05197,0.04896,-0.15195,-0.05136,-0.48776,6224.9995,11.456,27.437,-26.855,338.619,-15.726,-2.122,1.97,65.3901,15.549856,73.76347,-222.581,NaN,0.936,14.680643,198.5,15 / 36,18109,2019-01-17 16:05:46:238
-0.71419,3.01721,8.44911,0.53604,2.79001,9.3861,-1.28411,0.1374,-0.89554,0.19267,-0.45988,-0.33063,6436.9995,8.144,29.312,-28.917,344.972,-16.529,-3.269,1.97,65.3901,15.549856,73.76347,-222.581,NaN,0.936,14.680643,198.5,15 / 36,18209,2019-01-17 16:05:46:338
-0.74052,2.714,9.88441,0.48934,2.67204,9.42291,-1.19152,0.07784,0.29595,-0.30321,-0.09982,-0.16232,6848.9995,8.144,28.561,-26.855,343.143,-16.272,-2.985,1.97,65.3901,15.549856,73.76347,-222.581,NaN,1.728,14.680643,198.5,15 / 36,18309,2019-01-17 16:05:46:438
-0.31897,2.78049,9.88919,0.3698,2.59683,9.44934,-0.63803,0.15318,0.44996,0.07283,0.00298,0.04221,7024.9995,8.456,28.937,-25.542,347.982,-15.428,-2.662,1.97,65.3901,15.549856,73.76347,-222.581,NaN,1.728,14.680643,198.5,15 / 36,18409,2019-01-17 16:05:46:538
0.51422,2.44089,9.70577,0.34425,2.82495,9.38465,0.186,-0.45899,0.27858,0.31837,-0.03857,0.00865,6844.9995,8.832,27.437,-26.793,343.42,-16.742,-2.101,1.97,65.3901,15.549856,73.76347,-222.581,NaN,1.728,14.680643,198.5,15 / 36,18509,2019-01-17 16:05:46:638
0.83859,2.79015,9.02127,0.31235,2.94332,9.34932,0.63282,-0.14199,-0.55673,-0.21585,0.13187,-0.31412,6856,7.394,27.437,-26.355,346.631,-17.658,-2.147,1.97,65.3901,15.549856,73.76347,-222.581,NaN,1.728,14.680643,198.5,15 / 36,18609,2019-01-17 16:05:46:738
0.065,2.93585,9.03647,0.16946,2.88383,9.37151,-0.13787,0.0925,-0.18306,-0.01985,-0.12273,-0.32158,6963.0005,7.019,28.561,-25.98,347.223,-17.153,-1.459,1.97,65.3901,15.549856,73.76347,-222.581,NaN,1.728,14.680643,198.5,15 / 36,18709,2019-01-17 16:05:46:838
0.40169,2.57597,9.63026,0.15444,2.76464,9.40762,-0.03886,-0.23882,0.48538,-0.12531,0.03439,-0.29442,6963.0005,5.519,28.937,-26.793,349.688,-16.375,-0.94,1.97,65.3901,15.549856,73.76347,-222.581,NaN,1.728,14.680643,198.5,15 / 36,18809,2019-01-17 16:05:46:938
0.34036,2.93889,8.98235,0.16407,2.83938,9.38517,0.07177,-0.04601,-0.16937,0.09253,-0.07213,-0.19376,6846,5.144,28.561,-25.542,351.68,-16.355,-0.893,1.97,65.3901,15.549856,73.76347,-222.581,NaN,1.728,14.680643,198.5,15 / 36,18909,2019-01-17 16:05:47:038
0.02139,2.90131,8.91235,0.24645,2.92652,9.35656,-0.23601,-0.04237,-0.48192,0.09201,-0.24257,-0.08083,6876,5.144,28.937,-25.542,350.879,-17.363,-1.509,1.97,65.3901,15.549856,73.76347,-222.581,NaN,1.728,14.680643,198.5,15 / 36,19009,2019-01-17 16:05:47:138
0.70438,3.13374,9.74693,0.41601,2.94054,9.34615,-0.10785,0.15747,0.26683,0.01424,-0.15363,0.11464,7100,4.457,29.312,-27.229,351.718,-17.449,-2.549,1.97,65.3901,15.549856,73.76347,-222.581,NaN,1.728,14.680643,198.5,15 / 36,19111,2019-01-17 16:05:47:240
0.93788,3.17285,9.31593,0.52619,2.94537,9.33908,0.41158,0.22985,-0.11698,-0.08377,0.03174,-0.01692,7360,3.706,27.811,-25.542,350.997,-17.478,-3.225,1.97,65.3901,15.549856,73.76347,-222.581,NaN,1.728,14.680643,198.5,15 / 36,19209,2019-01-17 16:05:47:338
0.35985,3.02106,9.62131,0.60369,2.99361,9.31903,-0.42295,0.15686,-0.57269,-0.05766,-0.08385,0.09174,7623.0005,4.457,28.186,-26.418,352.815,-17.404,-3.232,1.97,65.3901,15.549856,73.76347,-222.581,NaN,0,14.680643,,15 / 36,19309,2019-01-17 16:05:47:438
0.62434,2.9864,8.93935,0.72683,3.08297,9.28102,-0.1374,-0.07778,-0.46425,0.0643,-0.01567,0.16684,7684,2.582,27.811,-27.229,351.865,-18.002,-4.236,1.97,65.3901,15.549856,73.76347,-222.581,NaN,0,14.680643,,15 / 36,19410,2019-01-17 16:05:47:539
0.86649,3.22771,9.35294,0.69574,3.2956,9.21007,0.08786,-0.16338,0.38301,0.12875,0.18193,-0.00839,7911.0005,4.082,27.437,-26.793,350.063,-19.637,-4.32,1.97,65.3901,15.549856,73.76347,-222.581,NaN,0,14.680643,,15 / 36,19509,2019-01-17 16:05:47:638
0.44203,2.73848,9.18576,0.66086,3.42422,9.16561,-0.32246,-0.73148,0.10812,0.10425,-0.00981,-0.00999,8020,3.706,26.749,-25.98,350.293,-20.437,-4.124,1.97,65.3901,15.549856,73.76347,-222.581,NaN,0,14.680643,,15 / 36,19609,2019-01-17 16:05:47:738
0.19684,2.72849,9.30118,0.64034,3.37926,9.18373,-0.84712,-0.53347,-0.19249,-0.08163,-0.00609,0.03474,8020,6.268,27.437,-26.793,347.154,-20.157,-3.989,1.97,65.3901,15.549856,73.76347,-222.581,NaN,0,14.680643,,15 / 36,19709,2019-01-17 16:05:47:838
0.02754,2.91283,9.75147,0.54458,3.24398,9.23853,-0.80163,-0.26045,0.06782,-0.22545,-0.01993,-0.06325,8103.0005,4.457,26.373,-27.667,350.606,-19.849,-3.296,1.97,65.3901,15.549856,73.76347,-222.581,NaN,0,14.680643,,15 / 36,19809,2019-01-17 16:05:47:938
-0.13405,2.82837,9.2446,0.52028,3.11559,9.28401,-0.6562,-0.29844,-0.07284,-0.28137,0.12228,-0.2598,7847.0005,1.144,26.373,-31.854,350.637,-19.237,-3.513,1.97,65.3901,15.549856,73.76347,-222.581,NaN,0,14.680643,,15 / 36,19909,2019-01-17 16:05:48:038
-0.26149,2.74071,9.9135,0.49883,2.94904,9.33942,-0.80572,-0.29237,0.45036,-0.112,0.12175,-0.08989,7782,2.582,29.312,-25.542,352.946,-17.501,-3.057,1.97,65.3901,15.549856,73.76347,-222.581,NaN,0,14.680643,,15 / 36,20009,2019-01-17 16:05:48:138
-0.48605,2.64809,9.7359,0.35119,2.74581,9.40785,-1.01501,-0.1207,0.30454,-0.18604,-0.03911,0.01505,7660,3.331,28.186,-25.168,353,-17.131,-2.722,1.97,65.3901,15.549856,73.76347,-222.581,NaN,0,14.680643,,15 / 36,20109,2019-01-17 16:05:48:238
0.15767,3.22913,9.05969,0.46246,2.71053,9.41326,-0.35603,0.47507,-0.30818,-0.08963,-0.06255,-0.07018,7476,2.582,28.561,-25.98,354.884,-16.04,-2.508,1.97,65.3901,15.549856,73.76347,-222.581,NaN,0,14.680643,,15 / 36,20209,2019-01-17 16:05:48:338
0.69469,3.36742,8.76677,0.55041,2.72459,9.40447,-0.21599,0.5721,-0.76318,-0.05927,-0.11847,-0.00839,7568,0.769,28.561,-25.542,355.892,-16.131,-3.349,1.97,65.3901,15.549856,73.76347,-222.581,NaN,0,14.680643,,15 / 36,20309,2019-01-17 16:05:48:438
-0.33958,2.95435,8.73261,0.50273,2.7272,9.40638,-0.84403,0.21785,-0.70584,-0.16206,-0.02792,-0.13889,7708,1.831,28.937,-25.98,354.428,-16.29,-3.144,1.97,65.3901,15.549856,73.76347,-222.581,NaN,0,14.680643,,15 / 36,20409,2019-01-17 16:05:48:538
-0.35173,2.48378,10.11046,0.54133,2.71369,9.40815,-1.24494,-0.45507,0.91485,0.21237,-0.12061,0.14821,7708,1.144,29.312,-25.98,354.641,-15.937,-3.031,1.97,65.3901,15.549856,73.76347,-222.581,NaN,0,14.680643,,15 / 36,20509,2019-01-17 16:05:48:638
-0.54205,2.82033,9.77686,0.62669,2.74596,9.39347,-1.12525,0.0972,0.29478,-0.11572,0.0509,0.20625,7676.9995,2.582,30.374,-25.542,355.537,-16.435,-3.848,1.97,65.3901,15.549856,73.76347,-222.581,NaN,0,14.680643,,15 / 36,20609,2019-01-17 16:05:48:738
0.13054,2.93512,10.3286,0.40811,2.65162,9.43254,-0.35391,0.26585,0.84395,-0.00653,0.60963,0.24727,7816,1.831,31.123,-24.73,355.188,-15.687,-2.477,1.97,65.3901,15.549856,73.76347,-222.581,NaN,0,14.680643,,15 / 36,20709,2019-01-17 16:05:48:838
-0.58202,2.97839,8.686,0.2938,2.84352,9.38075,-0.91866,0.09341,-0.56919,0.13994,-0.01247,0.36551,7732,2.956,28.561,-25.542,353.829,-16.855,-1.794,1.97,65.3901,15.549856,73.76347,-222.581,NaN,0,14.680643,,15 / 36,20809,2019-01-17 16:05:48:938
0.16742,2.75786,8.93692,0.23103,2.78912,9.39882,0.06947,0.03121,-0.59914,0.01584,0.09778,0.1956,7244,2.582,28.561,-25.542,353.732,-16.562,-1.899,1.97,65.3901,15.549856,73.76347,-222.581,NaN,0,14.680643,,15 / 36,20909,2019-01-17 16:05:49:038
0.00609,2.87856,9.37523,0.07901,2.72523,9.42005,-0.05932,0.12978,-0.18172,-0.07152,0.19418,0.09601,7198,7.019,27.811,-24.73,347.969,-16.135,-0.481,1.97,65.3901,15.549856,73.76347,-222.581,NaN,0,14.680643,,15 / 36,21009,2019-01-17 16:05:49:138
0.07022,2.29242,8.50432,-0.24493,2.70022,9.4244,0.39323,-0.34252,-1.20429,-0.16632,0.47435,-0.22943,6947.0005,5.519,29.312,-24.73,350.562,-16.296,0.469,1.97,65.3901,15.549856,73.76347,-222.581,NaN,0,14.680643,,15 / 36,21110,2019-01-17 16:05:49:239
-0.11725,2.82625,8.83478,-0.48175,2.71438,9.41119,0.50015,-0.00115,-0.48773,-0.22066,0.04239,-0.08456,6670,7.768,29.312,-23.418,348.777,-16.069,2.93,1.97,65.3901,15.549856,73.76347,-222.581,NaN,0,14.680643,,15 / 36,21209,2019-01-17 16:05:49:338
-0.09409,2.31705,10.22034,-0.42795,2.55392,9.45858,0.33521,-0.24493,0.73192,-0.09549,-0.16214,0.04753,6152.9995,6.644,28.937,-23.48,348.777,-16.069,2.93,1.97,65.3901,15.549856,73.76347,-219.355,NaN,1.368,14.680643,198.5,15 / 36,21309,2019-01-17 16:05:49:438
-0.09427,2.55582,10.08371,-0.32706,2.57422,9.4571,0.23413,-0.01916,0.6088,0.12715,-0.19197,-0.03343,6152.9995,5.144,29.686,-22.168,353.052,-15.218,1.981,1.97,65.3901,15.549856,73.76347,-219.355,NaN,1.368,14.680643,198.5,15 / 36,21409,2019-01-17 16:05:49:538
-0.03439,2.7533,8.23393,-0.22383,2.72722,9.41714,0.1947,0.09091,-0.58164,0.22623,-0.15895,-0.10054,6280,4.768,29.312,-23.042,352.674,-15.588,1.515,1.97,65.3901,15.549856,73.76347,-219.355,NaN,1.368,14.680643,198.5,15 / 36,21509,2019-01-17 16:05:49:638
-0.547,3.05902,9.07248,-0.0128,2.86313,9.37938,-0.53416,0.18615,-0.3388,0.09041,-0.10036,0.01079,6540.9995,3.706,28.937,-24.73,354.486,-16.147,1.362,1.97,65.3901,15.549856,73.76347,-219.355,NaN,1.368,14.680643,198.5,15 / 36,21609,2019-01-17 16:05:49:738
-1.18132,2.86462,9.33786,0.19116,3.09641,9.30302,-0.69349,-0.12123,-0.39242,-0.04594,0.09459,-0.18097,6835.0005,4.457,28.937,-24.292,352.7,-18.406,-1.177,1.97,65.3901,15.549856,73.76347,-219.355,NaN,1.368,14.680643,198.5,15 / 36,21709,2019-01-17 16:05:49:838
-1.1601,2.62624,8.30902,0.13501,2.98339,9.34085,-1.29538,-0.36327,-1.05098,-0.39375,0.21709,0.02995,7203.0005,2.956,28.561,-23.856,351.396,-18.354,-0.809,1.97,65.3901,15.549856,73.76347,-219.355,NaN,1.368,14.680643,198.5,15 / 36,21809,2019-01-17 16:05:49:938
0.56343,2.79846,8.87865,0.18844,2.7383,9.4147,-0.63693,0.21489,-0.40201,-0.19402,-0.23618,0.27763,7146,1.144,29.312,-27.667,357.495,-16.214,-1.147,1.97,65.3901,15.549856,73.76347,-219.355,NaN,1.368,14.680643,198.5,15 / 36,21909,2019-01-17 16:05:50:038
0.16135,2.34929,8.6331,0.18067,2.502,9.48039,0.18072,-0.13321,-1.34212,-0.11945,-0.2644,-0.00946,7047.0005,2.956,30.061,-23.856,354.464,-14.887,-0.93,1.97,65.3901,15.549856,73.76347,-219.355,NaN,1.368,14.680643,198.5,15 / 36,22009,2019-01-17 16:05:50:138
-0.64549,2.24438,10.50946,0.18024,2.40207,9.50621,-0.82617,-0.16364,0.9797,0.33116,-0.12486,0.20093,7047.0005,5.144,30.374,-21.355,351.319,-13.911,-1.086,1.97,65.3901,15.549856,73.76347,-219.355,NaN,1.368,14.680643,198.5,15 / 36,22109,2019-01-17 16:05:50:238
-0.34506,2.51903,9.67677,0.39991,2.81611,9.3851,-0.44778,-0.51612,1.10052,0.91013,-0.59463,-0.01318,6976.9995,2.582,30.061,-23.418,353.573,-16.688,-2.44,1.97,65.3901,15.549856,73.76347,-219.355,NaN,1.368,14.680643,198.5,15 / 36,22209,2019-01-17 16:05:50:338
-0.5181,2.22742,11.89941,0.5193,2.97703,9.32942,-1.37598,-1.07466,3.01497,0.20386,-0.05402,-0.04408,6886,2.206,28.937,-23.856,354.249,-17.78,-3.397,1.97,65.3901,15.549856,73.76347,-212.903,NaN,1.548,14.680643,198.5,15 / 36,22310,2019-01-17 16:05:50:439
-0.44554,2.7282,9.24167,0.5064,3.10632,9.28788,-0.79536,-0.35759,-0.37335,0.02383,0.18939,-0.01425,7491.0005,2.582,28.937,-23.042,353.027,-18.467,-3.121,1.97,65.3901,15.549856,73.76347,-212.903,NaN,1.548,14.680643,198.5,15 / 36,22409,2019-01-17 16:05:50:538
-0.14563,2.63547,9.36342,0.33988,3.01797,9.32452,-0.70812,-0.52726,0.48762,-0.3176,0.2059,-0.01372,7456.9995,2.582,29.312,-23.042,353.272,-18.513,-2.723,1.97,65.3901,15.549856,73.76347,-212.903,NaN,1.548,14.680643,198.5,15 / 36,22510,2019-01-17 16:05:50:639
-0.4765,2.44997,10.7619,0.31477,2.97026,9.34071,-0.16788,-0.22775,-0.07305,0.14207,-0.10461,0.16258,7459.0005,3.331,28.186,-23.856,353.753,-17.412,-1.692,1.97,65.3901,15.549856,73.76347,-212.903,NaN,1.548,14.680643,198.5,15 / 36,22610,2019-01-17 16:05:50:739
-0.00626,2.20329,8.88638,0.21515,2.84579,9.3822,-0.55261,-0.56604,-0.96349,-0.30374,0.58087,0.30533,7136,4.831,29.686,-22.604,352.091,-17.553,-1.996,1.97,65.3901,15.549856,73.76347,-212.903,NaN,1.548,14.680643,198.5,15 / 36,22710,2019-01-17 16:05:50:839
0.91393,2.09738,10.97795,0.0257,2.84389,9.3852,1.01697,-0.91985,2.20076,0.51279,-0.7065,-0.31253,7152,4.082,29.312,-22.604,353.268,-16.858,-0.157,1.97,65.3901,15.549856,73.76347,-212.903,NaN,1.548,14.680643,198.5,15 / 36,22809,2019-01-17 16:05:50:938
-0.4597,2.30823,10.78803,-0.00903,2.84558,9.38472,-0.2913,-0.18466,-0.52977,0.23476,-0.15202,-0.18469,6824.9995,4.082,29.312,-28.481,353.628,-16.868,0.055,1.97,65.3901,15.549856,73.76347,-212.903,NaN,1.548,14.680643,198.5,15 / 36,22910,2019-01-17 16:05:51:039
0.02066,2.78049,8.83206,0.06977,2.98254,9.34184,-0.2624,-0.2095,-0.40399,0.12715,-0.13765,-0.03076,6824.9995,3.706,29.686,-23.418,351.635,-17.358,-0.091,1.97,65.3901,15.549856,73.76347,-212.903,NaN,1.548,14.680643,198.5,15 / 36,23009,2019-01-17 16:05:51:138
-0.15538,3.13435,8.25475,0.17178,3.14042,9.28863,-0.24609,-0.05066,-0.86435,0.20493,-0.17599,-0.13409,6844,2.956,28.937,-23.042,353.128,-17.706,-0.428,1.97,65.3901,15.549856,73.76347,-212.903,NaN,1.548,14.680643,198.5,15 / 36,23109,2019-01-17 16:05:51:238
-0.20456,2.78027,9.25459,0.17782,3.15075,9.28502,-0.13751,-0.37009,-0.15106,0.03981,0.03706,-0.19481,7024.9995,3.706,28.937,-24.292,354.228,-18.7,-1.059,1.97,65.3901,15.549856,73.76347,-212.903,NaN,1.548,14.680643,198.5,15 / 36,23209,2019-01-17 16:05:51:338
-0.59225,2.82396,8.89836,0.10408,3.0896,9.30666,-0.66635,-0.30123,-0.32882,-0.09708,0.01363,-0.17723,7062,1.831,28.937,-24.292,356.3,-18.364,-0.641,1.97,65.3901,15.549856,73.76347,-209.677,NaN,0.828,14.680643,198.5,15 / 36,23309,2019-01-17 16:05:51:438
-0.15674,3.15871,9.6928,0.02573,2.97234,9.34532,-0.33803,0.15577,0.21532,-0.104,-0.01353,-0.00146,7046,3.331,29.312,-23.042,358.206,-17.861,-0.18,1.97,65.3901,15.549856,73.76347,-209.677,NaN,0.828,14.680643,198.5,15 / 36,23410,2019-01-17 16:05:51:539
-0.47913,2.82217,10.00749,0.02885,2.9092,9.36515,-1.00635,-0.05586,0.73362,0.04726,-0.08118,0.11517,6928,2.206,28.561,-23.042,356.567,-17.257,-0.177,1.97,65.3901,15.549856,73.76347,-209.677,NaN,0.828,14.680643,198.5,15 / 36,23509,2019-01-17 16:05:51:638
0.05896,2.90057,10.05728,0.12711,2.95937,9.3486,-0.06874,-0.07264,0.66496,0.149,-0.10036,0.16844,6888,3.706,28.937,-21.73,357.954,-17.486,-0.582,1.97,65.3901,15.549856,73.76347,-209.677,NaN,0.828,14.680643,198.5,15 / 36,23609,2019-01-17 16:05:51:738
-0.22127,2.98634,9.09282,0.24242,3.1246,9.29239,-0.64309,-0.28212,-0.00189,0.06857,0.07381,0.36978,7042,3.706,28.561,-22.98,352.469,-18.579,-1.494,1.97,65.3901,15.549856,73.76347,-209.677,NaN,0.828,14.680643,198.5,15 / 36,23709,2019-01-17 16:05:51:838
-0.35272,2.55823,7.86107,0.19011,2.69809,9.42627,-0.54355,-0.15005,-1.60081,-1.01907,0.73907,0.44968,7042,3.706,29.312,-20.48,352.334,-18.564,-1.699,1.97,65.3901,15.549856,73.76347,-209.677,NaN,0.828,14.680643,198.5,15 / 36,23809,2019-01-17 16:05:51:938
-0.0751,2.21265,9.2898,0.36107,2.71825,9.41547,-0.43759,-0.4508,-0.60248,0.33914,-0.41727,-0.19641,7154,4.082,28.561,-23.042,352.34,-14.278,0.213,1.97,65.3901,15.549856,73.76347,-209.677,NaN,0.828,14.680643,198.5,15 / 36,23910,2019-01-17 16:05:52:039
-0.27354,2.78871,8.2571,0.37247,2.88716,9.36461,-0.64685,-0.10492,-1.12854,0.03288,-0.12593,-0.28696,6674,3.331,29.312,-21.355,353.384,-16.846,-2.191,1.97,65.3901,15.549856,73.76347,-209.677,NaN,0.828,14.680643,198.5,15 / 36,24010,2019-01-17 16:05:52:139
-0.79068,3.019,8.51353,0.29943,2.87569,9.37076,-1.2516,-0.17763,-0.44187,0.08615,0.02695,-0.08296,7066,2.956,28.937,-21.73,353.666,-16.975,-2.057,1.97,65.3901,15.549856,73.76347,-209.677,NaN,0.828,14.680643,198.5,15 / 36,24109,2019-01-17 16:05:52:238
-1.16098,2.60892,9.72235,0.18994,2.76441,9.40704,-1.4387,-0.14563,0.27578,-0.07417,0.02002,0.13754,7104.9995,2.956,28.561,-21.355,354.204,-16.373,-1.157,1.97,65.3901,15.549856,73.76347,-209.677,NaN,0.828,14.680643,198.5,15 / 36,24209,2019-01-17 16:05:52:338
0.12556,2.3663,9.81267,0.1621,2.76578,9.40715,-0.02947,-0.4046,0.38794,0.00998,0.18939,0.11198,6967.0005,3.331,28.561,-21.355,349.527,-16.329,-1.113,1.97,65.3901,15.549856,73.76347,-209.677,NaN,0,14.680643,,15 / 36,24309,2019-01-17 16:05:52:438
0.03458,2.01213,11.24289,0.07423,2.7645,9.40864,-0.00917,-0.80505,1.83737,0.16391,-0.00714,0.03474,6842,4.082,28.937,-20.48,352.915,-16.374,-0.452,1.97,65.3901,15.549856,73.76347,-209.677,NaN,0,14.680643,,15 / 36,24409,2019-01-17 16:05:52:538
0.842,2.08546,11.43924,0.09072,2.7223,9.42079,0.58781,-0.6612,1.59912,0.36951,-0.35069,-0.14368,6696,5.144,28.937,-20.917,351.219,-16.117,-0.552,1.97,65.3901,15.549856,73.76347,-209.677,NaN,0,14.680643,,15 / 36,24509,2019-01-17 16:05:52:638
-0.14336,2.14621,9.55269,0.14691,2.93259,9.35675,-0.40897,-0.88894,0.34311,0.20651,-0.0423,-0.28377,6896.9995,2.582,30.061,-21.292,355.673,-17.25,-1.544,1.97,65.3901,15.549856,73.76347,-209.677,NaN,0,14.680643,,15 / 36,24609,2019-01-17 16:05:52:738
-0.01765,2.15118,8.37642,-0.00838,2.97589,9.34422,0.00292,-0.79546,-0.84135,0.0414,-0.0226,-0.38922,6896.9995,2.582,30.061,-21.73,354.946,-17.562,-0.303,1.97,65.3901,15.549856,73.76347,-209.677,NaN,0,14.680643,,15 / 36,24709,2019-01-17 16:05:52:838
-0.7354,3.20805,8.85695,-0.09026,2.96721,9.34654,-0.636,0.25656,-0.59882,-0.09015,-0.09557,-0.35887,6788,0.394,29.686,-21.73,0.345,-17.612,0.553,1.97,65.3901,15.549856,73.76347,-209.677,NaN,0,14.680643,,15 / 36,24809,2019-01-17 16:05:52:938
-0.6483,3.14992,9.45203,-0.03096,2.94901,9.35269,-0.63788,0.18926,0.15841,0.02383,-0.19357,-0.15221,6879.0005,-1.482,29.312,-26.418,1.846,-17.504,0.315,1.97,65.3901,15.549856,73.76347,-209.677,NaN,0,14.680643,,15 / 36,24909,2019-01-17 16:05:53:038
-0.5807,2.97719,9.79497,0.089,2.93255,9.35749,-0.70999,0.04259,0.4094,0.00945,-0.13817,-0.02757,7052.9995,-1.482,29.312,-20.48,1.578,-17.506,-0.104,1.97,65.3901,15.549856,73.76347,-209.677,NaN,0,14.680643,,15 / 36,25009,2019-01-17 16:05:53:138
-0.6937,3.03465,8.79694,0.20352,3.03239,9.32382,-0.89745,-0.00126,-0.53771,0.03874,-0.03911,0.10292,7304.9995,-2.168,29.686,-21.355,2.519,-18.012,-1.25,1.97,65.3901,15.549856,73.76347,-209.677,NaN,0,14.680643,,15 / 36,25109,2019-01-17 16:05:53:238
0.18352,3.26132,9.37097,0.24781,3.01933,9.32698,-0.06289,0.23651,0.03365,0.03714,0.04771,0.047,7516.9995,-0.731,28.937,-20.917,2.25,-17.925,-1.592,1.97,65.3901,15.549856,73.76347,-209.677,NaN,0,14.680643,,15 / 36,25209,2019-01-17 16:05:53:338
-0.36638,2.49835,9.91681,0.16487,2.98832,9.3388,-0.45309,-0.61729,0.74118,0.13142,0.19312,0.19135,7548,-1.106,29.312,-20.042,359.106,-17.862,-1.49,1.97,65.3901,15.549856,73.76347,-212.903,NaN,1.368,14.680643,198.5,15 / 36,25309,2019-01-17 16:05:53:438
-0.21603,2.49492,9.74968,0.1317,3.04034,9.32252,-0.17249,-0.36934,0.08977,-0.12051,0.06902,0.047,7426,-0.731,29.312,-20.917,1.182,-18.061,-0.809,1.97,65.3901,15.549856,73.76347,-212.903,NaN,1.368,14.680643,198.5,15 / 36,25409,2019-01-17 16:05:53:538
-0.92027,2.37384,9.24074,0.25381,3.03354,9.32221,-1.17441,-0.66356,-0.09333,-0.02464,-0.18398,0.1972,7426,-0.731,28.561,-22.168,359.268,-18.06,-1.188,1.97,65.3901,15.549856,73.76347,-212.903,NaN,1.368,14.680643,198.5,15 / 36,25509,2019-01-17 16:05:53:638
0.66039,2.55582,9.15118,0.48439,2.98587,9.32847,0.28286,-0.43257,-0.24644,-0.08324,0.05197,0.12103,7300,0.394,28.937,-20.48,355.539,-17.929,-1.993,1.97,65.3901,15.549856,73.76347,-212.903,NaN,1.368,14.680643,198.5,15 / 36,25609,2019-01-17 16:05:53:738
-0.32819,2.28511,9.30441,0.44294,2.90376,9.35641,-0.62383,-0.57968,-0.09458,-0.1349,0.12228,-0.00253,7556,-0.356,29.312,-20.917,358.323,-17.224,-2.71,1.97,65.3901,15.549856,73.76347,-212.903,NaN,1.368,14.680643,198.5,15 / 36,25710,2019-01-17 16:05:53:839
-0.32884,2.45207,10.21672,0.31302,2.6876,9.42599,-0.42413,-0.26091,-0.12099,-0.32664,0.30605,0.04274,7676.9995,-0.356,28.937,-20.042,358.677,-16.961,-2.221,1.97,65.3901,15.549856,73.76347,-212.903,NaN,1.368,14.680643,198.5,15 / 36,25810,2019-01-17 16:05:53:939
-0.23718,3.03111,9.52542,0.1867,2.50019,9.48075,-0.05998,0.62573,-0.82282,-0.08963,-0.013,0.0502,7508.9995,-1.106,28.937,-21.292,359.061,-15.216,-1.379,1.97,65.3901,15.549856,73.76347,-212.903,NaN,1.368,14.680643,198.5,15 / 36,25910,2019-01-17 16:05:54:039
-0.60966,2.62413,9.71803,0.13238,2.43217,9.49934,-0.7022,0.16884,0.19585,0.01956,-0.05934,-0.00253,7198,1.144,30.374,-19.229,357.855,-14.36,-0.798,1.97,65.3901,15.549856,73.76347,-212.903,NaN,1.368,14.680643,198.5,15 / 36,26009,2019-01-17 16:05:54:138
-0.01819,3.11069,9.91493,0.08295,2.53993,9.47166,-0.61465,0.01032,1.84033,0.11438,0.13347,-0.15167,7055.0005,2.582,30.374,-18.355,354.412,-14.709,-0.908,1.97,65.3901,15.549856,73.76347,-212.903,NaN,1.368,14.680643,198.5,15 / 36,26109,2019-01-17 16:05:54:238
0.15683,2.98326,7.69028,0.12895,2.8699,9.37643,-0.35841,-0.18721,0.43516,-0.00441,0.03439,-0.04674,7094,1.144,28.561,-20.48,357.807,-16.889,-0.816,1.97,65.3901,15.549856,73.76347,-212.903,NaN,1.368,14.680643,198.5,15 / 36,26209,2019-01-17 16:05:54:338
-0.40279,2.73769,9.86839,0.27636,3.14321,9.28516,-0.62448,-0.43872,0.67811,0.36311,-0.17918,0.03688,7562,1.144,28.937,-19.667,357.604,-17.768,-1.177,1.97,65.3901,15.549856,73.76347,-212.903,NaN,1.296,14.680643,198.5,15 / 36,26310,2019-01-17 16:05:54:439
-0.04388,3.10773,8.24213,0.39168,3.25766,9.24146,-0.43627,-0.15581,-1.016,0.0723,-0.12698,0.07683,7562,-0.356,28.186,-21.73,0.272,-19.147,-2.077,1.97,65.3901,15.549856,73.76347,-212.903,NaN,1.296,14.680643,198.5,15 / 36,26409,2019-01-17 16:05:54:538
-0.43204,2.54881,9.79491,0.37814,3.20005,9.26213,-0.46299,-0.44333,-0.08189,-0.14395,0.04504,0.00439,7988.9995,1.144,28.186,-21.355,358.474,-19.402,-2.427,1.97,65.3901,15.549856,73.76347,-212.903,NaN,1.296,14.680643,198.5,15 / 36,26509,2019-01-17 16:05:54:638
0.79623,1.80537,11.08073,0.25581,3.16302,9.27902,0.75143,-1.34076,1.13618,0.25978,-0.18344,-0.24968,7932.9995,1.144,28.561,-21.355,357.359,-18.817,-1.579,1.97,65.3901,15.549856,73.76347,-212.903,NaN,1.296,14.680643,198.5,15 / 36,26609,2019-01-17 16:05:54:738
0.19505,3.2433,9.98904,-0.27671,3.05652,9.31405,0.76471,-0.13287,1.96815,0.20226,0.04611,-0.14368,7772,0.769,28.561,-21.292,358.973,-18.201,1.106,1.97,65.3901,15.549856,73.76347,-212.903,NaN,1.296,14.680643,198.5,15 / 36,26709,2019-01-17 16:05:54:838
0.07813,3.01155,9.82695,-0.4649,2.90598,9.35465,0.6082,0.1189,0.1371,-0.28351,0.12442,0.0273,7344.9995,2.206,28.937,-20.042,1.203,-18.356,1.956,1.97,65.3901,15.549856,73.76347,-212.903,NaN,1.296,14.680643,198.5,15 / 36,26809,2019-01-17 16:05:54:938
0.15271,3.20703,9.39342,-0.41825,2.88912,9.36208,0.55225,0.34052,-0.24565,-0.08324,0.07861,-0.14847,7060.9995,-0.731,28.937,-22.168,3.317,-17.134,2.558,1.97,65.3901,15.549856,73.76347,-212.903,NaN,1.296,14.680643,198.5,15 / 36,26909,2019-01-17 16:05:55:038
-0.9198,3.03273,9.06883,-0.42172,2.91717,9.35322,-0.34531,0.07204,-0.31391,0.05739,-0.08598,-0.12184,7052,1.456,28.937,-19.667,359.854,-17.18,2.617,1.97,65.3901,15.549856,73.76347,-212.903,NaN,1.296,14.680643,198.5,15 / 36,27009,2019-01-17 16:05:55:138
-0.53481,3.17772,9.45947,-0.26584,2.97436,9.34093,-0.25848,0.14786,0.07877,0.11864,-0.16747,-0.02065,7210,1.144,28.561,-20.48,1.389,-17.434,2.338,1.97,65.3901,15.549856,73.76347,-212.903,NaN,1.296,14.680643,198.5,15 / 36,27110,2019-01-17 16:05:55:239
-0.76465,3.06441,10.39882,-0.17608,3.04859,9.31909,-0.46941,0.06975,0.58305,-0.02092,-0.1893,-0.03609,7210,0.018,28.186,-21.355,0.686,-18.112,1.082,1.97,65.3901,15.549856,73.76347,-212.903,NaN,1.296,14.680643,198.5,15 / 36,27209,2019-01-17 16:05:55:338
-0.13257,3.19737,10.7896,-0.21944,3.07227,9.31039,0.17999,0.23862,0.92024,-0.02518,0.34332,0.11198,7519.0005,-0.731,27.437,-19.229,2.07,-18.521,0.542,1.97,65.3901,15.549856,73.76347,-212.903,NaN,1.692,14.680643,358.4,15 / 36,27309,2019-01-17 16:05:55:438
-0.18436,3.17157,8.9416,-0.28944,3.19207,9.26808,0.02921,-0.03078,-0.28567,0.05792,0.14519,0.18282,7780.9995,0.018,28.561,-21.355,2.881,-18.337,1.874,1.97,65.3901,15.549856,73.76347,-212.903,NaN,1.692,14.680643,358.4,15 / 36,27409,2019-01-17 16:05:55:538
-0.20744,3.18524,7.73875,-0.04602,3.32963,9.22398,-0.16128,-0.15475,-1.51392,-0.18657,0.17395,0.35432,7647.0005,0.018,27.437,-19.229,0.171,-19.848,0.286,1.97,65.3901,15.549856,73.76347,-212.903,NaN,1.692,14.680643,358.4,15 / 36,27509,2019-01-17 16:05:55:638
-0.02515,2.86269,9.66463,-0.05279,3.26297,9.24774,0.01821,-0.49245,0.58005,0.11224,-0.14989,0.0502,7615.0005,0.769,27.811,-20.917,358.49,-19.435,0.327,1.97,65.3901,15.549856,73.76347,-212.903,NaN,1.692,14.680643,358.4,15 / 36,27609,2019-01-17 16:05:55:738
-0.80528,3.01782,8.62093,-0.22834,3.10605,9.29896,-0.64383,-0.05854,-0.88075,-0.29469,0.338,0.11678,7831.0005,1.144,28.186,-20.042,358.519,-19.356,0.44,1.97,65.3901,15.549856,73.76347,-212.903,NaN,1.692,14.680643,358.4,15 / 36,27709,2019-01-17 16:05:55:838
-1.10919,3.37662,8.79614,-0.25815,2.97326,9.34149,-0.19825,0.21217,0.52299,-0.05606,-0.05615,0.194,7738,1.144,28.561,-19.604,359.284,-17.913,1.655,1.97,65.3901,15.549856,73.76347,-212.903,NaN,1.692,14.680643,358.4,15 / 36,27809,2019-01-17 16:05:55:938
-1.13065,3.47519,9.51396,-0.19083,2.95456,9.34904,-0.98374,0.51623,0.11161,-0.0582,-0.02525,0.11945,7323.0005,0.018,28.186,-23.856,359.085,-17.754,1.055,1.97,65.3901,15.549856,73.76347,-212.903,NaN,1.692,14.680643,358.4,15 / 36,27909,2019-01-17 16:05:56:038
-0.18094,3.18788,10.36975,-0.15762,2.88889,9.37016,-0.46856,0.32737,0.46823,0.07602,-0.12061,0.08376,7236,0.769,28.561,-19.229,358.83,-17.133,0.964,1.97,65.3901,15.549856,73.76347,-212.903,NaN,1.692,14.680643,358.4,15 / 36,28010,2019-01-17 16:05:56:139
0.14642,2.93526,11.02696,-0.04622,2.93895,9.35579,0.09242,0.03718,1.27887,0.23741,-0.02046,-0.01265,7236,1.831,27.811,-20.48,356.798,-17.274,0.492,1.97,65.3901,15.549856,73.76347,-212.903,NaN,1.692,14.680643,358.4,15 / 36,28109,2019-01-17 16:05:56:238
-0.59752,2.57156,10.38214,-0.04988,3.11909,9.29727,-0.32221,-0.25074,-0.52351,-0.02039,0.42268,-0.13091,7276,1.456,28.186,-18.793,358.422,-18.546,0.307,1.97,65.3901,15.549856,73.76347,-212.903,NaN,1.692,14.680643,358.4,15 / 36,28209,2019-01-17 16:05:56:338
-1.42307,2.79883,8.61934,-0.16277,3.359,9.212,0.21785,-0.34859,-0.7934,0.26192,-0.13338,-0.6385,7422,0.769,27.811,-20.917,358.828,-19.624,0.862,1.97,65.3901,15.549856,73.76347,-212.903,NaN,1.656,14.680643,198.5,15 / 36,28309,2019-01-17 16:05:56:438
-1.44475,3.20216,6.88811,-0.31162,3.51259,9.15068,-1.15176,-0.32904,-1.997,0.01263,0.30444,-0.11652,7486,-0.731,27.061,-19.229,2.338,-20.031,1.012,1.97,65.3901,15.549856,73.76347,-212.903,NaN,1.656,14.680643,198.5,15 / 36,28409,2019-01-17 16:05:56:538
-0.2858,3.06784,9.1633,-0.46505,3.31623,9.2172,0.13127,-0.26186,-0.08741,-0.19829,0.06157,-0.00946,7476,-1.106,28.561,-20.105,1.725,-20.493,2.867,1.97,65.3901,15.549856,73.76347,-212.903,NaN,1.656,14.680643,198.5,15 / 36,28509,2019-01-17 16:05:56:638
-0.22833,3.16408,9.42015,-0.48592,3.19588,9.25854,0.25878,-0.02833,0.15932,-0.0827,0.02267,-0.03397,7240.9995,0.394,27.811,-19.229,1.74,-19.224,2.996,1.97,65.3901,15.549856,73.76347,-212.903,NaN,1.656,14.680643,198.5,15 / 36,28609,2019-01-17 16:05:56:738
-0.47734,3.37941,9.39635,-0.40816,3.12509,9.28642,0.06874,0.24654,0.03296,-0.05606,-0.20901,-0.11172,7142,-0.731,29.312,-19.229,5.084,-18.894,2.911,1.97,65.3901,15.549856,73.76347,-212.903,NaN,1.656,14.680643,198.5,15 / 36,28709,2019-01-17 16:05:56:838
-0.49298,3.07295,9.82646,-0.26906,3.05409,9.31507,-0.08892,0.01707,0.48076,-0.01772,-0.18132,-0.09575,7142,-1.482,28.937,-18.793,3.175,-18.583,2.517,1.97,65.3901,15.549856,73.76347,-212.903,NaN,1.656,14.680643,198.5,15 / 36,28809,2019-01-17 16:05:56:938
-0.41719,3.21248,9.40997,-0.1913,3.03767,9.32236,-0.16956,0.18752,0.16193,-0.04701,-0.10196,-0.16551,7243.0005,-3.668,29.312,-24.292,7.317,-18.045,1.176,1.97,65.3901,15.549856,73.76347,-212.903,NaN,1.656,14.680643,198.5,15 / 36,28909,2019-01-17 16:05:57:038
-0.62106,3.0826,9.74112,-0.18012,2.96816,9.34494,-0.44082,0.11236,0.38964,0.00305,-0.00928,-0.00946,7542,-2.168,29.312,-17.979,4.044,-17.637,1.086,1.97,65.3901,15.549856,73.76347,-212.903,NaN,1.656,14.680643,198.5,15 / 36,29010,2019-01-17 16:05:57:139
-0.15172,3.37302,9.34209,-0.20248,3.00089,9.33403,-0.09472,0.37759,0.11514,0.04247,0.06104,0.08055,7624.9995,-2.919,29.312,-17.979,5.599,-17.688,1.135,1.97,65.3901,15.549856,73.76347,-212.903,NaN,1.656,14.680643,198.5,15 / 36,29109,2019-01-17 16:05:57:238
-0.55092,3.25992,8.86301,-0.19761,3.02508,9.32632,-0.32254,0.23688,-0.52688,-0.02251,-0.05402,0.07257,7618,-3.294,29.312,-18.355,5.829,-17.967,1.214,1.97,65.3901,15.549856,73.76347,-212.903,NaN,1.656,14.680643,198.5,15 / 36,29209,2019-01-17 16:05:57:338
-0.14064,2.87033,10.07176,-0.07672,2.95358,9.35098,0.01301,-0.18776,0.7146,0.00679,-0.00662,0.2036,7612,-4.044,29.312,-19.667,5.673,-17.893,0.921,1.97,65.3901,15.549856,73.76347,-212.903,NaN,1.188,14.680643,198.5,15 / 36,29309,2019-01-17 16:05:57:438
-0.23975,3.18187,9.15161,0.00786,2.95172,9.35188,-0.16573,0.24514,-0.29745,-0.12051,0.03546,0.21638,7716,-2.919,29.686,-19.229,4.968,-17.517,-0.048,1.97,65.3901,15.549856,73.76347,-212.903,NaN,1.188,14.680643,198.5,15 / 36,29409,2019-01-17 16:05:57:538
-0.36491,3.36122,8.72826,0.05525,2.95152,9.35178,-0.32754,0.42011,-0.57695,-0.06831,0.04825,0.26166,7730,-1.855,29.312,-18.355,3.403,-17.461,-0.107,1.97,65.3901,15.549856,73.76347,-212.903,NaN,1.188,14.680643,198.5,15 / 36,29510,2019-01-17 16:05:57:639
-0.11403,3.09676,9.77824,0.12441,2.97359,9.34413,-0.19543,0.08736,0.67375,0.1261,0.04292,0.22437,7718,-0.731,29.312,-18.793,1.281,-17.651,-0.763,1.97,65.3901,15.549856,73.76347,-212.903,NaN,1.188,14.680643,198.5,15 / 36,29609,2019-01-17 16:05:57:738
-0.33939,3.1835,9.12482,0.19407,3.02351,9.3269,-0.51899,0.09993,-0.12859,-0.112,0.01363,0.1759,7760,0.018,29.686,-19.229,359.342,-17.958,-1.192,1.97,65.3901,15.549856,73.76347,-212.903,NaN,1.188,14.680643,198.5,15 / 36,29710,2019-01-17 16:05:57:839
-0.55984,2.99829,9.17632,0.16895,2.98903,9.3385,-0.91169,-0.04193,0.07248,0.08667,0.00777,0.30161,7760,0.394,29.312,-19.229,359.411,-17.746,-1.036,1.97,65.3901,15.549856,73.76347,-212.903,NaN,1.188,14.680643,198.5,15 / 36,29809,2019-01-17 16:05:57:938
0.00247,3.01355,9.47443,0.2128,3.00275,9.3332,-0.43884,0.04883,-0.44113,0.01105,0.06157,0.27657,7763.0005,0.018,29.312,-22.604,359.164,-17.902,-1.26,1.97,65.3901,15.549856,73.76347,-212.903,NaN,1.188,14.680643,198.5,15 / 36,29909,2019-01-17 16:05:58:038
-0.19179,2.9232,8.84439,0.19768,2.998,9.33506,-0.29232,-0.04557,-0.55885,-0.07631,0.09991,0.1498,7676,3.331,28.937,-17.979,357.436,-17.924,-1.403,1.97,65.3901,15.549856,73.76347,-212.903,NaN,1.188,14.680643,198.5,15 / 36,30009,2019-01-17 16:05:58:138
-0.22833,2.98154,8.8409,0.17503,2.8395,9.38494,-0.40355,0.13907,-0.55384,-0.2084,-0.00128,0.08322,7642,2.582,29.312,-17.105,354.202,-16.831,-1.068,1.97,65.3901,15.549856,73.76347,-212.903,NaN,1.188,14.680643,198.5,15 / 36,30109,2019-01-17 16:05:58:238
0.03787,2.86612,9.38492,0.2455,2.66756,9.43368,-0.44107,0.27744,-0.52502,-0.29575,-0.01353,0.15565,7562,2.582,30.061,-17.105,354.165,-16.193,-1.44,1.97,65.3901,15.549856,73.76347,-212.903,NaN,1.188,14.680643,198.5,15 / 36,30209,2019-01-17 16:05:58:338
0.07988,2.55582,9.58614,0.36284,2.45172,9.4883,-0.28168,0.11271,0.13116,-0.04382,0.00563,0.11996,7572,0.769,29.686,-15.417,355.776,-15.264,-1.606,1.97,65.3901,15.549856,73.76347,-212.903,NaN,1.188,14.680643,198.5,15 / 36,30309,2019-01-17 16:05:58:438
1.01825,2.4449,10.36597,0.24723,2.27741,9.53534,0.27886,-0.00162,1.39964,-0.3389,0.40085,-0.18842,7632.9995,2.582,30.061,-16.667,354.069,-13.428,-1.485,1.97,65.3901,15.549856,73.76347,-209.677,NaN,1.908,14.680643,327,15 / 36,30409,2019-01-17 16:05:58:538
0.00847,2.25545,10.09372,0.0214,2.1258,9.57345,-0.03902,0.14583,0.46902,-0.07417,-0.01939,-0.0313,7464,2.206,30.75,-14.542,358.052,-12.599,-0.408,1.97,65.3901,15.549856,73.76347,-209.677,NaN,1.908,14.680643,327,15 / 36,30509,2019-01-17 16:05:58:638
0.97571,2.09438,10.26088,0.09144,2.04973,9.58961,0.8843,0.04533,0.6745,-0.07259,-0.01088,0.09866,7464,3.706,30.374,-13.73,358.178,-12.294,-0.239,1.97,65.3901,15.549856,73.76347,-209.677,NaN,1.908,14.680643,327,15 / 36,30609,2019-01-17 16:05:58:738
0.39742,1.89392,10.19014,0.07559,2.10097,9.57865,0.06563,-0.19448,0.76467,0.19214,-0.07426,-0.03023,7212.9995,1.831,30.374,-13.73,356.262,-12.371,-0.452,1.97,65.3901,15.549856,73.76347,-209.677,NaN,1.908,14.680643,327,15 / 36,30709,2019-01-17 16:05:58:838
0.79352,2.58698,8.00262,0.19164,2.32897,9.52416,0.74151,-0.08176,0.05513,0.20386,-0.15521,-0.24222,7236,1.831,30.374,-15.042,354.63,-12.799,-0.586,1.97,65.3901,15.549856,73.76347,-209.677,NaN,1.908,14.680643,327,15 / 36,30809,2019-01-17 16:05:58:938
0.08739,2.15094,9.21281,0.3057,2.40522,9.5022,0.58631,-0.45757,0.50646,0.09467,-0.42313,-0.20973,7236.9995,2.206,30.374,-15.417,357.644,-14.131,-1.28,1.97,65.3901,15.549856,73.76347,-209.677,NaN,1.908,14.680643,327,15 / 36,30909,2019-01-17 16:05:59:038
0.23524,2.22809,9.33205,0.31463,2.44878,9.49078,-0.10615,-0.21277,-0.21055,-0.04222,0.11749,-0.2076,7442,1.144,31.123,-14.604,357.461,-14.46,-1.899,1.97,65.3901,15.549856,73.76347,-209.677,NaN,1.908,14.680643,327,15 / 36,31009,2019-01-17 16:05:59:138
0.16174,2.86694,9.1908,0.38151,2.48635,9.47855,-0.22392,0.36077,-0.2843,-0.06459,-0.08438,-0.23264,7688,-1.106,31.123,-14.604,359.091,-14.611,-1.935,1.97,65.3901,15.549856,73.76347,-209.677,NaN,1.908,14.680643,327,15 / 36,31109,2019-01-17 16:05:59:238
0.03348,2.7803,9.4997,0.42882,2.40181,9.4983,-0.4073,0.40683,-0.20595,-0.08377,-0.05722,-0.17564,7672,-1.855,29.686,-14.604,2.309,-14.177,-2.585,1.97,65.3901,15.549856,73.76347,-209.677,NaN,1.908,14.680643,327,15 / 36,31209,2019-01-17 16:05:59:338
-0.26855,2.19049,9.7365,0.50266,2.56054,9.45311,-0.79487,-0.35728,0.27644,0.16656,-0.03378,0.01398,7868,-3.294,30.75,-14.168,4.134,-14.205,-2.637,1.97,65.3901,15.549856,73.76347,-209.677,NaN,1.368,14.680643,198.5,15 / 36,31309,2019-01-17 16:05:59:438
0.14182,1.90652,10.07298,0.54017,2.58537,9.44428,0.27233,-0.18504,-0.88001,0.12875,-0.0732,0.00546,8148,-2.919,30.75,-14.168,3.734,-15.439,-3.272,1.97,65.3901,15.549856,73.76347,-209.677,NaN,1.368,14.680643,198.5,15 / 36,31410,2019-01-17 16:05:59:539
-0.19809,1.85979,9.06819,0.61217,2.60896,9.4334,-0.80916,-0.74449,-0.34827,-0.13649,0.06583,0.11838,8148,-2.919,30.75,-14.604,1.984,-15.286,-3.273,1.97,65.3901,15.549856,73.76347,-209.677,NaN,1.368,14.680643,198.5,15 / 36,31509,2019-01-17 16:05:59:638
-0.28749,2.11667,9.44818,0.5336,2.49665,9.4685,-1.02094,-0.40014,0.21783,-0.27977,0.34492,0.07683,8116.9995,-2.544,31.123,-13.292,3.886,-14.749,-3.226,1.97,65.3901,15.549856,73.76347,-209.677,NaN,1.368,14.680643,198.5,15 / 36,31609,2019-01-17 16:05:59:738
-0.59589,2.57961,9.11891,0.44728,2.45585,9.48363,-0.64367,0.18673,-0.94828,-0.04222,0.13507,0.16951,7934,-1.482,30.374,-14.168,0.537,-14.544,-2.84,1.97,65.3901,15.549856,73.76347,-209.677,NaN,1.368,14.680643,198.5,15 / 36,31709,2019-01-17 16:05:59:838
-0.26242,2.36427,9.58366,0.40453,2.30472,9.52339,-0.69325,-0.05049,0.66142,0.01956,-0.02792,0.29201,7700,0.394,30.75,-12.918,358.873,-14.503,-2.7,1.97,65.3901,15.549856,73.76347,-209.677,NaN,1.368,14.680643,198.5,15 / 36,31810,2019-01-17 16:05:59:939
-0.03389,2.39868,9.09184,0.48588,2.28321,9.52477,-0.55084,0.14515,-0.4594,-0.11147,-0.021,0.21638,7558,0.394,30.75,-19.229,0.674,-13.593,-2.432,1.97,65.3901,15.549856,73.76347,-209.677,NaN,1.368,14.680643,198.5,15 / 36,31909,2019-01-17 16:06:00:038
0.63358,2.11528,9.87518,0.51661,2.31092,9.51647,0.11811,-0.19054,0.37971,0.043,-0.04869,-0.04567,7540,0.394,30.374,-13.354,358.742,-13.304,-3.002,1.97,65.3901,15.549856,73.76347,-209.677,NaN,1.368,14.680643,198.5,15 / 36,32009,2019-01-17 16:06:00:138
0.73108,2.19305,9.12589,0.63451,2.46427,9.47075,0.13429,-0.22963,-0.38291,0.13196,-0.17546,-0.20494,7556.9995,-0.731,30.75,-13.354,0.355,-14.2,-3.493,1.97,65.3901,15.549856,73.76347,-209.677,NaN,1.368,14.680643,198.5,15 / 36,32109,2019-01-17 16:06:00:238
-0.40152,2.70982,8.74513,0.66489,2.61297,9.42872,-0.94006,-0.06637,-0.6337,0.12769,-0.15575,-0.17723,7760,-1.855,29.312,-13.73,3.56,-15.124,-3.936,1.97,65.3901,15.549856,73.76347,-209.677,NaN,1.368,14.680643,198.5,15 / 36,32209,2019-01-17 16:06:00:338
0.27901,2.31631,10.79456,0.72512,2.65233,9.41328,-0.30273,-0.36217,1.25791,0.10905,-0.04497,-0.10852,7760,-3.294,30.061,-12.48,3.68,-15.692,-4.405,1.97,65.3901,15.549856,73.76347,-209.677,NaN,0,14.680643,,15 / 36,32309,2019-01-17 16:06:00:438
-0.00586,2.49835,9.30794,0.66026,2.88201,9.35032,-0.34793,-0.25264,-0.21414,0.08029,0.05997,-0.20546,7964,-0.731,30.061,-14.168,1.654,-16.85,-4.291,1.97,65.3901,15.549856,73.76347,-209.677,NaN,0,14.680643,,15 / 36,32409,2019-01-17 16:06:00:538
0.42302,2.68884,9.64534,0.6418,2.89386,9.34794,-0.21923,-0.19454,0.31251,-0.11412,-0.07159,-0.10426,8111.0005,-1.106,30.374,-13.73,3.718,-17.162,-3.872,1.97,65.3901,15.549856,73.76347,-209.677,NaN,0,14.680643,,15 / 36,32509,2019-01-17 16:06:00:638
0.84404,2.59798,10.17412,0.68673,2.77527,9.38065,0.14271,-0.36926,0.62816,-0.18976,-0.03271,0.02463,8128.9995,-1.855,29.686,-12.918,1.892,-16.934,-4.061,1.97,65.3901,15.549856,73.76347,-209.677,NaN,0,14.680643,,15 / 36,32610,2019-01-17 16:06:00:739
0.53037,2.37573,9.65291,0.70744,2.72833,9.39288,0.09746,-0.32391,-0.0577,-0.07845,0.08926,-0.16605,8237,-4.419,31.123,-13.73,5.344,-16.259,-4.182,1.97,65.3901,15.549856,73.76347,-209.677,NaN,0,14.680643,,15 / 36,32709,2019-01-17 16:06:00:838
0.06912,2.41158,8.99648,0.60029,2.7868,9.38316,-0.5936,-0.3095,-0.6296,0.06165,0.04665,-0.19481,8262,-3.294,31.123,-12.856,3.532,-16.143,-4.093,1.97,65.3901,15.549856,73.76347,-209.677,NaN,0,14.680643,,15 / 36,32809,2019-01-17 16:06:00:938
-0.57291,2.72839,8.47511,0.51933,2.71563,9.40883,-0.99013,0.00904,-1.05411,-0.18336,0.01682,0.21851,8289,-5.481,31.123,-16.667,3.514,-16.511,-3.391,1.97,65.3901,15.549856,73.76347,-209.677,NaN,0,14.680643,,15 / 36,32909,2019-01-17 16:06:01:038
-0.02516,2.93642,9.82751,0.61845,2.43801,9.47861,-0.70728,0.49972,0.29269,-0.26379,0.01788,0.47737,8172,-2.919,31.123,-12.48,3.829,-14.395,-3.733,1.97,65.3901,15.549856,73.76347,-209.677,NaN,0,14.680643,,15 / 36,33009,2019-01-17 16:06:01:138
0.16208,2.6277,11.38808,0.56827,2.40092,9.49121,-0.44865,0.26089,1.89536,0.25818,0.01149,0.41505,7848.9995,-1.855,31.123,-12.918,2.269,-13.823,-3.294,1.97,65.3901,15.549856,73.76347,-209.677,NaN,0,14.680643,,15 / 36,33109,2019-01-17 16:06:01:238
-0.0712,2.40649,9.40767,0.5749,2.5838,9.44266,-0.64594,-0.1766,-0.03243,0.30879,0.10631,0.76926,7860,-1.106,30.374,-11.667,0.475,-14.547,-3.422,1.97,65.3901,15.549856,73.76347,-209.677,NaN,0,14.680643,,15 / 36,33209,2019-01-17 16:06:01:338
-0.29449,2.59929,9.31276,0.58146,2.78074,9.38615,-0.72566,-0.20206,-0.20957,0.18202,0.3396,0.85074,7860,2.582,30.374,-12.48,357.008,-15.276,-3.484,1.97,65.3901,15.549856,73.76347,-209.677,NaN,0,14.680643,,15 / 36,33309,2019-01-17 16:06:01:438
0.04927,2.43614,8.99156,0.616,2.9147,9.34321,-0.52779,-0.49,-0.21589,0.16605,0.35344,1.14742,7656,5.144,29.686,-12.918,351.574,-16.473,-3.545,1.97,65.3901,15.549856,73.76347,-209.677,NaN,0,14.680643,,15 / 36,33409,2019-01-17 16:06:01:538
0.05179,2.34029,9.47546,0.57681,3.03792,9.30638,-0.59701,-0.72713,0.50583,0.31944,0.3316,1.24489,7271.0005,8.456,27.061,-11.667,343.376,-18.046,-3.547,1.97,65.3901,15.549856,73.76347,-209.677,NaN,0,14.680643,,15 / 36,33509,2019-01-17 16:06:01:638
0.05402,2.38342,9.92888,0.49262,3.04764,9.30804,-0.38584,-0.63012,0.96351,0.21237,0.37634,1.24702,6656,11.456,25.624,-12.918,337.684,-18.165,-3.257,1.97,65.3901,15.549856,73.76347,-209.677,NaN,0,14.680643,,15 / 36,33609,2019-01-17 16:06:01:738
0.57442,2.3468,9.27808,0.56428,3.14525,9.27143,0.12922,-0.72124,-0.35968,0.03714,0.44293,1.13783,5996.9995,17.331,24.124,-12.543,328.466,-18.636,-3.461,1.97,65.3901,15.549856,73.76347,-209.677,NaN,0,14.680643,,15 / 36,33709,2019-01-17 16:06:01:838
0.47917,2.51808,8.32027,0.58415,3.17068,9.26153,-0.03371,-0.71588,-0.74075,-0.04436,0.26982,0.9626,5563.0005,19.894,18.999,-12.918,316.331,-18.864,-3.609,1.97,65.3901,15.549856,73.76347,-209.677,NaN,0,14.680643,,15 / 36,33809,2019-01-17 16:06:01:938
-0.17088,2.7282,9.3084,0.52524,2.90108,9.35298,-0.72407,-0.15281,-0.07729,-0.18124,0.3183,0.9626,5121,21.768,18.25,-16.292,319.283,-18.431,-3.559,1.97,65.3901,15.549856,73.76347,-209.677,NaN,0,14.680643,,15 / 36,33909,2019-01-17 16:06:02:038
-0.09355,2.34,10.23399,0.49851,2.67696,9.42103,-0.55366,-0.31178,0.81412,-0.11891,0.25545,1.0116,5121,24.332,14.561,-9.979,307.2,-17.207,-3.214,1.97,65.3901,15.549856,73.76347,-209.677,NaN,0,14.680643,,15 / 36,34009,2019-01-17 16:06:02:138
0.09727,2.04199,10.45227,0.5111,2.45929,9.47951,-0.47766,-0.45788,0.95736,-0.10507,0.31296,1.10268,5038,26.894,12.373,-9.979,299.727,-14.852,-3.166,1.97,65.3901,15.549856,73.76347,-209.677,NaN,0,14.680643,,15 / 36,34109,2019-01-17 16:06:02:238
0.18835,2.00151,10.57524,0.38296,2.3294,9.51828,-0.25117,-0.30194,1.16642,0.05046,0.39766,1.21719,5028,29.457,7.936,-8.667,296.168,-14.307,-3.107,1.97,65.3901,15.549856,73.76347,-209.677,NaN,0,14.680643,,15 / 36,34209,2019-01-17 16:06:02:338
0.43382,2.26851,9.59885,0.35691,2.43875,9.49186,0.07681,-0.17096,0.10419,0.12662,0.36676,1.05315,5029,30.582,4.999,-7.417,281.243,-14.013,-2.501,1.97,65.3901,15.549856,73.76347,-209.677,NaN,0,14.680643,,15 / 36,34310,2019-01-17 16:06:02:439
-0.50435,2.09309,10.34048,0.33322,2.58833,9.45304,-0.86108,-0.52086,1.03926,0.33968,0.37048,1.10321,4934,30.582,2.061,-7.417,276.372,-15.304,-2.019,1.97,65.3901,15.549856,73.76347,-209.677,NaN,0,14.680643,,15 / 36,34409,2019-01-17 16:06:02:538
-0.73643,2.09613,9.40747,0.20122,2.81128,9.3929,-0.89114,-0.71793,-0.07953,0.24594,0.3902,1.22731,4692,29.831,-4.189,-5.73,271.34,-15.737,-1.614,1.97,65.3901,15.549856,73.76347,-209.677,NaN,0,14.680643,,15 / 36,34510,2019-01-17 16:06:02:639
-0.77315,2.46727,8.55673,0.17253,2.94854,9.3513,-1.07998,-0.45494,-0.70536,-0.02678,0.5649,1.45155,4387,29.457,-7.501,-5.292,257.802,-17.498,-1.057,1.97,65.3901,15.549856,73.76347,-209.677,NaN,0,14.680643,,15 / 36,34609,2019-01-17 16:06:02:738
-0.07831,2.10139,8.8208,0.10592,2.91191,9.36376,-0.22319,-0.97918,-0.0879,-0.14981,0.56596,1.28909,4062,29.082,-13.438,-3.604,248.705,-17.672,-1.024,1.97,65.3901,15.549856,73.76347,-209.677,NaN,0,14.680643,,15 / 36,34709,2019-01-17 16:06:02:838
-0.64793,2.04778,8.48055,-0.07392,2.76907,9.40729,-0.6259,-0.73399,-0.70565,-0.36819,0.7737,1.43131,3912,27.269,-17.126,-1.48,237.876,-16.788,-0.068,1.97,65.3901,15.549856,73.76347,-209.677,NaN,0,14.680643,,15 / 36,34809,2019-01-17 16:06:02:938
0.02066,1.2191,10.59004,-0.20732,2.47387,9.48722,-0.34391,-1.19032,2.18973,-0.12425,0.57129,1.467,4147,26.144,-20.439,-1.105,233.948,-15.253,1.026,1.97,65.3901,15.549856,73.76347,-209.677,NaN,0,14.680643,,15 / 36,34909,2019-01-17 16:06:03:038
-0.25558,2.04234,10.01296,-0.35722,2.42708,9.49484,-0.01277,-0.47906,0.70135,-0.05713,0.62828,1.59058,4147,23.207,-24.814,0.145,229.663,-14.612,1.252,1.97,65.3901,15.549856,73.76347,-209.677,NaN,0,14.680643,,15 / 36,35009,2019-01-17 16:06:03:138
0.14589,1.79997,10.00043,-0.55154,2.49057,9.46907,0.45742,-0.67612,0.47772,-0.04648,0.56064,1.49097,4298,18.768,-27.751,1.395,220.342,-14.472,2.831,1.97,65.3901,15.549856,73.76347,-209.677,NaN,0,14.680643,,15 / 36,35109,2019-01-17 16:06:03:238
0.03928,1.90511,10.00717,-0.70623,2.59307,9.43121,0.75588,-0.71837,0.71623,0.13622,0.44293,1.38338,4464,13.644,-32.564,1.457,203.807,-15.332,4.282,1.97,65.3901,15.549856,73.76347,-209.677,NaN,0,14.680643,,15 / 36,35209,2019-01-17 16:06:03:338
0.76636,2.07954,9.75941,-0.76715,2.76288,9.37808,1.48788,-0.68773,0.40111,0.19533,0.39819,1.18311,4666,10.707,-33.313,2.707,199.162,-16.364,4.677,1.97,65.3901,15.549856,73.76347,-209.677,NaN,0,14.680643,,15 / 36,35309,2019-01-17 16:06:03:438
-0.00186,2.72147,9.22163,-0.88886,2.90184,9.32521,0.8925,-0.18341,-0.12131,-0.14981,0.42482,1.02971,4780,4.457,-35.876,4.395,187.013,-17.212,5.445,1.97,65.3901,15.549856,73.76347,-209.677,NaN,0,14.680643,,15 / 36,35409,2019-01-17 16:06:03:538
0.83163,2.90343,9.20316,-0.79751,2.97966,9.30892,1.63034,-0.08072,-0.11978,-0.104,0.29698,0.68137,4994,1.831,-35.501,4.395,183.782,-17.652,5.044,1.97,65.3901,15.549856,73.76347,-209.677,NaN,0,14.680643,,15 / 36,35509,2019-01-17 16:06:03:638
0.07813,2.7131,8.72482,-0.79704,3.03501,9.29106,0.85688,-0.34996,-0.5555,0.04247,0.15797,0.35114,5245,-1.106,-35.501,4.021,183.682,-17.674,5.031,1.97,65.3901,15.549856,73.76347,-209.677,NaN,0,14.680643,,15 / 36,35609,2019-01-17 16:06:03:738
-0.61328,2.84402,9.0936,-0.82523,2.95984,9.31283,0.33869,-0.12276,-0.15806,-0.16632,0.09938,0.10399,5245,-0.356,-36.626,3.958,180.555,-17.567,5.064,1.97,65.3901,15.549856,73.76347,-209.677,NaN,0,14.680643,,15 / 36,35709,2019-01-17 16:06:03:838
-0.17502,3.08459,9.66374,-0.84422,2.86262,9.34147,0.69303,0.1695,0.51373,0.01744,-0.00182,0.16577,5337,-0.731,-36.252,2.707,178.861,-17.154,5.257,1.97,65.3901,15.549856,73.76347,-209.677,NaN,0,14.680643,,15 / 36,35809,2019-01-17 16:06:03:938
-0.75433,2.95213,10.74596,-0.73923,2.68565,9.40272,-0.14249,0.26361,1.18101,-0.25101,-0.05136,0.2052,5500.9995,-3.294,-35.501,-4.042,174.383,-15.894,4.495,1.97,65.3901,15.549856,73.76347,-209.677,NaN,0,14.680643,,15 / 36,35909,2019-01-17 16:06:04:038
-0.01503,2.72951,9.31233,-0.56488,2.61326,9.43516,0.62461,0.14969,-0.21635,-0.22012,-0.18398,0.15353,5607.0005,-1.855,-36.626,2.271,177.034,-15.455,3.426,1.97,65.3901,15.549856,73.76347,-209.677,NaN,0,14.680643,,15 / 36,36009,2019-01-17 16:06:04:138
0.5414,2.44615,9.26476,-0.55471,2.49757,9.46704,1.10997,-0.043,0.01597,-0.15407,0.05464,-0.04994,5684.9995,-3.294,-37.001,0.208,175.221,-14.755,3.353,1.97,65.3901,15.549856,73.76347,-209.677,NaN,0,14.680643,,15 / 36,36110,2019-01-17 16:06:04:239
-0.19106,2.34259,9.22549,-0.55304,2.44339,9.48127,0.33907,-0.16736,-0.24229,-0.104,-0.22446,-0.15965,5694,-3.668,-34.75,1.457,173.446,-14.621,3.689,1.97,65.3901,15.549856,73.76347,-209.677,NaN,0,14.680643,,15 / 36,36209,2019-01-17 16:06:04:338
0.0264,2.13634,9.47871,-0.45399,2.34698,9.51083,0.48158,-0.2168,-0.05703,-6.70E-04,-0.1909,-0.13675,5783.0005,-2.544,-37.001,0.583,175.226,-14.089,3.173,1.97,65.3901,15.549856,73.76347,-209.677,NaN,0,14.680643,,15 / 36,36310,2019-01-17 16:06:04:439
-0.8481,2.11681,9.52803,-0.29798,2.28017,9.53323,-0.45379,-0.15687,-0.19541,-0.03902,-0.18825,0.00919,5756,-2.168,-35.876,0.208,176.733,-13.56,2.214,1.97,65.3901,15.549856,73.76347,-209.677,NaN,0,14.680643,,15 / 36,36409,2019-01-17 16:06:04:538
-0.56346,1.86642,9.88692,-0.20804,2.17689,9.55972,-0.225,-0.12782,-0.16578,-0.04968,-0.11633,-0.03609,5610,-1.106,-37.001,1.457,175.184,-13.28,1.493,1.97,65.3901,15.549856,73.76347,-209.677,NaN,0,14.680643,,15 / 36,36509,2019-01-17 16:06:04:638
-0.71709,2.19652,9.80122,-0.13787,2.13828,9.5697,-0.66963,0.0335,0.22416,0.06165,-0.06413,0.02037,5652,-2.544,-36.626,-0.23,175.253,-12.594,0.825,1.97,65.3901,15.549856,73.76347,-209.677,NaN,0,14.680643,,15 / 36,36609,2019-01-17 16:06:04:738
-0.12126,2.41389,8.78474,-0.12758,2.20703,9.55422,0.00642,0.19521,-0.78765,0.13461,-0.013,-0.02757,5652,-1.482,-36.626,-0.23,175.253,-12.594,0.825,1.97,65.3901,15.549856,73.76347,-209.677,NaN,0,14.680643,,15 / 36,36709,2019-01-17 16:06:04:838
-0.7771,1.95821,8.9836,-0.07935,2.22758,9.54997,-0.90759,-0.24004,-0.57437,0.06058,-0.05669,-0.00679,5584,-0.356,-37.001,0.208,178.38,-13.006,0.765,1.97,65.3901,15.549856,73.76347,-209.677,NaN,0,14.680643,,15 / 36,36809,2019-01-17 16:06:04:938
1.02907,2.56444,9.38115,0.16454,2.31152,9.52891,0.72272,0.27975,0.19576,-0.15727,0.06689,0.21478,5562,-4.794,-34.75,-4.48,171.498,-13.745,-0.892,1.97,65.3901,15.549856,73.76347,-209.677,NaN,0,14.680643,,15 / 36,36910,2019-01-17 16:06:05:039
0.21701,2.27509,10.0141,0.19633,2.29705,9.53181,0.60722,-0.04993,0.81265,0.09787,-0.01939,-0.21027,5354,-2.168,-37.376,-0.23,176.807,-13.432,-1.181,1.97,65.3901,15.549856,73.76347,-209.677,NaN,0,14.680643,,15 / 36,37009,2019-01-17 16:06:05:138
-0.53046,1.98207,10.5273,0.1684,2.18185,9.55937,-0.69929,-0.2054,0.94329,-0.19934,-0.02951,-0.16286,5351,-1.482,-35.876,-1.918,175.1,-13.521,-1.288,1.97,65.3901,15.549856,73.76347,-209.677,NaN,0,14.680643,,15 / 36,37110,2019-01-17 16:06:05:239
0.89075,2.17055,9.51567,0.091,2.16153,9.56504,0.86773,0.0218,-0.02652,-0.03636,0.16542,0.0257,5380.9995,-3.294,-35.876,-1.042,175.101,-12.733,-0.545,1.97,65.3901,15.549856,73.76347,-209.677,NaN,0,14.680643,,15 / 36,37209,2019-01-17 16:06:05:338
-0.07686,1.89935,9.01677,-0.00406,2.15706,9.56648,-0.18596,-0.33849,-0.49688,0.03502,0.1031,0.06937,5463.0005,-3.668,-37.376,-0.23,175.119,-12.603,-0.034,1.97,65.3901,15.549856,73.76347,-209.677,NaN,0,14.680643,,15 / 36,37309,2019-01-17 16:06:05:438
0.72491,2.08728,9.13042,-0.103,2.14097,9.56954,0.46677,-0.10606,-0.28072,0.04939,0.08766,-0.00626,5512.9995,-2.168,-36.626,-1.042,176.794,-12.61,0.617,1.97,65.3901,15.549856,73.76347,-212.903,NaN,0,14.680643,,15 / 36,37409,2019-01-17 16:06:05:538
0.80913,2.16696,9.19771,-0.19864,2.15593,9.56467,0.37506,-0.12739,-0.30774,-0.01878,0.09245,0.12477,5512.9995,-1.855,-35.876,-0.23,176.728,-12.615,1.146,1.97,65.3901,15.549856,73.76347,-212.903,NaN,0,14.680643,,15 / 36,37510,2019-01-17 16:06:05:639
0.58974,2.20552,9.33614,-0.20712,2.16646,9.56211,0.74771,-0.01009,-0.18576,0.06165,0.0067,0.16951,5622,-2.168,-36.626,-0.667,178.317,-12.615,1.389,1.97,65.3901,15.549856,73.76347,-212.903,NaN,0,14.680643,,15 / 36,37609,2019-01-17 16:06:05:738
0.42972,2.26851,9.95441,-0.19621,2.21327,9.55161,0.62641,0.04987,0.37961,0.15326,0.05676,0.17696,5663.0005,-3.668,-36.626,-0.23,176.686,-12.89,1.166,1.97,65.3901,15.549856,73.76347,-212.903,NaN,0,14.680643,,15 / 36,37709,2019-01-17 16:06:05:838
0.21111,2.33011,9.39436,-0.16545,2.29576,9.53271,0.36515,-0.1363,0.02842,0.07443,0.01735,0.01291,5683.0005,-3.294,-37.752,-1.48,172.021,-13.344,1.009,1.97,65.3901,15.549856,73.76347,-212.903,NaN,0,14.680643,,15 / 36,37809,2019-01-17 16:06:05:938
0.13266,2.20367,9.74696,-0.12823,2.40439,9.50646,0.23338,-0.35093,-0.36481,0.0153,0.02588,0.08961,5652,-5.481,-37.376,-5.73,171.603,-14.192,0.773,1.97,65.3901,15.549856,73.76347,-212.903,NaN,0,14.680643,,15 / 36,37909,2019-01-17 16:06:06:038
-0.16104,2.36537,9.69844,-0.12165,2.54952,9.46866,-0.05034,-0.22799,0.19893,0.19374,0.04878,0.14235,5591.0005,-1.106,-37.001,1.021,178.429,-15.069,0.736,1.97,65.3901,15.549856,73.76347,-212.903,NaN,0,14.680643,,15 / 36,38009,2019-01-17 16:06:06:138
-0.11342,2.828,9.13503,-0.19518,2.76495,9.40677,0.06458,0.02842,-0.21776,0.1916,0.05836,0.09068,5583.0005,-4.419,-37.376,1.021,173.675,-15.379,0.827,1.97,65.3901,15.549856,73.76347,-212.903,NaN,0,14.680643,,15 / 36,38110,2019-01-17 16:06:06:239
-0.01355,3.00653,7.68333,-0.1997,2.80766,9.39402,0.08434,0.2828,-0.95771,-0.56952,0.02481,-0.16499,5468.9995,-3.668,-37.376,0.583,173.653,-16.637,1.218,1.97,65.3901,15.549856,73.76347,-212.903,NaN,0,14.680643,,15 / 36,38209,2019-01-17 16:06:06:338
-0.46173,2.06863,11.08057,-0.28451,2.32181,9.52358,-0.35656,-0.35242,1.8545,-0.04648,0.0051,0.18709,5628.9995,-5.481,-36.626,0.208,173.653,-16.637,1.218,1.97,65.3901,15.549856,73.76347,-212.903,NaN,0,14.680643,,15 / 36,38309,2019-01-17 16:06:06:438
0.27432,2.58928,9.65442,-0.28106,2.30902,9.52679,0.55014,0.26468,0.08559,0.09839,-0.07959,0.1434,5628.9995,-6.232,-38.126,-0.23,170.786,-13.618,1.69,1.97,65.3901,15.549856,73.76347,-212.903,NaN,0,14.680643,,15 / 36,38409,2019-01-17 16:06:06:538
-0.40701,2.36795,9.32051,-0.31485,2.38115,9.50796,-0.26692,-0.07747,-0.05184,0.26138,0.09192,0.15833,5666,-4.794,-36.626,-1.48,171.993,-13.666,1.819,1.97,65.3901,15.549856,73.76347,-212.903,NaN,0,14.680643,,15 / 36,38509,2019-01-17 16:06:06:638
-0.7838,2.49835,9.08989,-0.44591,2.3943,9.49941,-0.28842,0.11729,-0.45871,-0.0827,0.19153,-0.00893,5648,-5.481,-37.376,-0.23,172.088,-14.132,2.688,1.97,65.3901,15.549856,73.76347,-212.903,NaN,0,14.680643,,15 / 36,38610,2019-01-17 16:06:06:739
-0.26913,2.30928,9.63116,-0.57465,2.23942,9.53022,0.38228,0.06373,0.04701,-0.14767,0.19525,0.08908,5724.9995,-5.856,-37.752,-0.667,173.677,-13.438,3.222,1.97,65.3901,15.549856,73.76347,-212.903,NaN,0,14.680643,,15 / 36,38709,2019-01-17 16:06:06:838
-0.55338,2.3065,9.51245,-0.65166,2.18033,9.53897,0.14588,0.09914,0.03133,-0.01453,-0.01567,0.12157,5940.9995,-6.232,-37.001,-1.918,172.345,-12.887,3.808,1.97,65.3901,15.549856,73.76347,-212.903,NaN,0,14.680643,,15 / 36,38809,2019-01-17 16:06:06:938
-0.28764,2.52118,9.18013,-0.51876,2.29864,9.51932,0.23312,0.21365,-0.37599,0.1458,-0.20795,0.02783,6071.0005,-8.105,-37.001,-5.292,166.685,-13.556,3.119,1.97,65.3901,15.549856,73.76347,-212.903,NaN,0,14.680643,,15 / 36,38909,2019-01-17 16:06:07:038
-0.59312,2.80481,9.07417,-0.50158,2.37999,9.50024,-0.09245,0.41676,-0.27986,0.00252,0.15903,0.00546,5940.9995,-5.481,-37.001,-0.23,173.658,-13.988,2.757,1.97,65.3901,15.549856,73.76347,-212.903,NaN,0,14.680643,,15 / 36,39009,2019-01-17 16:06:07:138
-0.67192,2.60716,9.55568,-0.60619,2.48055,9.46836,-0.10236,0.20995,-0.05986,0.04886,0.12335,-0.0265,5914,-6.232,-38.126,-1.042,170.614,-14.652,3.663,1.97,65.3901,15.549856,73.76347,-212.903,NaN,0,14.680643,,15 / 36,39109,2019-01-17 16:06:07:238
-0.769,2.43782,9.7424,-0.64153,2.49943,9.46106,-0.12552,-0.0692,0.2526,-0.04222,0.03174,0.00279,5914,-7.356,-37.376,-1.48,170.772,-14.784,3.867,1.97,65.3901,15.549856,73.76347,-212.903,NaN,0,14.680643,,15 / 36,39209,2019-01-17 16:06:07:338
0.01456,2.93279,9.52086,-0.55928,2.63454,9.42957,0.35583,0.27702,0.35689,0.22304,-0.17599,-0.02118,5920,-5.856,-38.438,0.145,170.163,-15.171,3.813,1.97,65.3901,15.549856,73.76347,-212.903,NaN,0,14.680643,,15 / 36,39309,2019-01-17 16:06:07:438
-0.43553,2.20753,9.6629,-0.78144,2.65203,9.40885,0.32456,0.02534,0.06488,-0.07791,0.39285,-0.12238,5966,-3.668,-38.126,0.208,172.245,-15.876,3.688,1.97,65.3901,15.549856,73.76347,-212.903,NaN,0,14.680643,,15 / 36,39410,2019-01-17 16:06:07:539
-0.0493,2.23019,10.27409,-0.70414,2.63858,9.41873,0.58728,-0.3552,0.3676,0.01317,-0.04497,-0.15327,5836,-4.044,-37.752,-0.667,173.63,-15.579,4.464,1.97,65.3901,15.549856,73.76347,-212.903,NaN,0,14.680643,,15 / 36,39509,2019-01-17 16:06:07:638
0.20119,2.53983,8.52788,-0.57389,2.75385,9.39454,0.87083,-0.24824,-0.76656,0.02277,0.13773,-0.18469,5995.0005,-4.794,-37.752,0.208,172.226,-16.309,3.496,1.97,65.3901,15.549856,73.76347,-212.903,NaN,0,14.680643,,15 / 36,39610,2019-01-17 16:06:07:739
-1.04877,2.94206,9.40114,-0.56977,2.71679,9.40557,-0.46252,0.08564,0.09566,-0.12212,-0.09131,-0.19588,5844,-3.294,-37.752,0.208,173.921,-16.387,3.617,1.97,65.3901,15.549856,73.76347,-212.903,NaN,0,14.680643,,15 / 36,39709,2019-01-17 16:06:07:838
-0.70015,2.93587,9.05127,-0.55269,2.67928,9.41734,-0.14532,0.25629,-0.45499,-0.04488,0.0296,-0.00414,5652.9995,-2.168,-36.626,1.021,176.91,-15.855,3.359,1.97,65.3901,15.549856,73.76347,-212.903,NaN,0,14.680643,,15 / 36,39809,2019-01-17 16:06:07:938
-0.45183,3.31996,9.85922,-0.4947,2.59824,9.44324,0.07582,0.69757,0.32468,-0.02304,-0.00662,0.02197,5648.9995,-4.044,-38.126,-4.855,173.645,-15.733,3.238,1.97,65.3901,15.549856,73.76347,-212.903,NaN,0,14.680643,,15 / 36,39909,2019-01-17 16:06:08:038
-0.21407,3.25748,8.82098,-0.47184,2.6624,9.42652,0.22756,0.63189,-0.24471,-0.06245,-0.00235,-0.07924,5622,-3.668,-38.126,0.208,173.775,-15.753,2.866,1.97,65.3901,15.549856,73.76347,-212.903,NaN,0,14.680643,,15 / 36,40009,2019-01-17 16:06:08:138
-0.99548,3.09407,9.17781,-0.42914,2.71026,9.41492,-0.26806,0.27716,0.37467,0.12929,-0.10941,0.03102,5583.0005,-2.168,-37.752,-0.667,176.772,-15.817,2.909,1.97,65.3901,15.549856,73.76347,-212.903,NaN,0,14.680643,,15 / 36,40109,2019-01-17 16:06:08:238
0.05896,3.37941,9.53043,-0.35042,2.68511,9.42538,0.40442,0.67825,0.0893,-0.02251,-0.08224,0.16418,5583.0005,-3.294,-38.063,-0.23,175.315,-15.925,2.441,1.97,65.3901,15.549856,73.76347,-212.903,NaN,0,14.680643,,15 / 36,40209,2019-01-17 16:06:08:338
-0.42982,2.42174,9.77635,-0.35722,2.65724,9.43302,-0.22273,-0.00632,0.87384,0.11224,-0.12112,0.08801,5526,-3.668,-38.063,-0.667,173.666,-15.722,2.169,1.97,65.3901,15.549856,73.76347,-212.903,NaN,0,14.680643,,15 / 36,40309,2019-01-17 16:06:08:438
-0.4809,2.21339,9.78912,-0.368,2.62197,9.44247,-0.20093,-0.26937,-0.12677,-0.1413,0.04932,0.21797,5516.9995,-4.419,-38.814,-0.667,173.926,-15.801,2.084,1.97,65.3901,15.549856,73.76347,-212.903,NaN,0,14.680643,,15 / 36,40409,2019-01-17 16:06:08:538
-0.68686,2.13206,9.44409,-0.24984,2.4329,9.49679,-0.43621,-0.30872,-0.08347,-0.26805,-0.22127,0.09813,5540.9995,-4.419,-38.126,0.583,173.884,-14.847,1.81,1.97,65.3901,15.549856,73.76347,-212.903,NaN,0,14.680643,,15 / 36,40510,2019-01-17 16:06:08:639
-0.09296,1.97725,10.26427,-0.13228,2.31163,9.52939,0.04717,-0.48768,0.17801,-0.2084,0.09938,0.08908,5544.9995,-5.481,-38.126,-0.23,172.142,-14.066,0.647,1.97,65.3901,15.549856,73.76347,-212.903,NaN,0,14.680643,,15 / 36,40610,2019-01-17 16:06:08:739
0.24762,2.44759,9.60992,-0.04264,2.22671,9.55041,0.1009,0.09583,0.51446,0.11331,-0.02153,0.09334,5584.9995,-3.668,-38.126,-1.48,173.787,-13.124,0.256,1.97,65.3901,15.549856,73.76347,-212.903,NaN,0,14.680643,,15 / 36,40710,2019-01-17 16:06:08:839
-0.21046,2.5009,9.0733,-0.0442,2.25594,9.54354,-0.18078,0.29815,-0.51996,-0.19562,0.15584,0.04807,5558,-5.856,-38.126,-2.292,171.924,-13.458,0.134,1.97,65.3901,15.549856,73.76347,-212.903,NaN,0,14.680643,,15 / 36,40810,2019-01-17 16:06:08:939
-0.3969,2.76266,9.23163,-0.15122,2.19367,9.55695,-0.18553,0.48458,-0.16411,-0.00334,-0.00768,-0.04781,5558,-6.606,-38.438,-6.105,172.375,-12.904,0.941,1.97,65.3901,15.549856,73.76347,-212.903,NaN,0,14.680643,,15 / 36,40909,2019-01-17 16:06:09:038
-0.68803,2.66101,9.37633,-0.20805,2.12531,9.57132,-0.44707,0.5701,-0.46119,-0.21266,0.12708,0.05286,5576,-5.856,-37.752,-3.168,172.248,-12.724,1.135,1.97,65.3901,15.549856,73.76347,-212.903,NaN,0,14.680643,,15 / 36,41009,2019-01-17 16:06:09:138
-0.5744,3.20149,9.9135,-0.30778,2.06569,9.58168,-0.09343,0.98675,0.26178,9.30E-04,0.07275,0.13542,5724,-4.419,-38.126,-3.604,173.521,-12.16,1.84,1.97,65.3901,15.549856,73.76347,-212.903,NaN,0,14.680643,,15 / 36,41109,2019-01-17 16:06:09:238
-0.0336,2.74335,10.25427,-0.31983,2.14363,9.56415,-0.12459,0.90092,0.5106,0.09627,0.036,0.17163,5831.0005,-5.856,-37.752,-3.168,170.522,-12.416,1.88,1.97,65.3901,15.549856,73.76347,-212.903,NaN,0,14.680643,,15 / 36,41209,2019-01-17 16:06:09:338
-0.13762,2.5192,9.13037,-0.34298,2.22187,9.54547,0.15181,0.47615,0.45368,0.22304,0.10098,0.13649,5900,-7.356,-37.376,-1.48,170.522,-12.416,1.88,1.97,65.3901,15.549856,73.76347,-212.903,NaN,0,14.680643,,15 / 36,41309,2019-01-17 16:06:09:438
0.92468,2.54082,7.48163,-0.36396,2.46006,9.4861,1.29364,0.10825,-2.12568,-0.4124,0.11375,-0.32904,5891.0005,-8.481,-38.814,-0.667,167.891,-15.314,1.812,1.97,65.3901,15.549856,73.76347,-212.903,NaN,0,14.680643,,15 / 36,41409,2019-01-17 16:06:09:538
-0.50056,2.42174,9.15752,-0.37007,2.41477,9.49749,-0.13407,-0.01296,-0.37551,0.21237,-0.13498,-0.11652,5756.9995,-5.481,-37.376,-1.042,172.068,-13.819,2.485,1.97,65.3901,15.549856,73.76347,-212.903,NaN,0,14.680643,,15 / 36,41509,2019-01-17 16:06:09:638
0.14778,2.3653,9.02626,-0.36491,2.52745,9.46833,0.53384,-0.16912,-0.38067,0.00838,-0.01247,-0.26086,5788,-5.168,-38.814,-1.48,172.348,-14.935,2.207,1.97,65.3901,15.549856,73.76347,-212.903,NaN,0,14.680643,,15 / 36,41609,2019-01-17 16:06:09:738
-1.02661,2.41525,9.01328,-0.42452,2.46363,9.48265,-0.48077,-0.19815,-0.25267,-0.15781,0.01149,-0.07124,5616.9995,-3.668,-38.814,-1.918,173.852,-14.872,2.299,1.97,65.3901,15.549856,73.76347,-212.903,NaN,0,14.680643,,15 / 36,41710,2019-01-17 16:06:09:839
-0.46608,2.63693,9.33664,-0.49574,2.30753,9.5184,-0.04003,0.34527,-0.04047,-0.21266,-0.16002,-0.13782,5708,-2.919,-38.814,-1.918,175.271,-13.609,2.981,1.97,65.3901,15.549856,73.76347,-212.903,NaN,0,14.680643,,15 / 36,41809,2019-01-17 16:06:09:938
-0.25693,2.85814,10.06938,-0.46002,2.15311,9.5563,-0.00514,0.67975,0.44785,-0.10081,0.03972,0.13968,5708,-2.919,-39.938,-2.354,175.271,-13.609,2.981,1.97,65.3901,15.549856,73.76347,-212.903,NaN,0,14.680643,,15 / 36,41909,2019-01-17 16:06:10:038
0.19406,3.2386,9.84728,-0.39632,2.19356,9.54995,0.40205,0.93126,0.93892,0.27257,-0.08278,0.13754,5703.0005,-2.168,-37.752,-1.918,176.746,-12.925,2.376,1.97,65.3901,15.549856,73.76347,-212.903,NaN,0,14.680643,,15 / 36,42009,2019-01-17 16:06:10:138
0.02756,3.00858,9.03185,-0.37003,2.42349,9.49527,0.4535,0.46514,0.21934,0.30931,-0.05508,-0.06964,5692,-4.044,-39.563,-2.354,173.953,-13.779,2.031,1.97,65.3901,15.549856,73.76347,-212.903,NaN,0,14.680643,,15 / 36,42109,2019-01-17 16:06:10:238
-0.07149,2.89479,9.72957,-0.37967,2.55584,9.46012,0.18292,0.29452,0.16902,0.09253,0.15903,0.04967,5587.0005,-4.044,-39.189,-1.48,173.845,-15.107,2.298,1.97,65.3901,15.549856,73.76347,-212.903,NaN,0,14.680643,,15 / 36,42209,2019-01-17 16:06:10:338
-0.7294,3.72112,8.79034,-0.39187,2.72461,9.4124,-0.36497,0.95399,-0.78494,0.13675,-0.0359,0.03902,5558,-4.794,-38.814,0.208,172.494,-15.977,2.437,1.97,65.3901,15.549856,73.76347,-212.903,NaN,0,14.680643,,15 / 36,42309,2019-01-17 16:06:10:438
0.03981,3.13042,8.3046,-0.25639,2.76922,9.40405,-0.92964,0.11602,0.40409,0.30826,-0.27505,0.50507,5500,-4.794,-39.189,-1.042,172.3,-16.402,1.562,1.97,65.3901,15.549856,73.76347,-212.903,NaN,0,14.680643,,15 / 36,42409,2019-01-17 16:06:10:538
0.24051,2.81479,9.86853,-0.14182,2.76182,9.40865,0.28827,0.03926,0.48572,-0.02678,0.14252,0.36711,5438,-8.794,-38.814,-4.855,167.372,-16.426,0.826,1.97,65.3901,15.549856,73.76347,-212.903,NaN,0,14.680643,,15 / 36,42509,2019-01-17 16:06:10:638
-0.38948,2.59746,10.42609,-0.26376,2.67824,9.43016,-0.04848,-0.07881,0.95213,0.08348,0.22136,0.31705,5438,-5.856,-39.563,-1.042,169.695,-16.021,1.292,1.97,65.3901,15.549856,73.76347,-212.903,NaN,0,14.680643,,15 / 36,42610,2019-01-17 16:06:10:739
-0.05786,2.89867,9.02045,-0.32974,2.74608,9.40854,0.58548,0.42259,-0.84792,-0.12637,0.12122,0.06511,5476,-8.481,-39.189,-0.293,167.97,-16.262,2.007,1.97,65.3901,15.549856,73.76347,-212.903,NaN,0,14.680643,,15 / 36,42709,2019-01-17 16:06:10:838
-0.52666,2.4902,8.94196,-0.41933,2.59074,9.44895,-0.03339,-0.10563,-0.5478,-0.20627,0.12547,-0.04355,5636,-8.105,-39.189,-0.23,167.7,-16.039,2.185,1.97,65.3901,15.549856,73.76347,-212.903,NaN,0,14.680643,,15 / 36,42813,2019-01-17 16:06:10:942
-0.32677,2.86639,9.59467,-0.49975,2.33819,9.51071,0.34558,0.55042,-1.01184,-0.4614,0.09192,0.03581,5660.9995,-8.105,-39.189,-2.354,168.196,-15.053,2.883,1.97,65.3901,15.549856,73.76347,-212.903,NaN,0,14.680643,,15 / 36,42909,2019-01-17 16:06:11:038
-0.09813,2.9427,9.67592,-0.55181,2.09902,9.56347,0.55305,0.85754,0.3797,-0.18336,0.01576,-0.00626,5779.0005,-8.481,-39.189,-2.354,167.852,-13.176,3.152,1.97,65.3901,15.549856,73.76347,-212.903,NaN,0,14.680643,,15 / 36,43009,2019-01-17 16:06:11:138
-0.8255,2.90845,9.54901,-0.60841,2.03152,9.57461,-0.3871,0.8127,0.09375,-0.08696,0.01842,-0.18469,5991.0005,-7.356,-39.563,-3.604,167.274,-12.105,3.417,1.97,65.3901,15.549856,73.76347,-212.903,NaN,0,14.680643,,15 / 36,43111,2019-01-17 16:06:11:240
-0.9408,2.69223,10.15404,-0.65259,2.12548,9.55128,-0.3987,0.62417,0.27947,0.23155,0.036,-0.04887,6099.0005,-7.732,-39.563,-3.168,168.04,-11.981,3.778,1.97,65.3901,15.549856,73.76347,-212.903,NaN,0,14.680643,,15 / 36,43210,2019-01-17 16:06:11:339
-0.95335,2.90413,8.82239,-0.62693,2.28751,9.5155,-0.29773,0.46597,-0.24241,0.04779,-0.03165,0.01344,6096.9995,-7.732,-38.814,-3.23,167.841,-12.951,3.993,1.97,65.3901,15.549856,73.76347,-212.903,NaN,0,14.680643,,15 / 36,43309,2019-01-17 16:06:11:438
-0.25931,3.00403,8.87067,-0.58622,2.35019,9.50281,0.15204,0.59425,-0.77405,0.01744,-0.0945,-0.07071,5907.0005,-9.544,-39.938,-3.168,165.122,-13.866,3.53,1.97,65.3901,15.549856,73.76347,-212.903,NaN,0,14.680643,,15 / 36,43408,2019-01-17 16:06:11:537
-0.47754,2.74855,9.72504,-0.4419,2.33441,9.5145,0.13586,0.32152,0.4257,-0.03583,-0.05241,-0.12131,5742,-8.481,-39.189,-2.792,167.82,-13.926,2.746,1.97,65.3901,15.549856,73.76347,-212.903,NaN,0,14.680643,,15 / 36,43509,2019-01-17 16:06:11:638
-0.11342,2.80481,9.3772,-0.43977,2.37343,9.50494,0.32899,0.41713,-0.18483,0.12822,-0.13179,-0.10426,5742,-7.732,-39.563,-2.354,172.381,-13.809,2.717,1.97,65.3901,15.549856,73.76347,-212.903,NaN,0,14.680643,,15 / 36,43609,2019-01-17 16:06:11:738
0.20566,2.82396,9.74112,-0.22526,2.31591,9.5266,0.29924,0.51884,0.1111,-0.13702,-0.43752,-0.2028,5764.9995,-6.981,-39.938,-2.354,168.117,-14.006,2.649,1.97,65.3901,15.549856,73.76347,-212.903,NaN,0,14.680643,,15 / 36,43710,2019-01-17 16:06:11:839
0.09727,2.74821,9.62445,-0.15048,2.19543,9.55656,0.2489,0.53613,-0.00464,0.09467,-0.0945,-0.23582,5556,-6.232,-38.814,-3.604,170.729,-12.937,0.902,1.97,65.3901,15.549856,73.76347,-212.903,NaN,0,14.680643,,15 / 36,43809,2019-01-17 16:06:11:938
0.13557,2.32597,9.58789,-0.23032,2.28832,9.53315,0.345,0.0546,0.08336,0.13994,-0.0226,-0.1767,5554,-6.606,-39.938,-7.417,173.973,-12.937,0.902,1.97,65.3901,15.549856,73.76347,-212.903,NaN,0,14.680643,,15 / 36,43909,2019-01-17 16:06:12:038
-0.04787,2.63301,8.7637,-0.38636,2.4097,9.49813,0.39454,0.19793,-0.86162,0.10852,0.11589,-0.0771,5546,-4.419,-40.314,-3.23,169.025,-13.844,1.807,1.97,65.3901,15.549856,73.76347,-212.903,NaN,0,14.680643,,15 / 36,44009,2019-01-17 16:06:12:138
-0.26346,2.82076,9.49213,-0.49284,2.39506,9.4969,0.28148,0.39285,-0.3128,-0.08589,0.03227,-0.02597,5556.9995,-4.419,-40.689,-2.292,174.05,-14.136,2.971,1.97,65.3901,15.549856,73.76347,-212.903,NaN,0,14.680643,,15 / 36,44109,2019-01-17 16:06:12:238
-0.27789,2.76649,9.22064,-0.54543,2.34506,9.5065,0.24371,0.39611,-0.23869,0.02223,-0.04123,-0.02916,5630,-4.419,-39.938,-2.73,173.778,-13.831,3.225,1.97,65.3901,15.549856,73.76347,-212.903,NaN,0,14.680643,,15 / 36,44209,2019-01-17 16:06:12:338
-0.0536,2.55817,9.65862,-0.50363,2.24164,9.53372,0.58105,0.34456,-0.53416,-0.19987,-0.03804,-0.0329,5630,-4.419,-41.063,-3.168,173.794,-13.642,3.089,1.97,65.3901,15.549856,73.76347,-212.903,NaN,0,14.680643,,15 / 36,44309,2019-01-17 16:06:12:438
0.16704,3.2467,9.80405,-0.28878,2.13613,9.56682,0.57973,1.06493,-0.16965,-0.28244,-0.02739,0.07043,5704.9995,-3.668,-40.314,-3.168,173.987,-13.097,2.748,1.97,65.3901,15.549856,73.76347,-212.903,NaN,0,14.680643,,15 / 36,44409,2019-01-17 16:06:12:538
-0.11804,2.63969,9.436,-0.27134,2.09247,9.57697,0.28092,0.48391,-0.01219,0.08348,-0.04976,-0.13942,5720,-4.794,-39.938,-4.417,172.388,-12.184,1.702,1.97,65.3901,15.549856,73.76347,-212.903,NaN,0,14.680643,,15 / 36,44509,2019-01-17 16:06:12:638
0.24583,2.97252,8.07942,-0.26167,2.20947,9.55092,0.37082,0.61601,-0.59486,0.03235,-0.05295,-0.07976,5610,-3.294,-38.814,-3.168,175.288,-12.478,1.683,1.97,65.3901,15.549856,73.76347,-212.903,NaN,0,14.680643,,15 / 36,44609,2019-01-17 16:06:12:738
-0.61142,2.55582,9.97096,-0.30129,2.14834,9.56369,0.08579,0.31588,-0.00953,-0.09814,0.03706,-0.15007,5632,-3.294,-40.314,-4.417,175.341,-13.217,1.448,1.97,65.3901,15.549856,73.76347,-212.903,NaN,0,14.680643,,15 / 36,44709,2019-01-17 16:06:12:838
-0.50444,2.69258,10.14624,-0.416,2.16303,9.55608,-0.34316,0.54472,0.38967,0.18628,-0.01514,0.00865,5615.0005,-3.668,-39.189,-4.48,173.652,-12.373,2.139,1.97,65.3901,15.549856,73.76347,-212.903,NaN,0,14.680643,,15 / 36,44809,2019-01-17 16:06:12:938
0.06396,2.67574,9.36748,-0.37246,2.21626,9.54567,0.39479,0.40619,-0.1287,-0.14342,-0.01088,0.0209,5651.0005,-5.481,-40.314,-9.48,174.013,-13.134,2.353,1.97,65.3901,15.549856,73.76347,-212.903,NaN,0,14.680643,,15 / 36,44909,2019-01-17 16:06:13:038
-0.29631,2.49536,9.55318,-0.15534,2.17822,9.56042,-0.22313,0.24777,0.05267,0.11224,-0.66281,-0.08243,5638,-3.294,-40.314,-4.042,175.404,-12.833,0.931,1.97,65.3901,15.549856,73.76347,-212.903,NaN,0,14.680643,,15 / 36,45009,2019-01-17 16:06:13:138
-0.11482,1.98105,11.00423,0.07973,2.05454,9.58869,-0.20671,-0.02476,1.15963,0.07922,-0.26175,-0.20227,5623.0005,-2.919,-39.938,-4.042,175.567,-12.093,-0.476,1.97,65.3901,15.549856,73.76347,-212.903,NaN,0,14.680643,,15 / 36,45109,2019-01-17 16:06:13:238
-0.03436,2.00368,9.84526,0.15975,2.14446,9.56798,-0.00132,-0.14281,-0.41132,0.11011,-0.24896,-0.149,5317,-4.419,-40.314,-4.855,174.105,-12.631,-0.957,1.97,65.3901,15.549856,73.76347,-212.903,NaN,0,14.680643,,15 / 36,45209,2019-01-17 16:06:13:338
-0.55048,2.78217,9.61633,0.1632,2.22559,9.54937,-1.1245,0.5703,-0.46756,9.30E-04,0.34918,0.34741,5317,-3.294,-40.689,-4.042,175.703,-13.117,-0.979,1.97,65.3901,15.549856,73.76347,-212.903,NaN,0,14.680643,,15 / 36,45309,2019-01-17 16:06:13:438
-0.10635,3.0155,9.37013,0.07182,2.30053,9.53272,-0.20466,0.70616,-0.25251,0.04247,0.20432,0.36658,5297,-5.481,-41.063,-2.73,174.045,-13.469,-0.576,1.97,65.3901,15.549856,73.76347,-212.903,NaN,0,14.680643,,15 / 36,45409,2019-01-17 16:06:13:538
0.00677,3.13388,9.03243,-0.01962,2.43968,9.49831,-0.04416,0.5938,-0.48868,0.14847,0.18726,0.32184,5352,-5.856,-40.314,-2.73,171.018,-14.405,0.118,1.97,65.3901,15.549856,73.76347,-212.903,NaN,0,14.680643,,15 / 36,45509,2019-01-17 16:06:13:638
0.05896,2.85382,8.83019,-0.06817,2.556,9.46745,0.12726,0.29307,-0.65488,-0.08643,0.01735,0.15193,5414,-5.856,-41.063,-4.855,170.956,-15.145,0.439,1.97,65.3901,15.549856,73.76347,-212.903,NaN,0,14.680643,,15 / 36,45609,2019-01-17 16:06:13:738
0.69452,2.79784,10.12071,-0.06962,2.52244,9.47644,0.38709,0.10617,1.04696,0.07976,0.01682,0.18388,5466,-8.481,-40.689,-3.604,168.251,-14.905,0.421,1.97,65.3901,15.549856,73.76347,-212.903,NaN,0,14.680643,,15 / 36,45709,2019-01-17 16:06:13:838
0.85507,2.10071,9.91725,-0.03698,2.77499,9.40577,1.23744,-0.94503,-0.12546,0.18468,-0.08545,-0.15381,5520.9995,-7.356,-41.063,-3.604,170.029,-15.947,0.106,1.97,65.3901,15.549856,73.76347,-212.903,NaN,0,14.680643,,15 / 36,45809,2019-01-17 16:06:13:938
-0.80759,3.06831,8.70116,-0.19683,2.8858,9.37037,-0.57668,-0.09673,0.74442,0.33275,-0.04709,-0.18576,5460.9995,-7.356,-40.314,-5.667,168.957,-17.114,1.203,1.97,65.3901,15.549856,73.76347,-212.903,NaN,0,14.680643,,15 / 36,45909,2019-01-17 16:06:14:038
-0.59967,2.87401,8.91188,-0.34882,2.88947,9.36481,-0.23445,-0.01425,-0.48196,-0.2068,0.32095,0.02888,5475.0005,-6.981,-41.438,-1.042,169.758,-17.422,1.529,1.97,65.3901,15.549856,73.76347,-212.903,NaN,0,14.680643,,15 / 36,46009,2019-01-17 16:06:14:138
0.03981,3.20703,9.09195,-0.46004,2.86255,9.36827,0.32197,0.31494,0.13567,0.05951,0.12068,0.16525,5475.0005,-6.981,-41.438,-2.354,169.76,-16.792,2.482,1.97,65.3901,15.549856,73.76347,-212.903,NaN,0,14.680643,,15 / 36,46110,2019-01-17 16:06:14:239
0.24571,3.07295,9.0468,-0.64824,2.76557,9.38625,0.80378,0.2823,-0.62759,-0.28989,0.21283,-0.03769,5619.0005,-7.356,-41.063,-3.168,169.384,-16.76,3.481,1.97,65.3901,15.549856,73.76347,-212.903,NaN,0,14.680643,,15 / 36,46209,2019-01-17 16:06:14:338
0.05525,2.6855,9.4155,-0.67054,2.63691,9.42165,0.64655,-0.08941,0.59882,-0.0385,-0.1403,-0.19269,5695.0005,-5.481,-40.689,-4.417,167.681,-15.855,4.283,1.97,65.3901,15.549856,73.76347,-212.903,NaN,0,14.680643,,15 / 36,46309,2019-01-17 16:06:14:438
-0.40573,2.84729,9.19399,-0.74176,2.63283,9.41745,0.31805,0.20821,-0.22517,0.03821,-0.08118,-0.2747,5940.9995,-6.606,-41.063,-4.417,169.294,-15.573,4.504,1.97,65.3901,15.549856,73.76347,-212.903,NaN,0,14.680643,,15 / 36,46410,2019-01-17 16:06:14:539
-1.05659,2.85472,8.83046,-0.67198,2.57795,9.43785,-0.3839,0.27402,-0.61747,-0.01932,-0.22446,-0.15807,5988.9995,-3.668,-40.314,-3.979,172.194,-15.589,4.219,1.97,65.3901,15.549856,73.76347,-212.903,NaN,0,14.680643,,15 / 36,46509,2019-01-17 16:06:14:638
-0.95602,2.99493,9.20699,-0.55343,2.43689,9.48291,-0.33647,0.59606,-0.26955,-0.13223,-0.03058,0.01291,5943.0005,-3.668,-40.689,-4.417,173.78,-14.388,3.34,1.97,65.3901,15.549856,73.76347,-212.903,NaN,0,14.680643,,15 / 36,46609,2019-01-17 16:06:14:738
-0.07608,2.88445,9.50826,-0.44052,2.26299,9.5318,0.20796,0.53894,0.12537,-0.03743,-0.10728,0.14821,5807.0005,-5.481,-41.063,-5.667,173.641,-13.451,2.855,1.97,65.3901,15.549856,73.76347,-212.903,NaN,0,14.680643,,15 / 36,46710,2019-01-17 16:06:14:839
-0.49446,2.75826,9.95482,-0.34214,2.24438,9.54024,0.07236,0.42382,0.02867,0.08615,-0.03432,0.18442,5844,-3.668,-41.814,-6.105,173.92,-13.23,2.054,1.97,65.3901,15.549856,73.76347,-212.903,NaN,0,14.680643,,15 / 36,46809,2019-01-17 16:06:14:938
-0.00209,2.71629,10.72464,-0.34936,2.31436,9.52324,0.32135,0.33237,1.4045,0.23315,-0.2644,-0.12184,5844.9995,-6.232,-41.063,-11.168,173.614,-13.249,2.003,1.97,65.3901,15.549856,73.76347,-212.903,NaN,0,14.680643,,15 / 36,46910,2019-01-17 16:06:15:039
-0.5074,2.80067,10.42593,-0.37488,2.36229,9.51049,0.06919,0.27795,1.12674,0.21078,0.01256,0.10931,5774,-3.668,-41.063,-3.979,173.934,-13.654,2.004,1.97,65.3901,15.549856,73.76347,-212.903,NaN,0,14.680643,,15 / 36,47009,2019-01-17 16:06:15:138
-0.21407,2.76337,9.24974,-0.34908,2.47545,9.48265,0.04377,0.3395,-0.12506,0.17509,-0.04176,0.15247,5774,-4.419,-41.751,-4.042,175.183,-13.939,2.257,1.97,65.3901,15.549856,73.76347,-212.903,NaN,0,14.680643,,15 / 36,47110,2019-01-17 16:06:15:239
-0.29187,2.24329,9.65044,-0.35918,2.52501,9.4692,0.05514,-0.30132,0.26036,0.16977,0.03281,0.11305,5756.9995,-5.168,-41.438,-6.105,173.945,-14.621,2.108,1.97,65.3901,15.549856,73.76347,-212.903,NaN,0,14.680643,,15 / 36,47209,2019-01-17 16:06:15:338
0.13245,2.66916,8.89993,-0.34589,2.64828,9.43596,0.16546,-0.06106,-0.17738,0.06697,-0.021,0.11996,5716,-5.168,-40.689,-5.292,172.753,-15.33,2.129,1.97,65.3901,15.549856,73.76347,-212.903,NaN,0,14.680643,,15 / 36,47309,2019-01-17 16:06:15:438
-0.84834,2.26851,9.04422,-0.41835,2.67309,9.42602,-0.43139,-0.4117,-0.40324,0.03395,-0.06787,-0.03555,5742,-5.856,-42.126,-4.417,171.096,-15.818,2.541,1.97,65.3901,15.549856,73.76347,-212.903,NaN,0,14.680643,,15 / 36,47409,2019-01-17 16:06:15:538
-0.3606,3.0155,9.30971,-0.41769,2.69611,9.4195,-0.03961,0.29447,0.10996,0.06325,-0.00609,0.04114,5708,-4.419,-41.063,-3.979,173.803,-15.882,2.467,1.97,65.3901,15.549856,73.76347,-212.903,NaN,0,14.680643,,15 / 36,47509,2019-01-17 16:06:15:638
-0.5692,2.93889,8.35045,-0.26928,2.75001,9.40932,-0.2715,0.13908,-1.13496,-0.14502,-0.2218,-0.06059,5694,-6.232,-42.502,-3.168,172.541,-16.246,2.039,1.97,65.3901,15.549856,73.76347,-212.903,NaN,0,14.680643,,15 / 36,47609,2019-01-17 16:06:15:738
-0.43903,2.80481,9.26227,-0.05622,2.55445,9.46795,-0.22994,0.3234,-0.13333,-0.14555,-0.12061,0.01398,5554,-5.168,-42.502,-4.855,172.872,-15.099,0.34,1.97,65.3901,15.549856,73.76347,-212.903,NaN,0,14.680643,,15 / 36,47712,2019-01-17 16:06:15:841
